currSlide,currImage,currText,blockNum,targetHappiness,highAmount,instructionLoop1.thisRepN,instructionLoop1.thisTrialN,instructionLoop1.thisN,instructionLoop1.thisIndex,instructionLoop2.thisRepN,instructionLoop2.thisTrialN,instructionLoop2.thisN,instructionLoop2.thisIndex,blockLoop.thisRepN,blockLoop.thisTrialN,blockLoop.thisN,blockLoop.thisIndex,trialLoop.thisRepN,trialLoop.thisTrialN,trialLoop.thisN,trialLoop.thisIndex,doRatingLoop.thisRepN,doRatingLoop.thisTrialN,doRatingLoop.thisN,doRatingLoop.thisIndex,trialHappyLoop.thisRepN,trialHappyLoop.thisTrialN,trialHappyLoop.thisN,trialHappyLoop.thisIndex,logWinningsLoop.thisRepN,logWinningsLoop.thisTrialN,logWinningsLoop.thisN,logWinningsLoop.thisIndex,instrImage.started,instrImage.stopped,instrText.started,instrText.stopped,instrContinueText.started,instrContinueText.stopped,instrKeyResp.keys,instrKeyResp.rt,instrKeyResp.started,instrKeyResp.stopped,lifeHappyText.started,lifeHappyText.stopped,lifeHappySlider.response,lifeHappySlider.rt,lifeHappySlider.started,lifeHappySlider.stopped,lifeHappyResp.keys,lifeHappyResp.rt,lifeHappyResp.started,lifeHappyResp.stopped,instrImage_2.started,instrImage_2.stopped,instrText_2.started,instrText_2.stopped,instrContinueText_2.started,instrContinueText_2.stopped,instrKeyResp_2.keys,instrKeyResp_2.rt,instrKeyResp_2.started,instrKeyResp_2.stopped,localizing.started,localizing.stopped,start_exp.keys,start_exp.rt,start_exp.started,start_exp.stopped,blockHappyText.started,blockHappyText.stopped,blockHappySlider.response,blockHappySlider.rt,blockHappySlider.started,blockHappySlider.stopped,blockHappyResp.keys,blockHappyResp.rt,blockHappyResp.started,blockHappyResp.stopped,blankText.started,blankText.stopped,isHappyBlock,isCongruent,isWinOnTop,lastHappyRating,diff,sumDiff,RPE,winAmount,loseAmount,certainAmount,choice,outcome,outcomeAmount,currentWinnings,fixCross.started,fixCross.stopped,certainBox.started,certainBox.stopped,outcome1Box.started,outcome1Box.stopped,outcome2Box.started,outcome2Box.stopped,certainText.started,certainText.stopped,outcome1Text.started,outcome1Text.stopped,outcome2Text.started,outcome2Text.stopped,choiceKey.keys,choiceKey.started,choiceKey.stopped,fixCross_2.started,fixCross_2.stopped,certainBox_2.started,certainBox_2.stopped,outcome1Box_2.started,outcome1Box_2.stopped,outcome2Box_2.started,outcome2Box_2.stopped,certainText_2.started,certainText_2.stopped,outcome1Text_2.started,outcome1Text_2.stopped,outcome2Text_2.started,outcome2Text_2.stopped,fixCross_3.started,fixCross_3.stopped,certainBox_3.started,certainBox_3.stopped,outcome1Box_3.started,outcome1Box_3.stopped,outcome2Box_3.started,outcome2Box_3.stopped,certainText_3.started,certainText_3.stopped,outcome1Text_3.started,outcome1Text_3.stopped,outcome2Text_3.started,outcome2Text_3.stopped,fixCross_ITI.started,fixCross_ITI.stopped,choiceKey.rt,fixCross_ISI.started,fixCross_ISI.stopped,happyText.started,happyText.stopped,happySlider.response,happySlider.rt,happySlider.started,happySlider.stopped,happyResp.keys,happyResp.started,happyResp.stopped,endOfBlockText.started,endOfBlockText.stopped,restKeyResp.keys,restKeyResp.rt,restKeyResp.started,restKeyResp.stopped,finalWinnings,cashBonus,goodbyeText.started,goodbyeText.stopped,finalWinningsText.started,finalWinningsText.stopped,spaceToContinue.started,spaceToContinue.stopped,goodbyeKeyResp_2.keys,goodbyeKeyResp_2.rt,goodbyeKeyResp_2.started,goodbyeKeyResp_2.stopped,participant,date,expName,psychopyVersion,frameRate,
1,black.png,"Welcome! You are about to play our gambling task.
This task has 3 blocks and takes about 15 minutes.",,,,0,0,0,0,,,,,,,,,,,,,,,,,,,,,,,,,10.89280628808774,None,10.89280628808774,None,10.89280628808774,None,4,13.672242192842532,10.89280628808774,None,,,,,,,,,,,,,,,,,,,,,,,,,,,,,,,,,,,,,,,,,,,,,,,,,,,,,,,,,,,,,,,,,,,,,,,,,,,,,,,,,,,,,,,,,,,,,,,,,,,,,,,,,,,,,,,,,,,,,,,,,,,,,,,,,,24103,2019_Sep_04_1636,Mmi_3levels,3.1.5,60.067426157317406,
2,black.png,"In this game, you may win or lose points. Your goal is to get as many points as possible. These points will be converted to a cash bonus at the end.
Sometimes we will ask you to rate your mood.",,,,0,1,1,1,,,,,,,,,,,,,,,,,,,,,,,,,24.614808076119516,None,24.614808076119516,None,24.614808076119516,None,4,7.986702701251488,24.614808076119516,None,,,,,,,,,,,,,,,,,,,,,,,,,,,,,,,,,,,,,,,,,,,,,,,,,,,,,,,,,,,,,,,,,,,,,,,,,,,,,,,,,,,,,,,,,,,,,,,,,,,,,,,,,,,,,,,,,,,,,,,,,,,,,,,,,,24103,2019_Sep_04_1636,Mmi_3levels,3.1.5,60.067426157317406,
3,black.png,"On the next screen, please rate how you feel about your life these days. Use the LEFT (green) and RIGHT (blue) buttons to move the slider (you can press and hold them to slide gradually) and the TOP (red) button to lock in your response.
Make your rating as accurately and quickly as you can!",,,,0,2,2,2,,,,,,,,,,,,,,,,,,,,,,,,,32.651309090841096,None,32.651309090841096,None,32.651309090841096,None,4,17.940521498851012,32.651309090841096,None,,,,,,,,,,,,,,,,,,,,,,,,,,,,,,,,,,,,,,,,,,,,,,,,,,,,,,,,,,,,,,,,,,,,,,,,,,,,,,,,,,,,,,,,,,,,,,,,,,,,,,,,,,,,,,,,,,,,,,,,,,,,,,,,,,24103,2019_Sep_04_1636,Mmi_3levels,3.1.5,60.067426157317406,
,,,,,,,,,,,,,,,,,,,,,,,,,,,,,,,,,,,,,,,,,,,,50.608284220914356,None,0.77,6.685013116162736,54.60982206906192,None,4,2.667925594490953,54.60982206906192,None,,,,,,,,,,,,,,,,,,,,,,,,,,,,,,,,,,,,,,,,,,,,,,,,,,,,,,,,,,,,,,,,,,,,,,,,,,,,,,,,,,,,,,,,,,,,,,,,,,,,,,,,,,,,,,,,,,,,,,,,24103,2019_Sep_04_1636,Mmi_3levels,3.1.5,60.067426157317406,
4,black.png,"In this game you can win money by earning points according to your choices. You will decide whether to gamble a number of points or stick with a guaranteed number of points. 
Make your choice by pressing the left or right arrow key once. An example of one trial is shown on the next screen.",,,,,,,,0,0,0,0,,,,,,,,,,,,,,,,,,,,,,,,,,,,,,,,,,,,,,,,,57.32756325619994,None,57.32756325619994,None,57.32756325619994,None,4,9.90407296171179,57.32756325619994,None,,,,,,,,,,,,,,,,,,,,,,,,,,,,,,,,,,,,,,,,,,,,,,,,,,,,,,,,,,,,,,,,,,,,,,,,,,,,,,,,,,,,,,,,,,,,,,,,,,,,,,,,,,,,,,24103,2019_Sep_04_1636,Mmi_3levels,3.1.5,60.067426157317406,
5,example_start.png,"The GAMBLING OPTION will be shown on the RIGHT SIDE. 
Select this option using the RIGHT (blue) button on your keypad.",,,,,,,,0,1,1,1,,,,,,,,,,,,,,,,,,,,,,,,,,,,,,,,,,,,,,,,,67.29811247217003,None,67.29811247217003,None,67.29811247217003,None,4,8.95369752321858,67.29811247217003,None,,,,,,,,,,,,,,,,,,,,,,,,,,,,,,,,,,,,,,,,,,,,,,,,,,,,,,,,,,,,,,,,,,,,,,,,,,,,,,,,,,,,,,,,,,,,,,,,,,,,,,,,,,,,,,24103,2019_Sep_04_1636,Mmi_3levels,3.1.5,60.067426157317406,
6,example_gamble.png,"Once you select the gambling choice, the choice you made will remain on the screen.",,,,,,,,0,2,2,2,,,,,,,,,,,,,,,,,,,,,,,,,,,,,,,,,,,,,,,,,76.28494668728672,None,76.28494668728672,None,76.28494668728672,None,4,1.3006982714287005,76.28494668728672,None,,,,,,,,,,,,,,,,,,,,,,,,,,,,,,,,,,,,,,,,,,,,,,,,,,,,,,,,,,,,,,,,,,,,,,,,,,,,,,,,,,,,,,,,,,,,,,,,,,,,,,,,,,,,,,24103,2019_Sep_04_1636,Mmi_3levels,3.1.5,60.067426157317406,
7,example_win.png,"The outcome you received will then be shown on the screen. In this example , you WON 10 points.",,,,,,,,0,3,3,3,,,,,,,,,,,,,,,,,,,,,,,,,,,,,,,,,,,,,,,,,77.61882836831501,None,77.61882836831501,None,77.61882836831501,None,4,2.8846277901902795,77.61882836831501,None,,,,,,,,,,,,,,,,,,,,,,,,,,,,,,,,,,,,,,,,,,,,,,,,,,,,,,,,,,,,,,,,,,,,,,,,,,,,,,,,,,,,,,,,,,,,,,,,,,,,,,,,,,,,,,24103,2019_Sep_04_1636,Mmi_3levels,3.1.5,60.067426157317406,
8,example_start.png,"The GUARANTEED OPTION will be shown on the LEFT SIDE. You are 100% guaranteed to gain or lose this amount. In this example, you have a 100% chance of winning 1 point. Select this option using the LEFT (green) button on your keyboard.",,,,,,,,0,4,4,4,,,,,,,,,,,,,,,,,,,,,,,,,,,,,,,,,,,,,,,,,80.55327175109414,None,80.55327175109414,None,80.55327175109414,None,4,2.801296003453899,80.55327175109414,None,,,,,,,,,,,,,,,,,,,,,,,,,,,,,,,,,,,,,,,,,,,,,,,,,,,,,,,,,,,,,,,,,,,,,,,,,,,,,,,,,,,,,,,,,,,,,,,,,,,,,,,,,,,,,,24103,2019_Sep_04_1636,Mmi_3levels,3.1.5,60.067426157317406,
9,example_certain.png,"Once you select the guaranteed choice, your selection will remain on the screen.",,,,,,,,0,5,5,5,,,,,,,,,,,,,,,,,,,,,,,,,,,,,,,,,,,,,,,,,83.38770700630266,None,83.38770700630266,None,83.38770700630266,None,4,0.8838172680698335,83.38770700630266,None,,,,,,,,,,,,,,,,,,,,,,,,,,,,,,,,,,,,,,,,,,,,,,,,,,,,,,,,,,,,,,,,,,,,,,,,,,,,,,,,,,,,,,,,,,,,,,,,,,,,,,,,,,,,,,24103,2019_Sep_04_1636,Mmi_3levels,3.1.5,60.067426157317406,
10,black.png,"Please make your choices as fast as possible.
You will be given a break at the end of each block.
Let's play!",,,,,,,,0,6,6,6,,,,,,,,,,,,,,,,,,,,,,,,,,,,,,,,,,,,,,,,,84.30470192432404,None,84.30470192432404,None,84.30470192432404,None,4,3.0346914991969243,84.30470192432404,None,,,,,,,,,,,,,,,,,,,,,,,,,,,,,,,,,,,,,,,,,,,,,,,,,,,,,,,,,,,,,,,,,,,,,,,,,,,,,,,,,,,,,,,,,,,,,,,,,,,,,,,,,,,,,,24103,2019_Sep_04_1636,Mmi_3levels,3.1.5,60.067426157317406,
,,,,,,,,,,,,,,,,,,,,,,,,,,,,,,,,,,,,,,,,,,,,,,,,,,,,,,,,,,,,,,,,87.355913611711,None,space,29.528370834479574,87.355913611711,None,,,,,,,,,,,,,,,,,,,,,,,,,,,,,,,,,,,,,,,,,,,,,,,,,,,,,,,,,,,,,,,,,,,,,,,,,,,,,,,,,,,,,,,,,,,,,,,,,,,,,,,,24103,2019_Sep_04_1636,Mmi_3levels,3.1.5,60.067426157317406,
,,,1,1,9.7,,,,,,,,,0,0,0,0,0,0,0,8,,,,,,,,,,,,,,,,,,,,,,,,,,,,,,,,,,,,,,,,,,,,,,,,,116.90074127732078,None,0.6,5.695478547248058,119.9185366059537,None,4,2.6679377539549023,119.9185366059537,None,122.60290783212986,None,True,True,True,0.6,-0.4,-0.4,6.000000000000001,9.7,3.6999999999999984,1.8499999999999992,gamble,win,9.7,9.7,125.63747805700405,None,125.63747805700405,None,125.63747805700405,None,125.63747805700405,None,125.63747805700405,None,125.63747805700405,None,125.63747805700405,None,None,125.63747805700405,None,128.63863480294822,None,128.63863480294822,None,128.63863480294822,None,128.63863480294822,None,128.63863480294822,None,128.63863480294822,None,128.63863480294822,None,132.62348543072585,None,132.62348543072585,None,132.62348543072585,None,132.62348543072585,None,132.62348543072585,None,132.62348543072585,None,132.62348543072585,None,133.62386461300775,None,,,,,,,,,,,,,,,,,,,,,,,,,,,,,,,24103,2019_Sep_04_1636,Mmi_3levels,3.1.5,60.067426157317406,
,,,1,1,-0.7,,,,,,,,,0,0,0,0,0,1,1,18,,,,,,,,,,,,,,,,,,,,,,,,,,,,,,,,,,,,,,,,,,,,,,,,,,,,,,,,,,,,,True,True,False,0.6,-0.4,-0.8,6.4,-0.7,-7.1000000000000005,-3.9000000000000004,certain,certain,-3.9000000000000004,5.799999999999999,135.64134635624941,None,135.64134635624941,None,135.64134635624941,None,135.64134635624941,None,135.64134635624941,None,135.64134635624941,None,135.64134635624941,None,3,135.64134635624941,None,137.30865373968845,None,137.30865373968845,None,137.30865373968845,None,137.30865373968845,None,137.30865373968845,None,137.30865373968845,None,137.30865373968845,None,141.3102335058502,None,141.3102335058502,None,141.3102335058502,None,141.3102335058502,None,141.3102335058502,None,141.3102335058502,None,141.3102335058502,None,142.29394914669683,None,1.6342430081567727,,,,,,,,,,,,,,,,,,,,,,,,,,,,,,24103,2019_Sep_04_1636,Mmi_3levels,3.1.5,60.067426157317406,
,,,1,1,2.1,,,,,,,,,0,0,0,0,0,2,2,3,,,,,,,,,,,,,,,,,,,,,,,,,,,,,,,,,,,,,,,,,,,,,,,,,,,,,,,,,,,,,True,False,False,0.6,-0.4,-1.2000000000000002,-1.5000000000000002,2.1,0.5999999999999999,1.35,certain,certain,1.35,7.149999999999999,144.31140305125155,None,144.31140305125155,None,144.31140305125155,None,144.31140305125155,None,144.31140305125155,None,144.31140305125155,None,144.31140305125155,None,3,144.31140305125155,None,145.84524179028813,None,145.84524179028813,None,145.84524179028813,None,145.84524179028813,None,145.84524179028813,None,145.84524179028813,None,145.84524179028813,None,149.8302024929435,None,149.8302024929435,None,149.8302024929435,None,149.8302024929435,None,149.8302024929435,None,149.8302024929435,None,149.8302024929435,None,159.33386280189734,None,1.500805722316727,150.83060503413435,None,151.83099381596548,None,0.6,7.5028481869376265,154.83215984149138,None,None,154.83215984149138,None,,,,,,,,,,,,,,,,,,,24103,2019_Sep_04_1636,Mmi_3levels,3.1.5,60.067426157317406,
,,,1,1,8.5,,,,,,,,,0,0,0,0,0,3,3,16,,,,,,,,,,,,,,,,,,,,,,,,,,,,,,,,,,,,,,,,,,,,,,,,,,,,,,,,,,,,,True,True,False,0.6,-0.4,-1.6,7.200000000000001,8.5,1.299999999999999,0.6499999999999995,gamble,win,8.5,15.649999999999999,161.3726443500491,None,161.3726443500491,None,161.3726443500491,None,161.3726443500491,None,161.3726443500491,None,161.3726443500491,None,161.3726443500491,None,1,161.3726443500491,None,163.28544554393739,None,163.28544554393739,None,163.28544554393739,None,163.28544554393739,None,163.28544554393739,None,163.28544554393739,None,163.28544554393739,None,167.27032209053868,None,167.27032209053868,None,167.27032209053868,None,167.27032209053868,None,167.27032209053868,None,167.27032209053868,None,167.27032209053868,None,168.27072015195154,None,1.8797153797349893,,,,,,,,,,,,,,,,,,,,,,,,,,,,,,24103,2019_Sep_04_1636,Mmi_3levels,3.1.5,60.067426157317406,
,,,1,1,10.5,,,,,,,,,0,0,0,0,0,4,4,1,,,,,,,,,,,,,,,,,,,,,,,,,,,,,,,,,,,,,,,,,,,,,,,,,,,,,,,,,,,,,True,True,False,0.6,-0.4,-2.0,7.6000000000000005,10.5,2.8999999999999995,1.4499999999999997,gamble,win,10.5,26.15,170.2881615770748,None,170.2881615770748,None,170.2881615770748,None,170.2881615770748,None,170.2881615770748,None,170.2881615770748,None,170.2881615770748,None,1,170.2881615770748,None,171.52198649279308,None,171.52198649279308,None,171.52198649279308,None,171.52198649279308,None,171.52198649279308,None,171.52198649279308,None,171.52198649279308,None,175.52349842211697,None,175.52349842211697,None,175.52349842211697,None,175.52349842211697,None,175.52349842211697,None,175.52349842211697,None,175.52349842211697,None,185.01053774764296,None,1.2007381414878182,176.50725950079504,None,177.50765372242313,None,0.68,7.502838587388396,180.50881590810604,None,None,180.50881590810604,None,,,,,,,,,,,,,,,,,,,24103,2019_Sep_04_1636,Mmi_3levels,3.1.5,60.067426157317406,
,,,1,1,5.9,,,,,,,,,0,0,0,0,0,5,5,0,,,,,,,,,,,,,,,,,,,,,,,,,,,,,,,,,,,,,,,,,,,,,,,,,,,,,,,,,,,,,True,True,True,0.68,-0.31999999999999995,-2.32,6.799999999999999,5.9,-0.8999999999999986,-0.4499999999999993,gamble,win,5.9,32.05,187.02802845049882,None,187.02802845049882,None,187.02802845049882,None,187.02802845049882,None,187.02802845049882,None,187.02802845049882,None,187.02802845049882,None,1,187.02802845049882,None,188.81204046146013,None,188.81204046146013,None,188.81204046146013,None,188.81204046146013,None,188.81204046146013,None,188.81204046146013,None,188.81204046146013,None,192.79685941070784,None,192.79685941070784,None,192.79685941070784,None,192.79685941070784,None,192.79685941070784,None,192.79685941070784,None,192.79685941070784,None,193.79730738978833,None,1.7509229968418367,,,,,,,,,,,,,,,,,,,,,,,,,,,,,,24103,2019_Sep_04_1636,Mmi_3levels,3.1.5,60.067426157317406,
,,,1,1,3.3,,,,,,,,,0,0,0,0,0,6,6,2,,,,,,,,,,,,,,,,,,,,,,,,,,,,,,,,,,,,,,,,,,,,,,,,,,,,,,,,,,,,,True,False,True,0.68,-0.31999999999999995,-2.6399999999999997,-1.3399999999999999,3.3,1.96,0.98,gamble,lose,1.96,34.01,195.81475489464356,None,195.81475489464356,None,195.81475489464356,None,195.81475489464356,None,195.81475489464356,None,195.81475489464356,None,195.81475489464356,None,1,195.81475489464356,None,196.98184212832712,None,196.98184212832712,None,196.98184212832712,None,196.98184212832712,None,196.98184212832712,None,196.98184212832712,None,196.98184212832712,None,200.96676187287085,None,200.96676187287085,None,200.96676187287085,None,200.96676187287085,None,200.96676187287085,None,200.96676187287085,None,200.96676187287085,None,201.96715865429724,None,1.133993099851068,,,,,,,,,,,,,,,,,,,,,,,,,,,,,,24103,2019_Sep_04_1636,Mmi_3levels,3.1.5,60.067426157317406,
,,,1,1,2.3,,,,,,,,,0,0,0,0,0,7,7,9,,,,,,,,,,,,,,,,,,,,,,,,,,,,,,,,,,,,,,,,,,,,,,,,,,,,,,,,,,,,,True,True,False,0.68,-0.31999999999999995,-2.9599999999999995,7.4399999999999995,2.3,-5.14,-1.42,gamble,win,2.3,36.309999999999995,203.9846138388384,None,203.9846138388384,None,203.9846138388384,None,203.9846138388384,None,203.9846138388384,None,203.9846138388384,None,203.9846138388384,None,1,203.9846138388384,None,205.6019053189666,None,205.6019053189666,None,205.6019053189666,None,205.6019053189666,None,205.6019053189666,None,205.6019053189666,None,205.6019053189666,None,209.58671594859334,None,209.58671594859334,None,209.58671594859334,None,209.58671594859334,None,209.58671594859334,None,209.58671594859334,None,209.58671594859334,None,219.09048057271866,None,1.5842063059099019,210.58712616947014,None,211.58756294904742,None,0.59,7.502965941443108,214.5887353742728,None,None,214.5887353742728,None,,,,,,,,,,,,,,,,,,,24103,2019_Sep_04_1636,Mmi_3levels,3.1.5,60.067426157317406,
,,,1,1,9.9,,,,,,,,,0,0,0,0,0,8,8,6,,,,,,,,,,,,,,,,,,,,,,,,,,,,,,,,,,,,,,,,,,,,,,,,,,,,,,,,,,,,,True,False,True,0.59,-0.41000000000000003,-3.3699999999999997,-1.7158333333333333,9.9,8.184166666666666,4.092083333333333,gamble,lose,8.184166666666666,44.49416666666666,221.12921892286977,None,221.12921892286977,None,221.12921892286977,None,221.12921892286977,None,221.12921892286977,None,221.12921892286977,None,221.12921892286977,None,1,221.12921892286977,None,222.55850510660093,None,222.55850510660093,None,222.55850510660093,None,222.55850510660093,None,222.55850510660093,None,222.55850510660093,None,222.55850510660093,None,226.54337717336603,None,226.54337717336603,None,226.54337717336603,None,226.54337717336603,None,226.54337717336603,None,226.54337717336603,None,226.54337717336603,None,227.5437758747721,None,1.396195889741648,,,,,,,,,,,,,,,,,,,,,,,,,,,,,,24103,2019_Sep_04_1636,Mmi_3levels,3.1.5,60.067426157317406,
,,,1,1,0.3,,,,,,,,,0,0,0,0,0,9,9,15,,,,,,,,,,,,,,,,,,,,,,,,,,,,,,,,,,,,,,,,,,,,,,,,,,,,,,,,,,,,,True,True,True,0.59,-0.41000000000000003,-3.78,9.52,0.3,-9.219999999999999,-4.459999999999999,certain,certain,-4.459999999999999,40.03416666666666,229.56122849939857,None,229.56122849939857,None,229.56122849939857,None,229.56122849939857,None,229.56122849939857,None,229.56122849939857,None,229.56122849939857,None,3,229.56122849939857,None,231.77875657647382,None,231.77875657647382,None,231.77875657647382,None,231.77875657647382,None,231.77875657647382,None,231.77875657647382,None,231.77875657647382,None,235.76358928508125,None,235.76358928508125,None,235.76358928508125,None,235.76358928508125,None,235.76358928508125,None,235.76358928508125,None,235.76358928508125,None,245.26733407011488,None,2.184259871370159,236.76402798458003,None,237.76441196666565,None,0.5,7.5029483422404155,240.76551975490293,None,None,240.76551975490293,None,,,,,,,,,,,,,,,,,,,24103,2019_Sep_04_1636,Mmi_3levels,3.1.5,60.067426157317406,
,,,1,1,7.5,,,,,,,,,0,0,0,0,0,10,10,5,,,,,,,,,,,,,,,,,,,,,,,,,,,,,,,,,,,,,,,,,,,,,,,,,,,,,,,,,,,,,True,True,False,0.5,-0.5,-4.279999999999999,11.28,7.5,-3.7799999999999994,1.8600000000000003,gamble,win,7.5,47.53416666666666,247.28478989459109,None,247.28478989459109,None,247.28478989459109,None,247.28478989459109,None,247.28478989459109,None,247.28478989459109,None,247.28478989459109,None,1,247.28478989459109,None,249.11883604794275,None,249.11883604794275,None,249.11883604794275,None,249.11883604794275,None,249.11883604794275,None,249.11883604794275,None,249.11883604794275,None,253.10371067462256,None,253.10371067462256,None,253.10371067462256,None,253.10371067462256,None,253.10371067462256,None,253.10371067462256,None,253.10371067462256,None,254.1041061761207,None,1.8009571392904036,,,,,,,,,,,,,,,,,,,,,,,,,,,,,,24103,2019_Sep_04_1636,Mmi_3levels,3.1.5,60.067426157317406,
,,,1,1,-0.9,,,,,,,,,0,0,0,0,0,11,11,26,,,,,,,,,,,,,,,,,,,,,,,,,,,,,,,,,,,,,,,,,,,,,,,,,,,,,,,,,,,,,True,True,True,0.5,-0.5,-4.779999999999999,11.78,-0.9,-12.68,-6.79,certain,certain,-6.79,40.74416666666666,256.12149224383757,None,256.12149224383757,None,256.12149224383757,None,256.12149224383757,None,256.12149224383757,None,256.12149224383757,None,256.12149224383757,None,3,256.12149224383757,None,257.93892381346086,None,257.93892381346086,None,257.93892381346086,None,257.93892381346086,None,257.93892381346086,None,257.93892381346086,None,257.93892381346086,None,261.94048918032786,None,261.94048918032786,None,261.94048918032786,None,261.94048918032786,None,261.94048918032786,None,261.94048918032786,None,261.94048918032786,None,271.4275121865794,None,1.7843476752750576,262.92420386115555,None,263.9245814435417,None,0.51,7.502814908511937,266.9257596284733,None,None,266.9257596284733,None,,,,,,,,,,,,,,,,,,,24103,2019_Sep_04_1636,Mmi_3levels,3.1.5,60.067426157317406,
,,,1,1,0.5,,,,,,,,,0,0,0,0,0,12,12,25,,,,,,,,,,,,,,,,,,,,,,,,,,,,,,,,,,,,,,,,,,,,,,,,,,,,,,,,,,,,,True,True,False,0.51,-0.49,-5.27,12.129999999999999,0.5,-11.629999999999999,-5.5649999999999995,certain,certain,-5.5649999999999995,35.17916666666666,273.466252456652,None,273.466252456652,None,273.466252456652,None,273.466252456652,None,273.466252456652,None,273.466252456652,None,273.466252456652,None,3,273.466252456652,None,276.16268263943493,None,276.16268263943493,None,276.16268263943493,None,276.16268263943493,None,276.16268263943493,None,276.16268263943493,None,276.16268263943493,None,280.164224647393,None,280.164224647393,None,280.164224647393,None,280.164224647393,None,280.164224647393,None,280.164224647393,None,280.164224647393,None,281.14795628743013,None,2.663347888388671,,,,,,,,,,,,,,,,,,,,,,,,,,,,,,24103,2019_Sep_04_1636,Mmi_3levels,3.1.5,60.067426157317406,
,,,1,1,5.7,,,,,,,,,0,0,0,0,0,13,13,12,,,,,,,,,,,,,,,,,,,,,,,,,,,,,,,,,,,,,,,,,,,,,,,,,,,,,,,,,,,,,True,False,True,0.51,-0.49,-5.76,-2.195,5.7,3.5050000000000003,1.7525000000000002,gamble,lose,3.5050000000000003,38.68416666666666,283.1653599543497,None,283.1653599543497,None,283.1653599543497,None,283.1653599543497,None,283.1653599543497,None,283.1653599543497,None,283.1653599543497,None,1,283.1653599543497,None,284.36588274594396,None,284.36588274594396,None,284.36588274594396,None,284.36588274594396,None,284.36588274594396,None,284.36588274594396,None,284.36588274594396,None,288.35075225285254,None,288.35075225285254,None,288.35075225285254,None,288.35075225285254,None,288.35075225285254,None,288.35075225285254,None,288.35075225285254,None,289.3511464744224,None,1.1674161782721058,,,,,,,,,,,,,,,,,,,,,,,,,,,,,,24103,2019_Sep_04_1636,Mmi_3levels,3.1.5,60.067426157317406,
,,,1,1,0.7,,,,,,,,,0,0,0,0,0,14,14,24,,,,,,,,,,,,,,,,,,,,,,,,,,,,,,,,,,,,,,,,,,,,,,,,,,,,,,,,,,,,,True,True,True,0.51,-0.49,-6.25,13.11,0.7,-12.41,-5.855,certain,certain,-5.855,32.829166666666666,291.3685971791274,None,291.3685971791274,None,291.3685971791274,None,291.3685971791274,None,291.3685971791274,None,291.3685971791274,None,291.3685971791274,None,3,291.3685971791274,None,293.336031660554,None,293.336031660554,None,293.336031660554,None,293.336031660554,None,293.336031660554,None,293.336031660554,None,293.336031660554,None,297.3375883878325,None,297.3375883878325,None,297.3375883878325,None,297.3375883878325,None,297.3375883878325,None,297.3375883878325,None,297.3375883878325,None,306.8246033944888,None,1.9341669157147408,298.3213011487969,None,299.32169377047103,None,0.5,7.502858426480088,302.3228610759252,None,None,302.3228610759252,None,,,,,,,,,,,,,,,,,,,24103,2019_Sep_04_1636,Mmi_3levels,3.1.5,60.067426157317406,
,,,1,1,3.7,,,,,,,,,0,0,0,0,0,15,15,21,,,,,,,,,,,,,,,,,,,,,,,,,,,,,,,,,,,,,,,,,,,,,,,,,,,,,,,,,,,,,True,False,False,0.5,-0.5,-6.75,-2.3125,3.7,1.3875000000000002,0.6937500000000001,gamble,lose,1.3875000000000002,34.21666666666667,308.8420451396378,None,308.8420451396378,None,308.8420451396378,None,308.8420451396378,None,308.8420451396378,None,308.8420451396378,None,308.8420451396378,None,1,308.8420451396378,None,309.9591548682656,None,309.9591548682656,None,309.9591548682656,None,309.9591548682656,None,309.9591548682656,None,309.9591548682656,None,309.9591548682656,None,313.9440406943904,None,313.9440406943904,None,313.9440406943904,None,313.9440406943904,None,313.9440406943904,None,313.9440406943904,None,313.9440406943904,None,314.94443139614305,None,1.0840251943445764,,,,,,,,,,,,,,,,,,,,,,,,,,,,,,24103,2019_Sep_04_1636,Mmi_3levels,3.1.5,60.067426157317406,
,,,1,1,-0.1,,,,,,,,,0,0,0,0,0,16,16,14,,,,,,,,,,,,,,,,,,,,,,,,,,,,,,,,,,,,,,,,,,,,,,,,,,,,,,,,,,,,,True,True,True,0.5,-0.5,-7.25,14.25,-0.1,-14.35,-7.225,gamble,win,-0.1,34.11666666666667,316.96187826100504,None,316.96187826100504,None,316.96187826100504,None,316.96187826100504,None,316.96187826100504,None,316.96187826100504,None,316.96187826100504,None,1,316.96187826100504,None,318.84595311706653,None,318.84595311706653,None,318.84595311706653,None,318.84595311706653,None,318.84595311706653,None,318.84595311706653,None,318.84595311706653,None,322.8474628065014,None,322.8474628065014,None,322.8474628065014,None,322.8474628065014,None,322.8474628065014,None,322.8474628065014,None,322.8474628065014,None,332.3345325306291,None,1.8509874418377876,323.8312322048005,None,324.8316120270756,None,0.6,7.5028107487014495,327.832779972523,None,None,327.832779972523,None,,,,,,,,,,,,,,,,,,,24103,2019_Sep_04_1636,Mmi_3levels,3.1.5,60.067426157317406,
,,,1,1,7.9,,,,,,,,,0,0,0,0,0,17,17,7,,,,,,,,,,,,,,,,,,,,,,,,,,,,,,,,,,,,,,,,,,,,,,,,,,,,,,,,,,,,,True,True,True,0.6,-0.4,-7.65,13.25,7.9,-5.35,1.2750000000000004,certain,certain,1.2750000000000004,35.391666666666666,334.3519848352298,None,334.3519848352298,None,334.3519848352298,None,334.3519848352298,None,334.3519848352298,None,334.3519848352298,None,334.3519848352298,None,3,334.3519848352298,None,336.0026203575544,None,336.0026203575544,None,336.0026203575544,None,336.0026203575544,None,336.0026203575544,None,336.0026203575544,None,336.0026203575544,None,340.00417772476794,None,340.00417772476794,None,340.00417772476794,None,340.00417772476794,None,340.00417772476794,None,340.00417772476794,None,340.00417772476794,None,340.9878629670129,None,1.617552587937098,,,,,,,,,,,,,,,,,,,,,,,,,,,,,,24103,2019_Sep_04_1636,Mmi_3levels,3.1.5,60.067426157317406,
,,,1,1,11.7,,,,,,,,,0,0,0,0,0,18,18,23,,,,,,,,,,,,,,,,,,,,,,,,,,,,,,,,,,,,,,,,,,,,,,,,,,,,,,,,,,,,,True,True,True,0.6,-0.4,-8.05,13.650000000000002,11.7,-1.9500000000000028,-0.9750000000000014,gamble,win,11.7,47.09166666666667,343.00537478888873,None,343.00537478888873,None,343.00537478888873,None,343.00537478888873,None,343.00537478888873,None,343.00537478888873,None,343.00537478888873,None,1,343.00537478888873,None,344.42254217882873,None,344.42254217882873,None,344.42254217882873,None,344.42254217882873,None,344.42254217882873,None,344.42254217882873,None,344.42254217882873,None,348.4241318645072,None,348.4241318645072,None,348.4241318645072,None,348.4241318645072,None,348.4241318645072,None,348.4241318645072,None,348.4241318645072,None,349.4078372658114,None,1.384104294644203,,,,,,,,,,,,,,,,,,,,,,,,,,,,,,24103,2019_Sep_04_1636,Mmi_3levels,3.1.5,60.067426157317406,
,,,1,1,9.1,,,,,,,,,0,0,0,0,0,19,19,4,,,,,,,,,,,,,,,,,,,,,,,,,,,,,,,,,,,,,,,,,,,,,,,,,,,,,,,,,,,,,True,False,False,0.6,-0.4,-8.450000000000001,-2.104166666666667,9.1,6.995833333333333,3.4979166666666663,gamble,lose,6.995833333333333,54.0875,351.42529884999385,None,351.42529884999385,None,351.42529884999385,None,351.42529884999385,None,351.42529884999385,None,351.42529884999385,None,351.42529884999385,None,1,351.42529884999385,None,352.65907448803773,None,352.65907448803773,None,352.65907448803773,None,352.65907448803773,None,352.65907448803773,None,352.65907448803773,None,352.65907448803773,None,356.6439487946918,None,356.6439487946918,None,356.6439487946918,None,356.6439487946918,None,356.6439487946918,None,356.6439487946918,None,356.6439487946918,None,366.14766670099925,None,1.2007560606580228,357.64437757467385,None,358.64476603647927,None,0.67,7.502774590393528,361.6458799044485,None,None,361.6458799044485,None,,,,,,,,,,,,,,,,,,,24103,2019_Sep_04_1636,Mmi_3levels,3.1.5,60.067426157317406,
,,,1,1,11.3,,,,,,,,,0,0,0,0,0,20,20,10,,,,,,,,,,,,,,,,,,,,,,,,,,,,,,,,,,,,,,,,,,,,,,,,,,,,,,,,,,,,,True,True,False,0.67,-0.32999999999999996,-8.780000000000001,13.4,11.3,-2.0999999999999996,-1.0499999999999998,gamble,win,11.3,65.3875,368.1864213703666,None,368.1864213703666,None,368.1864213703666,None,368.1864213703666,None,368.1864213703666,None,368.1864213703666,None,368.1864213703666,None,1,368.1864213703666,None,369.5156607083045,None,369.5156607083045,None,369.5156607083045,None,369.5156607083045,None,369.5156607083045,None,369.5156607083045,None,369.5156607083045,None,373.51721647562226,None,373.51721647562226,None,373.51721647562226,None,373.51721647562226,None,373.51721647562226,None,373.51721647562226,None,373.51721647562226,None,374.50089979794575,None,1.296147763961926,,,,,,,,,,,,,,,,,,,,,,,,,,,,,,24103,2019_Sep_04_1636,Mmi_3levels,3.1.5,60.067426157317406,
,,,1,1,5.3,,,,,,,,,0,0,0,0,0,21,21,11,,,,,,,,,,,,,,,,,,,,,,,,,,,,,,,,,,,,,,,,,,,,,,,,,,,,,,,,,,,,,True,False,False,0.67,-0.32999999999999996,-9.110000000000001,-1.9141666666666666,5.3,3.3858333333333333,1.6929166666666666,gamble,lose,3.3858333333333333,68.77333333333334,376.5183505026507,None,376.5183505026507,None,376.5183505026507,None,376.5183505026507,None,376.5183505026507,None,376.5183505026507,None,376.5183505026507,None,1,376.5183505026507,None,377.518780562561,None,377.518780562561,None,377.518780562561,None,377.518780562561,None,377.518780562561,None,377.518780562561,None,377.518780562561,None,381.5036187109072,None,381.5036187109072,None,381.5036187109072,None,381.5036187109072,None,381.5036187109072,None,381.5036187109072,None,381.5036187109072,None,391.0073254177114,None,0.9673416857840493,382.504038531275,None,383.5044285930926,None,0.6,7.502851066819858,386.5055930186645,None,None,386.5055930186645,None,,,,,,,,,,,,,,,,,,,24103,2019_Sep_04_1636,Mmi_3levels,3.1.5,60.067426157317406,
,,,1,1,4.3,,,,,,,,,0,0,0,0,0,22,22,22,,,,,,,,,,,,,,,,,,,,,,,,,,,,,,,,,,,,,,,,,,,,,,,,,,,,,,,,,,,,,True,True,False,0.6,-0.4,-9.510000000000002,15.110000000000003,4.3,-10.810000000000002,-3.2550000000000012,certain,certain,-3.2550000000000012,65.51833333333335,393.0247633230174,None,393.0247633230174,None,393.0247633230174,None,393.0247633230174,None,393.0247633230174,None,393.0247633230174,None,393.0247633230174,None,3,393.0247633230174,None,395.09227088908665,None,395.09227088908665,None,395.09227088908665,None,395.09227088908665,None,395.09227088908665,None,395.09227088908665,None,395.09227088908665,None,399.0938352959929,None,399.0938352959929,None,399.0938352959929,None,399.0938352959929,None,399.0938352959929,None,399.0938352959929,None,399.0938352959929,None,400.07754261716036,None,2.034377913863864,,,,,,,,,,,,,,,,,,,,,,,,,,,,,,24103,2019_Sep_04_1636,Mmi_3levels,3.1.5,60.067426157317406,
,,,1,1,13.1,,,,,,,,,0,0,0,0,0,23,23,20,,,,,,,,,,,,,,,,,,,,,,,,,,,,,,,,,,,,,,,,,,,,,,,,,,,,,,,,,,,,,True,True,True,0.6,-0.4,-9.910000000000002,15.510000000000002,13.1,-2.410000000000002,-1.205000000000001,gamble,win,13.1,78.61833333333334,402.0949616433936,None,402.0949616433936,None,402.0949616433936,None,402.0949616433936,None,402.0949616433936,None,402.0949616433936,None,402.0949616433936,None,1,402.0949616433936,None,403.57887823478086,None,403.57887823478086,None,403.57887823478086,None,403.57887823478086,None,403.57887823478086,None,403.57887823478086,None,403.57887823478086,None,407.5804423217196,None,407.5804423217196,None,407.5804423217196,None,407.5804423217196,None,407.5804423217196,None,407.5804423217196,None,407.5804423217196,None,417.0674982864293,None,1.450826937390957,408.5641502828803,None,409.56457714294083,None,0.51,7.502844987029675,412.5657031703158,None,None,412.5657031703158,None,,,,,,,,,,,,,,,,,,,24103,2019_Sep_04_1636,Mmi_3levels,3.1.5,60.067426157317406,
,,,1,1,1.9,,,,,,,,,0,0,0,0,0,24,24,13,,,,,,,,,,,,,,,,,,,,,,,,,,,,,,,,,,,,,,,,,,,,,,,,,,,,,,,,,,,,,True,True,False,0.51,-0.49,-10.400000000000002,17.26,1.9,-15.360000000000001,-6.73,certain,certain,-6.73,71.88833333333334,419.1062622353784,None,419.1062622353784,None,419.1062622353784,None,419.1062622353784,None,419.1062622353784,None,419.1062622353784,None,419.1062622353784,None,3,419.1062622353784,None,421.05234443442896,None,421.05234443442896,None,421.05234443442896,None,421.05234443442896,None,421.05234443442896,None,421.05234443442896,None,421.05234443442896,None,425.0539312402834,None,425.0539312402834,None,425.0539312402834,None,425.0539312402834,None,425.0539312402834,None,425.0539312402834,None,425.0539312402834,None,426.0376660802285,None,1.912990305107087,,,,,,,,,,,,,,,,,,,,,,,,,,,,,,24103,2019_Sep_04_1636,Mmi_3levels,3.1.5,60.067426157317406,
,,,1,1,4.9,,,,,,,,,0,0,0,0,0,25,25,19,,,,,,,,,,,,,,,,,,,,,,,,,,,,,,,,,,,,,,,,,,,,,,,,,,,,,,,,,,,,,True,False,True,0.51,-0.49,-10.890000000000002,-2.6225,4.9,2.2775000000000003,1.1387500000000002,gamble,lose,2.2775000000000003,74.16583333333334,428.05510878528,None,428.05510878528,None,428.05510878528,None,428.05510878528,None,428.05510878528,None,428.05510878528,None,428.05510878528,None,1,428.05510878528,None,429.0888310497976,None,429.0888310497976,None,429.0888310497976,None,429.0888310497976,None,429.0888310497976,None,429.0888310497976,None,429.0888310497976,None,433.07366407837253,None,433.07366407837253,None,433.07366407837253,None,433.07366407837253,None,433.07366407837253,None,433.07366407837253,None,433.07366407837253,None,434.07407237932784,None,1.0006089315284044,,,,,,,,,,,,,,,,,,,,,,,,,,,,,,24103,2019_Sep_04_1636,Mmi_3levels,3.1.5,60.067426157317406,
,,,1,1,8.9,,,,,,,,,0,0,0,0,0,26,26,17,,,,,,,,,,,,,,,,,,,,,,,,,,,,,,,,,,,,,,,,,,,,,,,,,,,,,,,,,,,,,True,True,True,0.51,-0.49,-11.380000000000003,18.240000000000002,8.9,-9.340000000000002,-0.22000000000000064,gamble,win,8.9,83.06583333333334,436.09155924234074,None,436.09155924234074,None,436.09155924234074,None,436.09155924234074,None,436.09155924234074,None,436.09155924234074,None,436.09155924234074,None,1,436.09155924234074,None,437.00854808063013,None,437.00854808063013,None,437.00854808063013,None,437.00854808063013,None,437.00854808063013,None,437.00854808063013,None,437.00854808063013,None,440.99342942697695,None,440.99342942697695,None,440.99342942697695,None,440.99342942697695,None,440.99342942697695,None,440.99342942697695,None,440.99342942697695,None,450.4971642924356,None,0.8837577507947572,441.99382428848185,None,442.9942073106067,None,0.61,7.502840507251676,445.99537173623685,None,None,445.99537173623685,None,,,,,,,,,,,,,,,,,,,24103,2019_Sep_04_1636,Mmi_3levels,3.1.5,60.067426157317406,
,,,2,0,9.1,,,,,,,,,0,1,1,1,0,0,0,5,,,,,,,,,,,,,,,,,,,,,,,,,,,,,,,,,,,,,,,,,,,,,,,,,459.300584996643,None,0.64,5.005490943498444,462.3184283230221,None,4,1.9722707354812883,462.3184283230221,None,464.30709061271045,None,False,True,False,0.64,0.64,0.64,-9.600000000000001,2.275,-7.325000000000001,-2.5250000000000004,certain,certain,-2.5250000000000004,80.54083333333334,467.33701145480154,None,467.33701145480154,None,467.33701145480154,None,467.33701145480154,None,467.33701145480154,None,467.33701145480154,None,467.33701145480154,None,3,467.33701145480154,None,468.93765283282846,None,468.93765283282846,None,468.93765283282846,None,468.93765283282846,None,468.93765283282846,None,468.93765283282846,None,468.93765283282846,None,472.9225610579015,None,472.9225610579015,None,472.9225610579015,None,472.9225610579015,None,472.9225610579015,None,472.9225610579015,None,472.9225610579015,None,473.9228960822802,None,1.567565803299658,,,,,,,,,,,,452.4978973782272,None,4,6.786196868866682,452.4978973782272,None,,,,,,,,,,,,,24103,2019_Sep_04_1636,Mmi_3levels,3.1.5,60.067426157317406,
,,,2,0,2.1,,,,,,,,,0,1,1,1,0,1,1,16,,,,,,,,,,,,,,,,,,,,,,,,,,,,,,,,,,,,,,,,,,,,,,,,,,,,,,,,,,,,,False,False,False,0.64,0.64,1.28,2.3466666666666667,0.525,-1.8216666666666668,-0.6483333333333334,gamble,win,0.525,81.06583333333334,475.9403874250711,None,475.9403874250711,None,475.9403874250711,None,475.9403874250711,None,475.9403874250711,None,475.9403874250711,None,475.9403874250711,None,1,475.9403874250711,None,477.09079895785544,None,477.09079895785544,None,477.09079895785544,None,477.09079895785544,None,477.09079895785544,None,477.09079895785544,None,477.09079895785544,None,481.0923902434879,None,481.0923902434879,None,481.0923902434879,None,481.0923902434879,None,481.0923902434879,None,481.0923902434879,None,481.0923902434879,None,490.57938413112424,None,1.1173525972408243,482.0761068442371,None,483.07649850595044,None,0.5,7.502836347441189,486.0776258133119,None,None,486.0776258133119,None,,,,,,,,,,,,,,,,,,,24103,2019_Sep_04_1636,Mmi_3levels,3.1.5,60.067426157317406,
,,,2,0,11.1,,,,,,,,,0,1,1,1,0,2,2,17,,,,,,,,,,,,,,,,,,,,,,,,,,,,,,,,,,,,,,,,,,,,,,,,,,,,,,,,,,,,,False,True,False,0.5,0.5,1.78,-8.78,2.775,-6.004999999999999,-1.6149999999999995,certain,certain,-1.6149999999999995,79.45083333333335,492.5968322759727,None,492.5968322759727,None,492.5968322759727,None,492.5968322759727,None,492.5968322759727,None,492.5968322759727,None,492.5968322759727,None,3,492.5968322759727,None,494.4142107280786,None,494.4142107280786,None,494.4142107280786,None,494.4142107280786,None,494.4142107280786,None,494.4142107280786,None,494.4142107280786,None,498.4158045735676,None,498.4158045735676,None,498.4158045735676,None,498.4158045735676,None,498.4158045735676,None,498.4158045735676,None,498.4158045735676,None,499.39951157476753,None,1.7843380757258274,,,,,,,,,,,,,,,,,,,,,,,,,,,,,,24103,2019_Sep_04_1636,Mmi_3levels,3.1.5,60.067426157317406,
,,,2,0,12.7,,,,,,,,,0,1,1,1,0,3,3,2,,,,,,,,,,,,,,,,,,,,,,,,,,,,,,,,,,,,,,,,,,,,,,,,,,,,,,,,,,,,,False,True,True,0.5,0.5,2.2800000000000002,-9.280000000000001,3.175,-6.105000000000001,-1.4650000000000007,certain,certain,-1.4650000000000007,77.98583333333335,501.4169264411903,None,501.4169264411903,None,501.4169264411903,None,501.4169264411903,None,501.4169264411903,None,501.4169264411903,None,501.4169264411903,None,3,501.4169264411903,None,502.88416349183535,None,502.88416349183535,None,502.88416349183535,None,502.88416349183535,None,502.88416349183535,None,502.88416349183535,None,502.88416349183535,None,506.86904931801837,None,506.86904931801837,None,506.86904931801837,None,506.86904931801837,None,506.86904931801837,None,506.86904931801837,None,506.86904931801837,None,516.3727822636138,None,1.434149316570256,507.8694342600065,None,508.8698259217199,None,0.5,7.502855866565369,511.8709900273243,None,None,511.8709900273243,None,,,,,,,,,,,,,,,,,,,24103,2019_Sep_04_1636,Mmi_3levels,3.1.5,60.067426157317406,
,,,2,0,9.9,,,,,,,,,0,1,1,1,0,4,4,3,,,,,,,,,,,,,,,,,,,,,,,,,,,,,,,,,,,,,,,,,,,,,,,,,,,,,,,,,,,,,False,False,False,0.5,0.5,2.7800000000000002,1.9816666666666667,2.475,0.4933333333333334,1.4841666666666669,gamble,win,2.475,80.46083333333334,518.4114348577568,None,518.4114348577568,None,518.4114348577568,None,518.4114348577568,None,518.4114348577568,None,518.4114348577568,None,518.4114348577568,None,1,518.4114348577568,None,519.3405604090076,None,519.3405604090076,None,519.3405604090076,None,519.3405604090076,None,519.3405604090076,None,519.3405604090076,None,519.3405604090076,None,523.3254820734728,None,523.3254820734728,None,523.3254820734728,None,523.3254820734728,None,523.3254820734728,None,523.3254820734728,None,523.3254820734728,None,524.325836936885,None,0.8960435768240131,,,,,,,,,,,,,,,,,,,,,,,,,,,,,,24103,2019_Sep_04_1636,Mmi_3levels,3.1.5,60.067426157317406,
,,,2,0,8.3,,,,,,,,,0,1,1,1,0,5,5,8,,,,,,,,,,,,,,,,,,,,,,,,,,,,,,,,,,,,,,,,,,,,,,,,,,,,,,,,,,,,,False,False,False,0.5,0.5,3.2800000000000002,2.0233333333333334,2.075,0.05166666666666675,1.0633333333333335,gamble,win,2.075,82.53583333333334,526.3433257198194,None,526.3433257198194,None,526.3433257198194,None,526.3433257198194,None,526.3433257198194,None,526.3433257198194,None,526.3433257198194,None,1,526.3433257198194,None,527.3936926466413,None,527.3936926466413,None,527.3936926466413,None,527.3936926466413,None,527.3936926466413,None,527.3936926466413,None,527.3936926466413,None,531.3785775128636,None,531.3785775128636,None,531.3785775128636,None,531.3785775128636,None,531.3785775128636,None,531.3785775128636,None,531.3785775128636,None,532.3789723743685,None,1.0172814326360822,,,,,,,,,,,,,,,,,,,,,,,,,,,,,,24103,2019_Sep_04_1636,Mmi_3levels,3.1.5,60.067426157317406,
,,,2,0,-1.5,,,,,,,,,0,1,1,1,0,6,6,25,,,,,,,,,,,,,,,,,,,,,,,,,,,,,,,,,,,,,,,,,,,,,,,,,,,,,,,,,,,,,False,True,False,0.5,0.5,3.7800000000000002,-10.780000000000001,-0.375,-11.155000000000001,-5.765000000000001,certain,certain,-5.765000000000001,76.77083333333334,534.3964217991452,None,534.3964217991452,None,534.3964217991452,None,534.3964217991452,None,534.3964217991452,None,534.3964217991452,None,534.3964217991452,None,3,534.3964217991452,None,536.4472184659098,None,536.4472184659098,None,536.4472184659098,None,536.4472184659098,None,536.4472184659098,None,536.4472184659098,None,536.4472184659098,None,540.4488075117115,None,540.4488075117115,None,540.4488075117115,None,540.4488075117115,None,540.4488075117115,None,540.4488075117115,None,540.4488075117115,None,549.9358013993478,None,2.0177137323771603,541.4324860342313,None,542.4329128942918,None,0.5,7.502729792497121,545.434041801549,None,None,545.434041801549,None,,,,,,,,,,,,,,,,,,,24103,2019_Sep_04_1636,Mmi_3levels,3.1.5,60.067426157317406,
,,,2,0,3.1,,,,,,,,,0,1,1,1,0,7,7,21,,,,,,,,,,,,,,,,,,,,,,,,,,,,,,,,,,,,,,,,,,,,,,,,,,,,,,,,,,,,,False,False,False,0.5,0.5,4.28,2.1066666666666665,0.775,-1.3316666666666666,-0.27833333333333327,gamble,win,0.775,77.54583333333335,551.9532409045496,None,551.9532409045496,None,551.9532409045496,None,551.9532409045496,None,551.9532409045496,None,551.9532409045496,None,551.9532409045496,None,1,551.9532409045496,None,552.9536373660667,None,552.9536373660667,None,552.9536373660667,None,552.9536373660667,None,552.9536373660667,None,552.9536373660667,None,552.9536373660667,None,556.9551931333262,None,556.9551931333262,None,556.9551931333262,None,556.9551931333262,None,556.9551931333262,None,556.9551931333262,None,556.9551931333262,None,557.9389455724158,None,0.9673426457447931,,,,,,,,,,,,,,,,,,,,,,,,,,,,,,24103,2019_Sep_04_1636,Mmi_3levels,3.1.5,60.067426157317406,
,,,2,0,-1.1,,,,,,,,,0,1,1,1,0,8,8,9,,,,,,,,,,,,,,,,,,,,,,,,,,,,,,,,,,,,,,,,,,,,,,,,,,,,,,,,,,,,,False,False,False,0.5,0.5,4.78,2.1483333333333334,-0.275,-2.4233333333333333,-1.3491666666666666,gamble,win,-0.275,77.27083333333334,559.9563604388386,None,559.9563604388386,None,559.9563604388386,None,559.9563604388386,None,559.9563604388386,None,559.9563604388386,None,559.9563604388386,None,1,559.9563604388386,None,561.9404642214649,None,561.9404642214649,None,561.9404642214649,None,561.9404642214649,None,561.9404642214649,None,561.9404642214649,None,561.9404642214649,None,565.9420206287759,None,565.9420206287759,None,565.9420206287759,None,565.9420206287759,None,565.9420206287759,None,565.9420206287759,None,565.9420206287759,None,575.4290701938444,None,1.951012528676074,566.9257305098581,None,567.9261586498469,None,0.6,7.502833467617165,570.9272837172612,None,None,570.9272837172612,None,,,,,,,,,,,,,,,,,,,24103,2019_Sep_04_1636,Mmi_3levels,3.1.5,60.067426157317406,
,,,2,0,3.5,,,,,,,,,0,1,1,1,0,9,9,12,,,,,,,,,,,,,,,,,,,,,,,,,,,,,,,,,,,,,,,,,,,,,,,,,,,,,,,,,,,,,False,True,False,0.6,0.6,5.38,-13.780000000000001,0.875,-12.905000000000001,-6.015000000000001,certain,certain,-6.015000000000001,71.25583333333334,577.467693669314,None,577.467693669314,None,577.467693669314,None,577.467693669314,None,577.467693669314,None,577.467693669314,None,577.467693669314,None,3,577.467693669314,None,579.9307875536033,None,579.9307875536033,None,579.9307875536033,None,579.9307875536033,None,579.9307875536033,None,579.9307875536033,None,579.9307875536033,None,583.9323359612608,None,583.9323359612608,None,583.9323359612608,None,583.9323359612608,None,583.9323359612608,None,583.9323359612608,None,583.9323359612608,None,584.9161063194624,None,2.43004870810546,,,,,,,,,,,,,,,,,,,,,,,,,,,,,,24103,2019_Sep_04_1636,Mmi_3levels,3.1.5,60.067426157317406,
,,,2,0,8.7,,,,,,,,,0,1,1,1,0,10,10,20,,,,,,,,,,,,,,,,,,,,,,,,,,,,,,,,,,,,,,,,,,,,,,,,,,,,,,,,,,,,,False,False,False,0.6,0.6,5.9799999999999995,2.5983333333333336,2.175,-0.4233333333333338,0.875833333333333,certain,certain,0.875833333333333,72.13166666666667,586.933516066114,None,586.933516066114,None,586.933516066114,None,586.933516066114,None,586.933516066114,None,586.933516066114,None,586.933516066114,None,3,586.933516066114,None,588.3674026749213,None,588.3674026749213,None,588.3674026749213,None,588.3674026749213,None,588.3674026749213,None,588.3674026749213,None,588.3674026749213,None,592.3523233794258,None,592.3523233794258,None,592.3523233794258,None,592.3523233794258,None,592.3523233794258,None,592.3523233794258,None,592.3523233794258,None,593.352671523171,None,1.4008411127142608,,,,,,,,,,,,,,,,,,,,,,,,,,,,,,24103,2019_Sep_04_1636,Mmi_3levels,3.1.5,60.067426157317406,
,,,2,0,0.5,,,,,,,,,0,1,1,1,0,11,11,1,,,,,,,,,,,,,,,,,,,,,,,,,,,,,,,,,,,,,,,,,,,,,,,,,,,,,,,,,,,,,False,False,True,0.6,0.6,6.579999999999999,2.6483333333333334,0.125,-2.5233333333333334,-1.1991666666666667,gamble,win,0.125,72.25666666666667,595.3701599860797,None,595.3701599860797,None,595.3701599860797,None,595.3701599860797,None,595.3701599860797,None,595.3701599860797,None,595.3701599860797,None,1,595.3701599860797,None,596.5372507396387,None,596.5372507396387,None,596.5372507396387,None,596.5372507396387,None,596.5372507396387,None,596.5372507396387,None,596.5372507396387,None,600.5221298460965,None,600.5221298460965,None,600.5221298460965,None,600.5221298460965,None,600.5221298460965,None,600.5221298460965,None,600.5221298460965,None,610.0258215136128,None,1.1340378977474757,601.5225384669611,None,602.522943248041,None,0.5,7.502836667466909,605.5240727952914,None,None,605.5240727952914,None,,,,,,,,,,,,,,,,,,,24103,2019_Sep_04_1636,Mmi_3levels,3.1.5,60.067426157317406,
,,,2,0,-0.9,,,,,,,,,0,1,1,1,0,12,12,6,,,,,,,,,,,,,,,,,,,,,,,,,,,,,,,,,,,,,,,,,,,,,,,,,,,,,,,,,,,,,False,True,True,0.5,0.5,7.079999999999999,-14.079999999999998,-0.225,-14.304999999999998,-7.264999999999999,certain,certain,-7.264999999999999,64.99166666666667,612.0433170162141,None,612.0433170162141,None,612.0433170162141,None,612.0433170162141,None,612.0433170162141,None,612.0433170162141,None,612.0433170162141,None,3,612.0433170162141,None,613.7272569025517,None,613.7272569025517,None,613.7272569025517,None,613.7272569025517,None,613.7272569025517,None,613.7272569025517,None,613.7272569025517,None,617.7288613075507,None,617.7288613075507,None,617.7288613075507,None,617.7288613075507,None,617.7288613075507,None,617.7288613075507,None,617.7288613075507,None,618.7125395101029,None,1.6508537521585822,,,,,,,,,,,,,,,,,,,,,,,,,,,,,,24103,2019_Sep_04_1636,Mmi_3levels,3.1.5,60.067426157317406,
,,,2,0,12.9,,,,,,,,,0,1,1,1,0,13,13,13,,,,,,,,,,,,,,,,,,,,,,,,,,,,,,,,,,,,,,,,,,,,,,,,,,,,,,,,,,,,,False,True,False,0.5,0.5,7.579999999999999,-14.579999999999998,3.225,-11.354999999999999,-4.0649999999999995,gamble,lose,-11.354999999999999,53.63666666666668,620.7299946946441,None,620.7299946946441,None,620.7299946946441,None,620.7299946946441,None,620.7299946946441,None,620.7299946946441,None,620.7299946946441,None,1,620.7299946946441,None,622.0304971351288,None,622.0304971351288,None,622.0304971351288,None,622.0304971351288,None,622.0304971351288,None,622.0304971351288,None,622.0304971351288,None,626.0320497025969,None,626.0320497025969,None,626.0320497025969,None,626.0320497025969,None,626.0320497025969,None,626.0320497025969,None,626.0320497025969,None,635.519108547247,None,1.26740990660619,627.0158184609609,None,628.0161602049484,None,0.42,7.502957941789646,631.0173745482462,None,None,631.0173745482462,None,,,,,,,,,,,,,,,,,,,24103,2019_Sep_04_1636,Mmi_3levels,3.1.5,60.067426157317406,
,,,2,0,4.1,,,,,,,,,0,1,1,1,0,14,14,11,,,,,,,,,,,,,,,,,,,,,,,,,,,,,,,,,,,,,,,,,,,,,,,,,,,,,,,,,,,,,False,True,False,0.42,0.42,7.999999999999999,-13.879999999999999,1.025,-12.854999999999999,-5.914999999999999,certain,certain,-5.914999999999999,47.72166666666668,637.5578884954448,None,637.5578884954448,None,637.5578884954448,None,637.5578884954448,None,637.5578884954448,None,637.5578884954448,None,637.5578884954448,None,3,637.5578884954448,None,638.9370688601048,None,638.9370688601048,None,638.9370688601048,None,638.9370688601048,None,638.9370688601048,None,638.9370688601048,None,638.9370688601048,None,642.9386585458415,None,642.9386585458415,None,642.9386585458415,None,642.9386585458415,None,642.9386585458415,None,642.9386585458415,None,642.9386585458415,None,643.9223783464404,None,1.345861281384714,,,,,,,,,,,,,,,,,,,,,,,,,,,,,,24103,2019_Sep_04_1636,Mmi_3levels,3.1.5,60.067426157317406,
,,,2,0,-0.5,,,,,,,,,0,1,1,1,0,15,15,26,,,,,,,,,,,,,,,,,,,,,,,,,,,,,,,,,,,,,,,,,,,,,,,,,,,,,,,,,,,,,False,True,False,0.42,0.42,8.42,-14.3,-0.125,-14.425,-7.275,certain,certain,-7.275,40.44666666666668,645.9397951327264,None,645.9397951327264,None,645.9397951327264,None,645.9397951327264,None,645.9397951327264,None,645.9397951327264,None,645.9397951327264,None,3,645.9397951327264,None,647.2736195364851,None,647.2736195364851,None,647.2736195364851,None,647.2736195364851,None,647.2736195364851,None,647.2736195364851,None,647.2736195364851,None,651.2752069823327,None,651.2752069823327,None,651.2752069823327,None,651.2752069823327,None,651.2752069823327,None,651.2752069823327,None,651.2752069823327,None,660.7622296686168,None,1.3008150659152307,652.2589194232714,None,653.2592925258214,None,0.42,7.502742271870375,656.2605087889824,None,None,656.2605087889824,None,,,,,,,,,,,,,,,,,,,24103,2019_Sep_04_1636,Mmi_3levels,3.1.5,60.067426157317406,
,,,2,0,4.7,,,,,,,,,0,1,1,1,0,16,16,0,,,,,,,,,,,,,,,,,,,,,,,,,,,,,,,,,,,,,,,,,,,,,,,,,,,,,,,,,,,,,False,True,False,0.42,0.42,8.84,-14.719999999999999,1.175,-13.544999999999998,-6.184999999999999,gamble,lose,-13.544999999999998,26.90166666666668,662.7796714137075,None,662.7796714137075,None,662.7796714137075,None,662.7796714137075,None,662.7796714137075,None,662.7796714137075,None,662.7796714137075,None,1,662.7796714137075,None,663.8801336001488,None,663.8801336001488,None,663.8801336001488,None,663.8801336001488,None,663.8801336001488,None,663.8801336001488,None,663.8801336001488,None,667.8650245460449,None,667.8650245460449,None,667.8650245460449,None,667.8650245460449,None,667.8650245460449,None,667.8650245460449,None,667.8650245460449,None,668.865408848098,None,1.0673450136673637,,,,,,,,,,,,,,,,,,,,,,,,,,,,,,24103,2019_Sep_04_1636,Mmi_3levels,3.1.5,60.067426157317406,
,,,2,0,10.5,,,,,,,,,0,1,1,1,0,17,17,10,,,,,,,,,,,,,,,,,,,,,,,,,,,,,,,,,,,,,,,,,,,,,,,,,,,,,,,,,,,,,False,True,True,0.42,0.42,9.26,-15.14,2.625,-12.515,-4.945,gamble,lose,-12.515,14.386666666666681,670.8828249943908,None,670.8828249943908,None,670.8828249943908,None,670.8828249943908,None,670.8828249943908,None,670.8828249943908,None,670.8828249943908,None,1,670.8828249943908,None,672.0165960246231,None,672.0165960246231,None,672.0165960246231,None,672.0165960246231,None,672.0165960246231,None,672.0165960246231,None,672.0165960246231,None,676.0182119490928,None,676.0182119490928,None,676.0182119490928,None,676.0182119490928,None,676.0182119490928,None,676.0182119490928,None,676.0182119490928,None,677.0018834319781,None,1.10067945625633,,,,,,,,,,,,,,,,,,,,,,,,,,,,,,24103,2019_Sep_04_1636,Mmi_3levels,3.1.5,60.067426157317406,
,,,2,0,5.7,,,,,,,,,0,1,1,1,0,18,18,15,,,,,,,,,,,,,,,,,,,,,,,,,,,,,,,,,,,,,,,,,,,,,,,,,,,,,,,,,,,,,False,True,True,0.42,0.42,9.68,-15.559999999999999,1.425,-14.134999999999998,-6.354999999999999,gamble,lose,-14.134999999999998,0.2516666666666829,679.0192883788259,None,679.0192883788259,None,679.0192883788259,None,679.0192883788259,None,679.0192883788259,None,679.0192883788259,None,679.0192883788259,None,1,679.0192883788259,None,680.553223753348,None,680.553223753348,None,680.553223753348,None,680.553223753348,None,680.553223753348,None,680.553223753348,None,680.553223753348,None,684.5548073593527,None,684.5548073593527,None,684.5548073593527,None,684.5548073593527,None,684.5548073593527,None,684.5548073593527,None,684.5548073593527,None,694.0417820478906,None,1.5009077975992113,685.5385642782785,None,686.5389428205672,None,0.33,7.502822908107191,689.5401184456423,None,None,689.5401184456423,None,,,,,,,,,,,,,,,,,,,24103,2019_Sep_04_1636,Mmi_3levels,3.1.5,60.067426157317406,
,,,2,0,7.1,,,,,,,,,0,1,1,1,0,19,19,18,,,,,,,,,,,,,,,,,,,,,,,,,,,,,,,,,,,,,,,,,,,,,,,,,,,,,,,,,,,,,False,True,False,0.33,0.33,10.01,-14.629999999999999,1.775,-12.854999999999999,-5.539999999999999,certain,certain,-5.539999999999999,-5.288333333333316,696.0805719156633,None,696.0805719156633,None,696.0805719156633,None,696.0805719156633,None,696.0805719156633,None,696.0805719156633,None,696.0805719156633,None,3,696.0805719156633,None,697.6765763903386,None,697.6765763903386,None,697.6765763903386,None,697.6765763903386,None,697.6765763903386,None,697.6765763903386,None,697.6765763903386,None,701.6781644761213,None,701.6781644761213,None,701.6781644761213,None,701.6781644761213,None,701.6781644761213,None,701.6781644761213,None,701.6781644761213,None,702.661882356857,None,1.56290522107156,,,,,,,,,,,,,,,,,,,,,,,,,,,,,,24103,2019_Sep_04_1636,Mmi_3levels,3.1.5,60.067426157317406,
,,,2,0,6.1,,,,,,,,,0,1,1,1,0,20,20,4,,,,,,,,,,,,,,,,,,,,,,,,,,,,,,,,,,,,,,,,,,,,,,,,,,,,,,,,,,,,,False,False,False,0.33,0.33,10.34,2.0166666666666666,1.525,-0.4916666666666667,0.5166666666666666,gamble,win,1.525,-3.7633333333333163,704.6793340214645,None,704.6793340214645,None,704.6793340214645,None,704.6793340214645,None,704.6793340214645,None,704.6793340214645,None,704.6793340214645,None,1,704.6793340214645,None,705.8297500340268,None,705.8297500340268,None,705.8297500340268,None,705.8297500340268,None,705.8297500340268,None,705.8297500340268,None,705.8297500340268,None,709.8146240207134,None,709.8146240207134,None,709.8146240207134,None,709.8146240207134,None,709.8146240207134,None,709.8146240207134,None,709.8146240207134,None,719.3183268877328,None,1.1173225187230855,710.8150544006494,None,711.8154383826768,None,0.41,7.503056497196667,714.8165298516979,None,None,714.8165298516979,None,,,,,,,,,,,,,,,,,,,24103,2019_Sep_04_1636,Mmi_3levels,3.1.5,60.067426157317406,
,,,2,0,0.1,,,,,,,,,0,1,1,1,0,21,21,19,,,,,,,,,,,,,,,,,,,,,,,,,,,,,,,,,,,,,,,,,,,,,,,,,,,,,,,,,,,,,False,True,True,0.41,0.41,10.75,-16.49,0.025,-16.465,-8.22,certain,certain,-8.22,-11.983333333333317,721.3357772724703,None,721.3357772724703,None,721.3357772724703,None,721.3357772724703,None,721.3357772724703,None,721.3357772724703,None,721.3357772724703,None,3,721.3357772724703,None,722.8029836046044,None,722.8029836046044,None,722.8029836046044,None,722.8029836046044,None,722.8029836046044,None,722.8029836046044,None,722.8029836046044,None,726.8045188928372,None,726.8045188928372,None,726.8045188928372,None,726.8045188928372,None,726.8045188928372,None,726.8045188928372,None,726.8045188928372,None,727.7882879711688,None,1.4341461166623048,,,,,,,,,,,,,,,,,,,,,,,,,,,,,,24103,2019_Sep_04_1636,Mmi_3levels,3.1.5,60.067426157317406,
,,,2,0,7.5,,,,,,,,,0,1,1,1,0,22,22,22,,,,,,,,,,,,,,,,,,,,,,,,,,,,,,,,,,,,,,,,,,,,,,,,,,,,,,,,,,,,,False,False,True,0.41,0.41,11.16,2.3649999999999998,1.875,-0.48999999999999977,0.6925000000000001,gamble,win,1.875,-10.108333333333317,729.8057351560565,None,729.8057351560565,None,729.8057351560565,None,729.8057351560565,None,729.8057351560565,None,729.8057351560565,None,729.8057351560565,None,1,729.8057351560565,None,730.8894934828277,None,730.8894934828277,None,730.8894934828277,None,730.8894934828277,None,730.8894934828277,None,730.8894934828277,None,730.8894934828277,None,734.874370669364,None,734.874370669364,None,734.874370669364,None,734.874370669364,None,734.874370669364,None,734.874370669364,None,734.874370669364,None,744.3781007351354,None,1.050666112860199,735.8747629710706,None,736.8751018352341,None,0.42,7.502858106454369,739.8763532967423,None,None,739.8763532967423,None,,,,,,,,,,,,,,,,,,,24103,2019_Sep_04_1636,Mmi_3levels,3.1.5,60.067426157317406,
,,,2,0,11.9,,,,,,,,,0,1,1,1,0,23,23,23,,,,,,,,,,,,,,,,,,,,,,,,,,,,,,,,,,,,,,,,,,,,,,,,,,,,,,,,,,,,,False,True,True,0.42,0.42,11.58,-17.46,2.975,-14.485000000000001,-5.755000000000001,certain,certain,-5.755000000000001,-15.863333333333317,746.3955687190173,None,746.3955687190173,None,746.3955687190173,None,746.3955687190173,None,746.3955687190173,None,746.3955687190173,None,746.3955687190173,None,3,746.3955687190173,None,748.3629206443438,None,748.3629206443438,None,748.3629206443438,None,748.3629206443438,None,748.3629206443438,None,748.3629206443438,None,748.3629206443438,None,752.36450617027,None,752.36450617027,None,752.36450617027,None,752.36450617027,None,752.36450617027,None,752.36450617027,None,752.36450617027,None,753.3482224510517,None,1.934333947894629,,,,,,,,,,,,,,,,,,,,,,,,,,,,,,24103,2019_Sep_04_1636,Mmi_3levels,3.1.5,60.067426157317406,
,,,2,0,4.9,,,,,,,,,0,1,1,1,0,24,24,24,,,,,,,,,,,,,,,,,,,,,,,,,,,,,,,,,,,,,,,,,,,,,,,,,,,,,,,,,,,,,False,True,False,0.42,0.42,12.0,-17.88,1.225,-16.654999999999998,-7.714999999999999,certain,certain,-7.714999999999999,-23.578333333333315,755.3657070741174,None,755.3657070741174,None,755.3657070741174,None,755.3657070741174,None,755.3657070741174,None,755.3657070741174,None,755.3657070741174,None,3,755.3657070741174,None,756.8662545685656,None,756.8662545685656,None,756.8662545685656,None,756.8662545685656,None,756.8662545685656,None,756.8662545685656,None,756.8662545685656,None,760.8678503340343,None,760.8678503340343,None,760.8678503340343,None,760.8678503340343,None,760.8678503340343,None,760.8678503340343,None,760.8678503340343,None,761.8515624550055,None,1.4674610402435064,,,,,,,,,,,,,,,,,,,,,,,,,,,,,,24103,2019_Sep_04_1636,Mmi_3levels,3.1.5,60.067426157317406,
,,,2,0,4.3,,,,,,,,,0,1,1,1,0,25,25,14,,,,,,,,,,,,,,,,,,,,,,,,,,,,,,,,,,,,,,,,,,,,,,,,,,,,,,,,,,,,,False,True,True,0.42,0.42,12.42,-18.3,1.075,-17.225,-8.075000000000001,certain,certain,-8.075000000000001,-31.653333333333315,763.8689770013443,None,763.8689770013443,None,763.8689770013443,None,763.8689770013443,None,763.8689770013443,None,763.8689770013443,None,763.8689770013443,None,3,763.8689770013443,None,765.5362923843786,None,765.5362923843786,None,765.5362923843786,None,765.5362923843786,None,765.5362923843786,None,765.5362923843786,None,765.5362923843786,None,769.537885269965,None,769.537885269965,None,769.537885269965,None,769.537885269965,None,769.537885269965,None,769.537885269965,None,769.537885269965,None,779.0248705180129,None,1.6342657271306962,770.5215618726215,None,771.5219935324276,None,0.4,7.502853306708857,774.5231502783718,None,None,774.5231502783718,None,,,,,,,,,,,,,,,,,,,24103,2019_Sep_04_1636,Mmi_3levels,3.1.5,60.067426157317406,
,,,2,0,7.9,,,,,,,,,0,1,1,1,0,26,26,7,,,,,,,,,,,,,,,,,,,,,,,,,,,,,,,,,,,,,,,,,,,,,,,,,,,,,,,,,,,,,False,True,False,0.4,0.4,12.82,-18.42,1.975,-16.445,-7.235,certain,certain,-7.235,-38.888333333333314,781.0422773847822,None,781.0422773847822,None,781.0422773847822,None,781.0422773847822,None,781.0422773847822,None,781.0422773847822,None,781.0422773847822,None,3,781.0422773847822,None,782.4095773445442,None,782.4095773445442,None,782.4095773445442,None,782.4095773445442,None,782.4095773445442,None,782.4095773445442,None,782.4095773445442,None,786.4156471409369,None,786.4156471409369,None,786.4156471409369,None,786.4156471409369,None,786.4156471409369,None,786.4156471409369,None,786.4156471409369,None,787.394797875022,None,1.3341507884906605,,,,,,,,,,,,,,,,,,,,,,,,,,,,,,24103,2019_Sep_04_1636,Mmi_3levels,3.1.5,60.067426157317406,
,,,3,1,-0.7,,,,,,,,,0,2,2,2,0,0,0,4,,,,,,,,,,,,,,,,,,,,,,,,,,,,,,,,,,,,,,,,,,,,,,,,,795.9648256433429,None,0.4,4.5342489598551765,798.9659555105609,None,4,1.51747214369243,798.9659555105609,None,800.499920963659,None,True,True,True,0.4,-0.6,-0.6,9.0,-0.7,-9.7,-5.199999999999999,certain,certain,-5.199999999999999,-44.08833333333331,803.5344009527471,None,803.5344009527471,None,803.5344009527471,None,803.5344009527471,None,803.5344009527471,None,803.5344009527471,None,803.5344009527471,None,3,803.5344009527471,None,805.7352216503932,None,805.7352216503932,None,805.7352216503932,None,805.7352216503932,None,805.7352216503932,None,805.7352216503932,None,805.7352216503932,None,809.7367892572074,None,809.7367892572074,None,809.7367892572074,None,809.7367892572074,None,809.7367892572074,None,809.7367892572074,None,809.7367892572074,None,819.2238420220674,None,2.1678027202142403,810.7205298568006,None,811.7209483972401,None,0.4,7.502840827277396,814.7220689849346,None,None,814.7220689849346,None,789.395601997443,None,4,6.552729376475327,789.395601997443,None,,,,,,,,,,,,,24103,2019_Sep_04_1636,Mmi_3levels,3.1.5,60.067426157317406,
,,,3,1,12.3,,,,,,,,,0,2,2,2,0,1,1,1,,,,,,,,,,,,,,,,,,,,,,,,,,,,,,,,,,,,,,,,,,,,,,,,,,,,,,,,,,,,,True,False,False,0.4,-0.6,-1.2,-2.2,12.3,10.100000000000001,5.050000000000001,gamble,lose,10.100000000000001,-33.98833333333331,821.2413013663609,None,821.2413013663609,None,821.2413013663609,None,821.2413013663609,None,821.2413013663609,None,821.2413013663609,None,821.2413013663609,None,1,821.2413013663609,None,822.1583004441927,None,822.1583004441927,None,822.1583004441927,None,822.1583004441927,None,822.1583004441927,None,822.1583004441927,None,822.1583004441927,None,826.1598600512953,None,826.1598600512953,None,826.1598600512953,None,826.1598600512953,None,826.1598600512953,None,826.1598600512953,None,826.1598600512953,None,827.1435443335795,None,0.8839571014977992,,,,,,,,,,,,,,,,,,,,,,,,,,,,,,24103,2019_Sep_04_1636,Mmi_3levels,3.1.5,60.067426157317406,
,,,3,1,6.9,,,,,,,,,0,2,2,2,0,2,2,25,,,,,,,,,,,,,,,,,,,,,,,,,,,,,,,,,,,,,,,,,,,,,,,,,,,,,,,,,,,,,True,True,False,0.4,-0.6,-1.7999999999999998,10.2,6.9,-3.299999999999999,1.8000000000000007,gamble,win,6.9,-27.08833333333331,829.1610343964421,None,829.1610343964421,None,829.1610343964421,None,829.1610343964421,None,829.1610343964421,None,829.1610343964421,None,829.1610343964421,None,1,829.1610343964421,None,830.4782483762247,None,830.4782483762247,None,830.4782483762247,None,830.4782483762247,None,830.4782483762247,None,830.4782483762247,None,830.4782483762247,None,834.463097724074,None,834.463097724074,None,834.463097724074,None,834.463097724074,None,834.463097724074,None,834.463097724074,None,834.463097724074,None,835.4634877858334,None,1.2840884873876348,,,,,,,,,,,,,,,,,,,,,,,,,,,,,,24103,2019_Sep_04_1636,Mmi_3levels,3.1.5,60.067426157317406,
,,,3,1,8.9,,,,,,,,,0,2,2,2,0,3,3,15,,,,,,,,,,,,,,,,,,,,,,,,,,,,,,,,,,,,,,,,,,,,,,,,,,,,,,,,,,,,,True,False,True,0.4,-0.6,-2.4,-2.3000000000000003,8.9,6.6,3.3,gamble,lose,6.6,-20.48833333333331,837.4809368905844,None,837.4809368905844,None,837.4809368905844,None,837.4809368905844,None,837.4809368905844,None,837.4809368905844,None,837.4809368905844,None,1,837.4809368905844,None,838.2479000980966,None,838.2479000980966,None,838.2479000980966,None,838.2479000980966,None,838.2479000980966,None,838.2479000980966,None,838.2479000980966,None,842.2327753647114,None,842.2327753647114,None,842.2327753647114,None,842.2327753647114,None,842.2327753647114,None,842.2327753647114,None,842.2327753647114,None,851.7364763118094,None,0.7337110010557808,843.2331679863855,None,844.2335942064528,None,0.5,7.502846906951163,847.234763751796,None,None,847.234763751796,None,,,,,,,,,,,,,,,,,,,24103,2019_Sep_04_1636,Mmi_3levels,3.1.5,60.067426157317406,
,,,3,1,0.9,,,,,,,,,0,2,2,2,0,4,4,9,,,,,,,,,,,,,,,,,,,,,,,,,,,,,,,,,,,,,,,,,,,,,,,,,,,,,,,,,,,,,True,True,True,0.5,-0.5,-2.9,9.9,0.9,-9.0,-4.05,gamble,win,0.9,-19.58833333333331,853.7539250965929,None,853.7539250965929,None,853.7539250965929,None,853.7539250965929,None,853.7539250965929,None,853.7539250965929,None,853.7539250965929,None,1,853.7539250965929,None,856.0881654808763,None,856.0881654808763,None,856.0881654808763,None,856.0881654808763,None,856.0881654808763,None,856.0881654808763,None,856.0881654808763,None,860.0897586864303,None,860.0897586864303,None,860.0897586864303,None,860.0897586864303,None,860.0897586864303,None,860.0897586864303,None,860.0897586864303,None,861.0733901711646,None,2.3012112074065953,,,,,,,,,,,,,,,,,,,,,,,,,,,,,,24103,2019_Sep_04_1636,Mmi_3levels,3.1.5,60.067426157317406,
,,,3,1,10.1,,,,,,,,,0,2,2,2,0,5,5,26,,,,,,,,,,,,,,,,,,,,,,,,,,,,,,,,,,,,,,,,,,,,,,,,,,,,,,,,,,,,,True,False,False,0.5,-0.5,-3.4,-2.033333333333333,10.1,8.066666666666666,4.033333333333333,gamble,lose,8.066666666666666,-11.521666666666643,863.0908885536483,None,863.0908885536483,None,863.0908885536483,None,863.0908885536483,None,863.0908885536483,None,863.0908885536483,None,863.0908885536483,None,1,863.0908885536483,None,863.9412174663157,None,863.9412174663157,None,863.9412174663157,None,863.9412174663157,None,863.9412174663157,None,863.9412174663157,None,863.9412174663157,None,867.9260549746687,None,867.9260549746687,None,867.9260549746687,None,867.9260549746687,None,867.9260549746687,None,867.9260549746687,None,867.9260549746687,None,877.429832398193,None,0.8172834165161476,868.9264485563035,None,869.9268773362855,None,0.5,7.5028005091589876,872.9280004837783,None,None,872.9280004837783,None,,,,,,,,,,,,,,,,,,,24103,2019_Sep_04_1636,Mmi_3levels,3.1.5,60.067426157317406,
,,,3,1,5.7,,,,,,,,,0,2,2,2,0,6,6,19,,,,,,,,,,,,,,,,,,,,,,,,,,,,,,,,,,,,,,,,,,,,,,,,,,,,,,,,,,,,,True,True,False,0.5,-0.5,-3.9,10.9,5.7,-5.2,0.25,gamble,win,5.7,-5.821666666666643,879.4472847028519,None,879.4472847028519,None,879.4472847028519,None,879.4472847028519,None,879.4472847028519,None,879.4472847028519,None,879.4472847028519,None,1,879.4472847028519,None,881.3480263001984,None,881.3480263001984,None,881.3480263001984,None,881.3480263001984,None,881.3480263001984,None,881.3480263001984,None,881.3480263001984,None,885.3494921516976,None,885.3494921516976,None,885.3494921516976,None,885.3494921516976,None,885.3494921516976,None,885.3494921516976,None,885.3494921516976,None,886.3332615499967,None,1.867657063063234,,,,,,,,,,,,,,,,,,,,,,,,,,,,,,24103,2019_Sep_04_1636,Mmi_3levels,3.1.5,60.067426157317406,
,,,3,1,7.3,,,,,,,,,0,2,2,2,0,7,7,11,,,,,,,,,,,,,,,,,,,,,,,,,,,,,,,,,,,,,,,,,,,,,,,,,,,,,,,,,,,,,True,True,False,0.5,-0.5,-4.4,11.4,7.3,-4.1000000000000005,1.5999999999999996,gamble,win,7.3,1.4783333333333566,888.3507039350807,None,888.3507039350807,None,888.3507039350807,None,888.3507039350807,None,888.3507039350807,None,888.3507039350807,None,888.3507039350807,None,1,888.3507039350807,None,889.4344965002965,None,889.4344965002965,None,889.4344965002965,None,889.4344965002965,None,889.4344965002965,None,889.4344965002965,None,889.4344965002965,None,893.4193471280742,None,893.4193471280742,None,893.4193471280742,None,893.4193471280742,None,893.4193471280742,None,893.4193471280742,None,893.4193471280742,None,902.9230739939376,None,1.0506728325854056,894.4197336700163,None,895.4201230918407,None,0.5,7.502717313065659,898.4212891173665,None,None,898.4212891173665,None,,,,,,,,,,,,,,,,,,,24103,2019_Sep_04_1636,Mmi_3levels,3.1.5,60.067426157317406,
,,,3,1,1.3,,,,,,,,,0,2,2,2,0,8,8,22,,,,,,,,,,,,,,,,,,,,,,,,,,,,,,,,,,,,,,,,,,,,,,,,,,,,,,,,,,,,,True,True,False,0.5,-0.5,-4.9,11.9,1.3,-10.6,-4.6499999999999995,certain,certain,-4.6499999999999995,-3.171666666666643,904.96178578533,None,904.96178578533,None,904.96178578533,None,904.96178578533,None,904.96178578533,None,904.96178578533,None,904.96178578533,None,3,904.96178578533,None,906.0575944291777,None,906.0575944291777,None,906.0575944291777,None,906.0575944291777,None,906.0575944291777,None,906.0575944291777,None,906.0575944291777,None,910.0591473166132,None,910.0591473166132,None,910.0591473166132,None,910.0591473166132,None,910.0591473166132,None,910.0591473166132,None,910.0591473166132,None,911.0429192747688,None,1.0627225096104667,,,,,,,,,,,,,,,,,,,,,,,,,,,,,,24103,2019_Sep_04_1636,Mmi_3levels,3.1.5,60.067426157317406,
,,,3,1,4.3,,,,,,,,,0,2,2,2,0,9,9,23,,,,,,,,,,,,,,,,,,,,,,,,,,,,,,,,,,,,,,,,,,,,,,,,,,,,,,,,,,,,,True,True,False,0.5,-0.5,-5.4,12.4,4.3,-8.100000000000001,-1.9000000000000008,gamble,win,4.3,1.128333333333357,913.0603271014988,None,913.0603271014988,None,913.0603271014988,None,913.0603271014988,None,913.0603271014988,None,913.0603271014988,None,913.0603271014988,None,1,913.0603271014988,None,914.3108065990964,None,914.3108065990964,None,914.3108065990964,None,914.3108065990964,None,914.3108065990964,None,914.3108065990964,None,914.3108065990964,None,918.2956165887881,None,918.2956165887881,None,918.2956165887881,None,918.2956165887881,None,918.2956165887881,None,918.2956165887881,None,918.2956165887881,None,919.2961292047985,None,1.2173892035498284,,,,,,,,,,,,,,,,,,,,,,,,,,,,,,24103,2019_Sep_04_1636,Mmi_3levels,3.1.5,60.067426157317406,
,,,3,1,10.3,,,,,,,,,0,2,2,2,0,10,10,2,,,,,,,,,,,,,,,,,,,,,,,,,,,,,,,,,,,,,,,,,,,,,,,,,,,,,,,,,,,,,True,True,False,0.5,-0.5,-5.9,12.9,10.3,-2.5999999999999996,-1.2999999999999998,gamble,win,10.3,11.428333333333358,921.3135274319793,None,921.3135274319793,None,921.3135274319793,None,921.3135274319793,None,921.3135274319793,None,921.3135274319793,None,921.3135274319793,None,1,921.3135274319793,None,922.3639298771741,None,922.3639298771741,None,922.3639298771741,None,922.3639298771741,None,922.3639298771741,None,922.3639298771741,None,922.3639298771741,None,926.3654958840343,None,926.3654958840343,None,926.3654958840343,None,926.3654958840343,None,926.3654958840343,None,926.3654958840343,None,926.3654958840343,None,935.8525476889336,None,1.0174830232281238,927.3492032052018,None,928.3495958268759,None,0.58,7.502844667120371,931.3507391334279,None,None,931.3507391334279,None,,,,,,,,,,,,,,,,,,,24103,2019_Sep_04_1636,Mmi_3levels,3.1.5,60.067426157317406,
,,,3,1,7.1,,,,,,,,,0,2,2,2,0,11,11,20,,,,,,,,,,,,,,,,,,,,,,,,,,,,,,,,,,,,,,,,,,,,,,,,,,,,,,,,,,,,,True,True,True,0.58,-0.42000000000000004,-6.32,12.200000000000001,7.1,-5.100000000000001,0.9999999999999991,gamble,win,7.1,18.528333333333357,937.8699497558991,None,937.8699497558991,None,937.8699497558991,None,937.8699497558991,None,937.8699497558991,None,937.8699497558991,None,937.8699497558991,None,1,937.8699497558991,None,939.6539876856841,None,939.6539876856841,None,939.6539876856841,None,939.6539876856841,None,939.6539876856841,None,939.6539876856841,None,939.6539876856841,None,943.6388635922922,None,943.6388635922922,None,943.6388635922922,None,943.6388635922922,None,943.6388635922922,None,943.6388635922922,None,943.6388635922922,None,944.6392168557504,None,1.750919797050301,,,,,,,,,,,,,,,,,,,,,,,,,,,,,,24103,2019_Sep_04_1636,Mmi_3levels,3.1.5,60.067426157317406,
,,,3,1,13.3,,,,,,,,,0,2,2,2,0,12,12,12,,,,,,,,,,,,,,,,,,,,,,,,,,,,,,,,,,,,,,,,,,,,,,,,,,,,,,,,,,,,,True,True,True,0.58,-0.42000000000000004,-6.74,12.620000000000001,13.3,0.6799999999999997,0.33999999999999986,gamble,win,13.3,31.828333333333358,946.6567126783775,None,946.6567126783775,None,946.6567126783775,None,946.6567126783775,None,946.6567126783775,None,946.6567126783775,None,946.6567126783775,None,1,946.6567126783775,None,947.5403846732224,None,947.5403846732224,None,947.5403846732224,None,947.5403846732224,None,947.5403846732224,None,947.5403846732224,None,947.5403846732224,None,951.5419797986979,None,951.5419797986979,None,951.5419797986979,None,951.5419797986979,None,951.5419797986979,None,951.5419797986979,None,951.5419797986979,None,961.0289660067065,None,0.850626498751808,952.5256954394863,None,953.5260976607096,None,0.58,7.502858106512576,956.5271680107107,None,None,956.5271680107107,None,,,,,,,,,,,,,,,,,,,24103,2019_Sep_04_1636,Mmi_3levels,3.1.5,60.067426157317406,
,,,3,1,3.5,,,,,,,,,0,2,2,2,0,13,13,21,,,,,,,,,,,,,,,,,,,,,,,,,,,,,,,,,,,,,,,,,,,,,,,,,,,,,,,,,,,,,True,True,False,0.58,-0.42000000000000004,-7.16,13.040000000000001,3.5,-9.540000000000001,-3.0200000000000005,certain,certain,-3.0200000000000005,28.80833333333336,963.046413191536,None,963.046413191536,None,963.046413191536,None,963.046413191536,None,963.046413191536,None,963.046413191536,None,963.046413191536,None,3,963.046413191536,None,964.5469987642136,None,964.5469987642136,None,964.5469987642136,None,964.5469987642136,None,964.5469987642136,None,964.5469987642136,None,964.5469987642136,None,968.5485682908911,None,968.5485682908911,None,968.5485682908911,None,968.5485682908911,None,968.5485682908911,None,968.5485682908911,None,968.5485682908911,None,969.5323056906345,None,1.4675426363828592,,,,,,,,,,,,,,,,,,,,,,,,,,,,,,24103,2019_Sep_04_1636,Mmi_3levels,3.1.5,60.067426157317406,
,,,3,1,9.3,,,,,,,,,0,2,2,2,0,14,14,18,,,,,,,,,,,,,,,,,,,,,,,,,,,,,,,,,,,,,,,,,,,,,,,,,,,,,,,,,,,,,True,False,True,0.58,-0.42000000000000004,-7.58,-2.101666666666667,9.3,7.198333333333334,3.599166666666667,gamble,lose,7.198333333333334,36.00666666666669,971.5497163972468,None,971.5497163972468,None,971.5497163972468,None,971.5497163972468,None,971.5497163972468,None,971.5497163972468,None,971.5497163972468,None,1,971.5497163972468,None,972.3333626652602,None,972.3333626652602,None,972.3333626652602,None,972.3333626652602,None,972.3333626652602,None,972.3333626652602,None,972.3333626652602,None,976.3182382519008,None,976.3182382519008,None,976.3182382519008,None,976.3182382519008,None,976.3182382519008,None,976.3182382519008,None,976.3182382519008,None,977.3186302335816,None,0.7505892524495721,,,,,,,,,,,,,,,,,,,,,,,,,,,,,,24103,2019_Sep_04_1636,Mmi_3levels,3.1.5,60.067426157317406,
,,,3,1,6.5,,,,,,,,,0,2,2,2,0,15,15,7,,,,,,,,,,,,,,,,,,,,,,,,,,,,,,,,,,,,,,,,,,,,,,,,,,,,,,,,,,,,,True,True,False,0.58,-0.42000000000000004,-8.0,13.88,6.5,-7.380000000000001,-0.4400000000000004,gamble,win,6.5,42.50666666666669,979.3360796583584,None,979.3360796583584,None,979.3360796583584,None,979.3360796583584,None,979.3360796583584,None,979.3360796583584,None,979.3360796583584,None,1,979.3360796583584,None,980.6032412565546,None,980.6032412565546,None,980.6032412565546,None,980.6032412565546,None,980.6032412565546,None,980.6032412565546,None,980.6032412565546,None,984.6048267824808,None,984.6048267824808,None,984.6048267824808,None,984.6048267824808,None,984.6048267824808,None,984.6048267824808,None,984.6048267824808,None,994.0918555484968,None,1.2341125822858885,985.5885465830797,None,986.5888998465962,None,0.59,7.502854906604625,989.5900738717173,None,None,989.5900738717173,None,,,,,,,,,,,,,,,,,,,24103,2019_Sep_04_1636,Mmi_3levels,3.1.5,60.067426157317406,
,,,3,1,2.7,,,,,,,,,0,2,2,2,0,16,16,17,,,,,,,,,,,,,,,,,,,,,,,,,,,,,,,,,,,,,,,,,,,,,,,,,,,,,,,,,,,,,True,True,False,0.59,-0.41000000000000003,-8.41,14.15,2.7,-11.45,-4.375,certain,certain,-4.375,38.13166666666669,996.1092563355342,None,996.1092563355342,None,996.1092563355342,None,996.1092563355342,None,996.1092563355342,None,996.1092563355342,None,996.1092563355342,None,3,996.1092563355342,None,998.1934197634109,None,998.1934197634109,None,998.1934197634109,None,998.1934197634109,None,998.1934197634109,None,998.1934197634109,None,998.1934197634109,None,1002.1949691310292,None,1002.1949691310292,None,1002.1949691310292,None,1002.1949691310292,None,1002.1949691310292,None,1002.1949691310292,None,1002.1949691310292,None,1003.1786774121574,None,2.051076333737001,,,,,,,,,,,,,,,,,,,,,,,,,,,,,,24103,2019_Sep_04_1636,Mmi_3levels,3.1.5,60.067426157317406,
,,,3,1,0.7,,,,,,,,,0,2,2,2,0,17,17,8,,,,,,,,,,,,,,,,,,,,,,,,,,,,,,,,,,,,,,,,,,,,,,,,,,,,,,,,,,,,,True,True,True,0.59,-0.41000000000000003,-8.82,14.56,0.7,-13.860000000000001,-6.580000000000001,certain,certain,-6.580000000000001,31.551666666666687,1005.1961748346803,None,1005.1961748346803,None,1005.1961748346803,None,1005.1961748346803,None,1005.1961748346803,None,1005.1961748346803,None,1005.1961748346803,None,3,1005.1961748346803,None,1006.5466630998999,None,1006.5466630998999,None,1006.5466630998999,None,1006.5466630998999,None,1006.5466630998999,None,1006.5466630998999,None,1006.5466630998999,None,1010.5481699094526,None,1010.5481699094526,None,1010.5481699094526,None,1010.5481699094526,None,1010.5481699094526,None,1010.5481699094526,None,1010.5481699094526,None,1020.0352882713196,None,1.317543564364314,1011.5319357879343,None,1012.5323200899875,None,0.5,7.502884345245548,1015.5334864354809,None,None,1015.5334864354809,None,,,,,,,,,,,,,,,,,,,24103,2019_Sep_04_1636,Mmi_3levels,3.1.5,60.067426157317406,
,,,3,1,7.5,,,,,,,,,0,2,2,2,0,18,18,16,,,,,,,,,,,,,,,,,,,,,,,,,,,,,,,,,,,,,,,,,,,,,,,,,,,,,,,,,,,,,True,True,True,0.5,-0.5,-9.32,16.32,7.5,-8.82,-0.6600000000000001,gamble,win,7.5,39.05166666666669,1022.0739511050051,None,1022.0739511050051,None,1022.0739511050051,None,1022.0739511050051,None,1022.0739511050051,None,1022.0739511050051,None,1022.0739511050051,None,1,1022.0739511050051,None,1023.3698400010471,None,1023.3698400010471,None,1023.3698400010471,None,1023.3698400010471,None,1023.3698400010471,None,1023.3698400010471,None,1023.3698400010471,None,1027.371419767267,None,1027.371419767267,None,1027.371419767267,None,1027.371419767267,None,1027.371419767267,None,1027.371419767267,None,1027.371419767267,None,1028.3551430876832,None,1.2628315605106764,,,,,,,,,,,,,,,,,,,,,,,,,,,,,,24103,2019_Sep_04_1636,Mmi_3levels,3.1.5,60.067426157317406,
,,,3,1,13.9,,,,,,,,,0,2,2,2,0,19,19,0,,,,,,,,,,,,,,,,,,,,,,,,,,,,,,,,,,,,,,,,,,,,,,,,,,,,,,,,,,,,,True,True,False,0.5,-0.5,-9.82,16.82,13.9,-2.92,-1.46,gamble,win,13.9,52.95166666666669,1030.3725870727212,None,1030.3725870727212,None,1030.3725870727212,None,1030.3725870727212,None,1030.3725870727212,None,1030.3725870727212,None,1030.3725870727212,None,1,1030.3725870727212,None,1031.356306233327,None,1031.356306233327,None,1031.356306233327,None,1031.356306233327,None,1031.356306233327,None,1031.356306233327,None,1031.356306233327,None,1035.3578623206704,None,1035.3578623206704,None,1035.3578623206704,None,1035.3578623206704,None,1035.3578623206704,None,1035.3578623206704,None,1035.3578623206704,None,1044.8448837270262,None,0.9506339863874018,1036.3416077200673,None,1037.341941784427,None,0.57,7.50299729994731,1040.3431350087048,None,None,1040.3431350087048,None,,,,,,,,,,,,,,,,,,,24103,2019_Sep_04_1636,Mmi_3levels,3.1.5,60.067426157317406,
,,,3,1,-1.3,,,,,,,,,0,2,2,2,0,20,20,24,,,,,,,,,,,,,,,,,,,,,,,,,,,,,,,,,,,,,,,,,,,,,,,,,,,,,,,,,,,,,True,False,True,0.57,-0.43000000000000005,-10.25,-2.359166666666667,-1.3,-3.6591666666666667,-2.4795833333333333,certain,certain,-2.4795833333333333,50.47208333333336,1046.8623325118097,None,1046.8623325118097,None,1046.8623325118097,None,1046.8623325118097,None,1046.8623325118097,None,1046.8623325118097,None,1046.8623325118097,None,3,1046.8623325118097,None,1048.5963404589565,None,1048.5963404589565,None,1048.5963404589565,None,1048.5963404589565,None,1048.5963404589565,None,1048.5963404589565,None,1048.5963404589565,None,1052.5978975062026,None,1052.5978975062026,None,1052.5978975062026,None,1052.5978975062026,None,1052.5978975062026,None,1052.5978975062026,None,1052.5978975062026,None,1053.5816185867297,None,1.7009269326808862,,,,,,,,,,,,,,,,,,,,,,,,,,,,,,24103,2019_Sep_04_1636,Mmi_3levels,3.1.5,60.067426157317406,
,,,3,1,6.7,,,,,,,,,0,2,2,2,0,21,21,13,,,,,,,,,,,,,,,,,,,,,,,,,,,,,,,,,,,,,,,,,,,,,,,,,,,,,,,,,,,,,True,False,False,0.57,-0.43000000000000005,-10.68,-2.395,6.7,4.305,2.1525,gamble,lose,4.305,54.77708333333336,1055.5990667315782,None,1055.5990667315782,None,1055.5990667315782,None,1055.5990667315782,None,1055.5990667315782,None,1055.5990667315782,None,1055.5990667315782,None,1,1055.5990667315782,None,1056.4827736048028,None,1056.4827736048028,None,1056.4827736048028,None,1056.4827736048028,None,1056.4827736048028,None,1056.4827736048028,None,1056.4827736048028,None,1060.4676210327307,None,1060.4676210327307,None,1060.4676210327307,None,1060.4676210327307,None,1060.4676210327307,None,1060.4676210327307,None,1060.4676210327307,None,1061.4680130144116,None,0.8505868205684237,,,,,,,,,,,,,,,,,,,,,,,,,,,,,,24103,2019_Sep_04_1636,Mmi_3levels,3.1.5,60.067426157317406,
,,,3,1,2.5,,,,,,,,,0,2,2,2,0,22,22,5,,,,,,,,,,,,,,,,,,,,,,,,,,,,,,,,,,,,,,,,,,,,,,,,,,,,,,,,,,,,,True,True,True,0.57,-0.43000000000000005,-11.11,17.13,2.5,-14.629999999999999,-6.0649999999999995,certain,certain,-6.0649999999999995,48.71208333333336,1063.4854765185155,None,1063.4854765185155,None,1063.4854765185155,None,1063.4854765185155,None,1063.4854765185155,None,1063.4854765185155,None,1063.4854765185155,None,3,1063.4854765185155,None,1065.0694274763227,None,1065.0694274763227,None,1065.0694274763227,None,1065.0694274763227,None,1065.0694274763227,None,1065.0694274763227,None,1065.0694274763227,None,1069.0709842036013,None,1069.0709842036013,None,1069.0709842036013,None,1069.0709842036013,None,1069.0709842036013,None,1069.0709842036013,None,1069.0709842036013,None,1078.557990570669,None,1.5508472244255245,1070.0546841651085,None,1071.055070387083,None,0.5,7.502611718024127,1074.0562392924912,None,None,1074.0562392924912,None,,,,,,,,,,,,,,,,,,,24103,2019_Sep_04_1636,Mmi_3levels,3.1.5,60.067426157317406,
,,,3,1,0.1,,,,,,,,,0,2,2,2,0,23,23,3,,,,,,,,,,,,,,,,,,,,,,,,,,,,,,,,,,,,,,,,,,,,,,,,,,,,,,,,,,,,,True,True,False,0.5,-0.5,-11.61,18.61,0.1,-18.509999999999998,-9.204999999999998,certain,certain,-9.204999999999998,39.50708333333336,1080.596695962362,None,1080.596695962362,None,1080.596695962362,None,1080.596695962362,None,1080.596695962362,None,1080.596695962362,None,1080.596695962362,None,3,1080.596695962362,None,1081.976039519417,None,1081.976039519417,None,1081.976039519417,None,1081.976039519417,None,1081.976039519417,None,1081.976039519417,None,1081.976039519417,None,1085.9608722280245,None,1085.9608722280245,None,1085.9608722280245,None,1085.9608722280245,None,1085.9608722280245,None,1085.9608722280245,None,1085.9608722280245,None,1086.9612542901887,None,1.3461915059015155,,,,,,,,,,,,,,,,,,,,,,,,,,,,,,24103,2019_Sep_04_1636,Mmi_3levels,3.1.5,60.067426157317406,
,,,3,1,5.3,,,,,,,,,0,2,2,2,0,24,24,6,,,,,,,,,,,,,,,,,,,,,,,,,,,,,,,,,,,,,,,,,,,,,,,,,,,,,,,,,,,,,True,True,False,0.5,-0.5,-12.11,19.11,5.3,-13.809999999999999,-4.254999999999999,gamble,win,5.3,44.80708333333336,1088.9787065947894,None,1088.9787065947894,None,1088.9787065947894,None,1088.9787065947894,None,1088.9787065947894,None,1088.9787065947894,None,1088.9787065947894,None,1,1088.9787065947894,None,1090.1958442901378,None,1090.1958442901378,None,1090.1958442901378,None,1090.1958442901378,None,1090.1958442901378,None,1090.1958442901378,None,1090.1958442901378,None,1094.197404857201,None,1094.197404857201,None,1094.197404857201,None,1094.197404857201,None,1094.197404857201,None,1094.197404857201,None,1094.197404857201,None,1103.6844192239223,None,1.1840512411436066,1095.181150256656,None,1096.1815095998463,None,0.58,7.502949942136183,1099.1826273076003,None,None,1099.1826273076003,None,,,,,,,,,,,,,,,,,,,24103,2019_Sep_04_1636,Mmi_3levels,3.1.5,60.067426157317406,
,,,3,1,3.9,,,,,,,,,0,2,2,2,0,25,25,14,,,,,,,,,,,,,,,,,,,,,,,,,,,,,,,,,,,,,,,,,,,,,,,,,,,,,,,,,,,,,True,False,False,0.58,-0.42000000000000004,-12.53,-2.514166666666667,3.9,1.3858333333333328,0.6929166666666664,gamble,lose,1.3858333333333328,46.19291666666669,1105.7018817680655,None,1105.7018817680655,None,1105.7018817680655,None,1105.7018817680655,None,1105.7018817680655,None,1105.7018817680655,None,1105.7018817680655,None,1,1105.7018817680655,None,1106.6022605023463,None,1106.6022605023463,None,1106.6022605023463,None,1106.6022605023463,None,1106.6022605023463,None,1106.6022605023463,None,1106.6022605023463,None,1110.5871312891832,None,1110.5871312891832,None,1110.5871312891832,None,1110.5871312891832,None,1110.5871312891832,None,1110.5871312891832,None,1110.5871312891832,None,1111.5875357502955,None,0.8672570817288943,,,,,,,,,,,,,,,,,,,,,,,,,,,,,,24103,2019_Sep_04_1636,Mmi_3levels,3.1.5,60.067426157317406,
,,,3,1,7.7,,,,,,,,,0,2,2,2,0,26,26,10,,,,,,,,,,,,,,,,,,,,,,,,,,,,,,,,,,,,,,,,,,,,,,,,,,,,,,,,,,,,,True,True,False,0.58,-0.42000000000000004,-12.95,18.83,7.7,-11.129999999999999,-1.7149999999999994,gamble,win,7.7,53.89291666666669,1113.6049496566993,None,1113.6049496566993,None,1113.6049496566993,None,1113.6049496566993,None,1113.6049496566993,None,1113.6049496566993,None,1113.6049496566993,None,1,1113.6049496566993,None,1114.6720294027473,None,1114.6720294027473,None,1114.6720294027473,None,1114.6720294027473,None,1114.6720294027473,None,1114.6720294027473,None,1114.6720294027473,None,1118.6735854900908,None,1118.6735854900908,None,1118.6735854900908,None,1118.6735854900908,None,1118.6735854900908,None,1118.6735854900908,None,1118.6735854900908,None,1128.1606462546042,None,1.0338224198203534,1119.6572940911865,None,1120.6576876728213,None,0.61,7.502919863560237,1123.6588293794775,None,None,1123.6588293794775,None,,,,,,,,,,,,,,,,,,,24103,2019_Sep_04_1636,Mmi_3levels,3.1.5,60.067426157317406,
,,,,,,,,,,,,,,,,,,,,,,,,,,,,,,0,0,0,0,,,,,,,,,,,,,,,,,,,,,,,,,,,,,,,,,,,,,,,,,,,,,,,,,,,,,,,,,,,,,,,,,,,,,,,,,,,,,,,,,,,,,,,,,,,,,,,,,,,,,,,,,,,,,,,,,,,,,,,,,,1130.1659829652635,None,4,3.6136983680189587,1130.1659829652635,None,53.89291666666669,3,1133.8128074656124,None,1133.8128074656124,None,1133.8128074656124,None,4,9.703982469975017,1133.8128074656124,None,24103,2019_Sep_04_1636,Mmi_3levels,3.1.5,60.067426157317406,
