currSlide,currImage,currText,blockNum,targetHappiness,highAmount,instructionLoop1.thisRepN,instructionLoop1.thisTrialN,instructionLoop1.thisN,instructionLoop1.thisIndex,instructionLoop2.thisRepN,instructionLoop2.thisTrialN,instructionLoop2.thisN,instructionLoop2.thisIndex,blockLoop.thisRepN,blockLoop.thisTrialN,blockLoop.thisN,blockLoop.thisIndex,trialLoop.thisRepN,trialLoop.thisTrialN,trialLoop.thisN,trialLoop.thisIndex,doRatingLoop.thisRepN,doRatingLoop.thisTrialN,doRatingLoop.thisN,doRatingLoop.thisIndex,trialHappyLoop.thisRepN,trialHappyLoop.thisTrialN,trialHappyLoop.thisN,trialHappyLoop.thisIndex,logWinningsLoop.thisRepN,logWinningsLoop.thisTrialN,logWinningsLoop.thisN,logWinningsLoop.thisIndex,instrImage.started,instrImage.stopped,instrText.started,instrText.stopped,instrContinueText.started,instrContinueText.stopped,instrKeyResp.keys,instrKeyResp.rt,instrKeyResp.started,instrKeyResp.stopped,lifeHappyText.started,lifeHappyText.stopped,lifeHappySlider.response,lifeHappySlider.rt,lifeHappySlider.started,lifeHappySlider.stopped,lifeHappyResp.keys,lifeHappyResp.rt,lifeHappyResp.started,lifeHappyResp.stopped,instrImage_2.started,instrImage_2.stopped,instrText_2.started,instrText_2.stopped,instrContinueText_2.started,instrContinueText_2.stopped,instrKeyResp_2.keys,instrKeyResp_2.rt,instrKeyResp_2.started,instrKeyResp_2.stopped,localizing.started,localizing.stopped,start_exp.keys,start_exp.rt,start_exp.started,start_exp.stopped,blockHappyText.started,blockHappyText.stopped,blockHappySlider.response,blockHappySlider.rt,blockHappySlider.started,blockHappySlider.stopped,blockHappyResp.keys,blockHappyResp.rt,blockHappyResp.started,blockHappyResp.stopped,blankText.started,blankText.stopped,isHappyBlock,isCongruent,isWinOnTop,lastHappyRating,diff,sumDiff,RPE,winAmount,loseAmount,certainAmount,choice,outcome,outcomeAmount,currentWinnings,fixCross.started,fixCross.stopped,certainBox.started,certainBox.stopped,outcome1Box.started,outcome1Box.stopped,outcome2Box.started,outcome2Box.stopped,certainText.started,certainText.stopped,outcome1Text.started,outcome1Text.stopped,outcome2Text.started,outcome2Text.stopped,choiceKey.keys,choiceKey.started,choiceKey.stopped,fixCross_2.started,fixCross_2.stopped,certainBox_2.started,certainBox_2.stopped,outcome1Box_2.started,outcome1Box_2.stopped,outcome2Box_2.started,outcome2Box_2.stopped,certainText_2.started,certainText_2.stopped,outcome1Text_2.started,outcome1Text_2.stopped,outcome2Text_2.started,outcome2Text_2.stopped,fixCross_3.started,fixCross_3.stopped,certainBox_3.started,certainBox_3.stopped,outcome1Box_3.started,outcome1Box_3.stopped,outcome2Box_3.started,outcome2Box_3.stopped,certainText_3.started,certainText_3.stopped,outcome1Text_3.started,outcome1Text_3.stopped,outcome2Text_3.started,outcome2Text_3.stopped,fixCross_ITI.started,fixCross_ITI.stopped,choiceKey.rt,fixCross_ISI.started,fixCross_ISI.stopped,happyText.started,happyText.stopped,happySlider.response,happySlider.rt,happySlider.started,happySlider.stopped,happyResp.keys,happyResp.started,happyResp.stopped,endOfBlockText.started,endOfBlockText.stopped,restKeyResp.keys,restKeyResp.rt,restKeyResp.started,restKeyResp.stopped,finalWinnings,cashBonus,goodbyeText.started,goodbyeText.stopped,finalWinningsText.started,finalWinningsText.stopped,spaceToContinue.started,spaceToContinue.stopped,goodbyeKeyResp_2.keys,goodbyeKeyResp_2.rt,goodbyeKeyResp_2.started,goodbyeKeyResp_2.stopped,participant,date,expName,psychopyVersion,frameRate,
1,black.png,"Welcome! You are about to play our gambling task.
This task has 3 blocks and takes about 15 minutes.",,,,0,0,0,0,,,,,,,,,,,,,,,,,,,,,,,,,53.84018686960917,None,53.84018686960917,None,53.84018686960917,None,4,5.669020774774253,53.84018686960917,None,,,,,,,,,,,,,,,,,,,,,,,,,,,,,,,,,,,,,,,,,,,,,,,,,,,,,,,,,,,,,,,,,,,,,,,,,,,,,,,,,,,,,,,,,,,,,,,,,,,,,,,,,,,,,,,,,,,,,,,,,,,,,,,,,,24263,2019_Dec_30_1418,Mmi_3levels,3.1.5,59.9782938786886,
2,black.png,"In this game, you may win or lose points. Your goal is to get as many points as possible. These points will be converted to a cash bonus at the end.
Sometimes we will ask you to rate your mood.",,,,0,1,1,1,,,,,,,,,,,,,,,,,,,,,,,,,59.558956218417734,None,59.558956218417734,None,59.558956218417734,None,4,6.652631612611003,59.558956218417734,None,,,,,,,,,,,,,,,,,,,,,,,,,,,,,,,,,,,,,,,,,,,,,,,,,,,,,,,,,,,,,,,,,,,,,,,,,,,,,,,,,,,,,,,,,,,,,,,,,,,,,,,,,,,,,,,,,,,,,,,,,,,,,,,,,,24263,2019_Dec_30_1418,Mmi_3levels,3.1.5,59.9782938786886,
3,black.png,"On the next screen, please rate how you feel about your life these days. Use the LEFT (green) and RIGHT (blue) buttons to move the slider (you can press and hold them to slide gradually) and the TOP (red) button to lock in your response.
Make your rating as accurately and quickly as you can!",,,,0,2,2,2,,,,,,,,,,,,,,,,,,,,,,,,,66.26148327696137,None,66.26148327696137,None,66.26148327696137,None,4,11.838089387048967,66.26148327696137,None,,,,,,,,,,,,,,,,,,,,,,,,,,,,,,,,,,,,,,,,,,,,,,,,,,,,,,,,,,,,,,,,,,,,,,,,,,,,,,,,,,,,,,,,,,,,,,,,,,,,,,,,,,,,,,,,,,,,,,,,,,,,,,,,,,24263,2019_Dec_30_1418,Mmi_3levels,3.1.5,59.9782938786886,
,,,,,,,,,,,,,,,,,,,,,,,,,,,,,,,,,,,,,,,,,,,,78.11603158223443,None,0.75,10.302987832692452,82.11759309482295,None,4,6.285857592010871,82.11759309482295,None,,,,,,,,,,,,,,,,,,,,,,,,,,,,,,,,,,,,,,,,,,,,,,,,,,,,,,,,,,,,,,,,,,,,,,,,,,,,,,,,,,,,,,,,,,,,,,,,,,,,,,,,,,,,,,,,,,,,,,,,24263,2019_Dec_30_1418,Mmi_3levels,3.1.5,59.9782938786886,
4,black.png,"In this game you can win money by earning points according to your choices. You will decide whether to gamble a number of points or stick with a guaranteed number of points. 
Make your choice by pressing the left or right arrow key once. An example of one trial is shown on the next screen.",,,,,,,,0,0,0,0,,,,,,,,,,,,,,,,,,,,,,,,,,,,,,,,,,,,,,,,,88.45328853582032,None,88.45328853582032,None,88.45328853582032,None,4,13.672143160016276,88.45328853582032,None,,,,,,,,,,,,,,,,,,,,,,,,,,,,,,,,,,,,,,,,,,,,,,,,,,,,,,,,,,,,,,,,,,,,,,,,,,,,,,,,,,,,,,,,,,,,,,,,,,,,,,,,,,,,,,24263,2019_Dec_30_1418,Mmi_3levels,3.1.5,59.9782938786886,
5,example_start.png,"The GAMBLING OPTION will be shown on the RIGHT SIDE. 
Select this option using the RIGHT (blue) button on your keypad.",,,,,,,,0,1,1,1,,,,,,,,,,,,,,,,,,,,,,,,,,,,,,,,,,,,,,,,,102.19187373504974,None,102.19187373504974,None,102.19187373504974,None,4,8.936872335150838,102.19187373504974,None,,,,,,,,,,,,,,,,,,,,,,,,,,,,,,,,,,,,,,,,,,,,,,,,,,,,,,,,,,,,,,,,,,,,,,,,,,,,,,,,,,,,,,,,,,,,,,,,,,,,,,,,,,,,,,24263,2019_Dec_30_1418,Mmi_3levels,3.1.5,59.9782938786886,
6,example_gamble.png,"Once you select the gambling choice, the choice you made will remain on the screen.",,,,,,,,0,2,2,2,,,,,,,,,,,,,,,,,,,,,,,,,,,,,,,,,,,,,,,,,111.16188501450233,None,111.16188501450233,None,111.16188501450233,None,4,3.9350471573416144,111.16188501450233,None,,,,,,,,,,,,,,,,,,,,,,,,,,,,,,,,,,,,,,,,,,,,,,,,,,,,,,,,,,,,,,,,,,,,,,,,,,,,,,,,,,,,,,,,,,,,,,,,,,,,,,,,,,,,,,24263,2019_Dec_30_1418,Mmi_3levels,3.1.5,59.9782938786886,
7,example_win.png,"The outcome you received will then be shown on the screen. In this example , you WON 10 points.",,,,,,,,0,3,3,3,,,,,,,,,,,,,,,,,,,,,,,,,,,,,,,,,,,,,,,,,115.13007879559882,None,115.13007879559882,None,115.13007879559882,None,4,3.751619669375941,115.13007879559882,None,,,,,,,,,,,,,,,,,,,,,,,,,,,,,,,,,,,,,,,,,,,,,,,,,,,,,,,,,,,,,,,,,,,,,,,,,,,,,,,,,,,,,,,,,,,,,,,,,,,,,,,,,,,,,,24263,2019_Dec_30_1418,Mmi_3levels,3.1.5,59.9782938786886,
8,example_start.png,"The GUARANTEED OPTION will be shown on the LEFT SIDE. You are 100% guaranteed to gain or lose this amount. In this example, you have a 100% chance of winning 1 point. Select this option using the LEFT (green) button on your keyboard.",,,,,,,,0,4,4,4,,,,,,,,,,,,,,,,,,,,,,,,,,,,,,,,,,,,,,,,,118.93155391304754,None,118.93155391304754,None,118.93155391304754,None,4,7.786487796693109,118.93155391304754,None,,,,,,,,,,,,,,,,,,,,,,,,,,,,,,,,,,,,,,,,,,,,,,,,,,,,,,,,,,,,,,,,,,,,,,,,,,,,,,,,,,,,,,,,,,,,,,,,,,,,,,,,,,,,,,24263,2019_Dec_30_1418,Mmi_3levels,3.1.5,59.9782938786886,
9,example_certain.png,"Once you select the guaranteed choice, your selection will remain on the screen.",,,,,,,,0,5,5,5,,,,,,,,,,,,,,,,,,,,,,,,,,,,,,,,,,,,,,,,,126.75112017733045,None,126.75112017733045,None,126.75112017733045,None,4,3.8350105193676427,126.75112017733045,None,,,,,,,,,,,,,,,,,,,,,,,,,,,,,,,,,,,,,,,,,,,,,,,,,,,,,,,,,,,,,,,,,,,,,,,,,,,,,,,,,,,,,,,,,,,,,,,,,,,,,,,,,,,,,,24263,2019_Dec_30_1418,Mmi_3levels,3.1.5,59.9782938786886,
10,black.png,"Please make your choices as fast as possible.
You will be given a break at the end of each block.
Let's play!",,,,,,,,0,6,6,6,,,,,,,,,,,,,,,,,,,,,,,,,,,,,,,,,,,,,,,,,130.61925844149664,None,130.61925844149664,None,130.61925844149664,None,4,5.5190730119356886,130.61925844149664,None,,,,,,,,,,,,,,,,,,,,,,,,,,,,,,,,,,,,,,,,,,,,,,,,,,,,,,,,,,,,,,,,,,,,,,,,,,,,,,,,,,,,,,,,,,,,,,,,,,,,,,,,,,,,,,24263,2019_Dec_30_1418,Mmi_3levels,3.1.5,59.9782938786886,
,,,,,,,,,,,,,,,,,,,,,,,,,,,,,,,,,,,,,,,,,,,,,,,,,,,,,,,,,,,,,,,,136.15469725697767,None,space,58.83938659436535,136.15469725697767,None,,,,,,,,,,,,,,,,,,,,,,,,,,,,,,,,,,,,,,,,,,,,,,,,,,,,,,,,,,,,,,,,,,,,,,,,,,,,,,,,,,,,,,,,,,,,,,,,,,,,,,,,24263,2019_Dec_30_1418,Mmi_3levels,3.1.5,59.9782938786886,
,,,1,1,0.7,,,,,,,,,0,0,0,0,0,0,0,9,,,,,,,,,,,,,,,,,,,,,,,,,,,,,,,,,,,,,,,,,,,,,,,,,195.01033030147664,None,0.64,6.095292903599329,198.02812802488916,None,4,3.0679078771499917,198.02812802488916,None,201.11262121319305,None,True,True,False,0.64,-0.36,-0.36,5.4,0.7,-4.7,-2.0,gamble,win,0.7,0.7,204.14712072128896,None,204.14712072128896,None,204.14712072128896,None,204.14712072128896,None,204.14712072128896,None,204.14712072128896,None,204.14712072128896,None,None,204.14712072128896,None,207.14826497714967,None,207.14826497714967,None,207.14826497714967,None,207.14826497714967,None,207.14826497714967,None,207.14826497714967,None,207.14826497714967,None,211.133104546112,None,211.133104546112,None,211.133104546112,None,211.133104546112,None,211.133104546112,None,211.133104546112,None,211.133104546112,None,212.13348340499215,None,,,,,,,,,,,,,,,,,,,,,,,,,,,,,,,24263,2019_Dec_30_1418,Mmi_3levels,3.1.5,59.9782938786886,
,,,1,1,5.7,,,,,,,,,0,0,0,0,0,1,1,18,,,,,,,,,,,,,,,,,,,,,,,,,,,,,,,,,,,,,,,,,,,,,,,,,,,,,,,,,,,,,True,True,False,0.64,-0.36,-0.72,5.76,5.7,-0.05999999999999961,-0.029999999999999805,gamble,win,5.7,6.4,214.15096882579383,None,214.15096882579383,None,214.15096882579383,None,214.15096882579383,None,214.15096882579383,None,214.15096882579383,None,214.15096882579383,None,1,214.15096882579383,None,215.88491268490907,None,215.88491268490907,None,215.88491268490907,None,215.88491268490907,None,215.88491268490907,None,215.88491268490907,None,215.88491268490907,None,219.8697477740934,None,219.8697477740934,None,219.8697477740934,None,219.8697477740934,None,219.8697477740934,None,219.8697477740934,None,219.8697477740934,None,220.8701832697261,None,1.7008327533258125,,,,,,,,,,,,,,,,,,,,,,,,,,,,,,24263,2019_Dec_30_1418,Mmi_3levels,3.1.5,59.9782938786886,
,,,1,1,1.5,,,,,,,,,0,0,0,0,0,2,2,12,,,,,,,,,,,,,,,,,,,,,,,,,,,,,,,,,,,,,,,,,,,,,,,,,,,,,,,,,,,,,True,True,False,0.64,-0.36,-1.08,6.12,1.5,-4.62,-1.56,gamble,win,1.5,7.9,222.88755829678848,None,222.88755829678848,None,222.88755829678848,None,222.88755829678848,None,222.88755829678848,None,222.88755829678848,None,222.88755829678848,None,1,222.88755829678848,None,224.70491668465547,None,224.70491668465547,None,224.70491668465547,None,224.70491668465547,None,224.70491668465547,None,224.70491668465547,None,224.70491668465547,None,228.7064941963181,None,228.7064941963181,None,228.7064941963181,None,228.7064941963181,None,228.7064941963181,None,228.7064941963181,None,228.7064941963181,None,238.1934109290596,None,1.7842533617513254,229.69013095262926,None,230.69049701222684,None,0.7,7.50283520121593,233.691632948583,None,None,233.691632948583,None,,,,,,,,,,,,,,,,,,,24263,2019_Dec_30_1418,Mmi_3levels,3.1.5,59.9782938786886,
,,,1,1,6.9,,,,,,,,,0,0,0,0,0,3,3,3,,,,,,,,,,,,,,,,,,,,,,,,,,,,,,,,,,,,,,,,,,,,,,,,,,,,,,,,,,,,,True,True,True,0.7,-0.30000000000000004,-1.3800000000000001,5.580000000000001,6.9,1.3199999999999994,0.6599999999999997,gamble,win,6.9,14.8,240.21079267561436,None,240.21079267561436,None,240.21079267561436,None,240.21079267561436,None,240.21079267561436,None,240.21079267561436,None,240.21079267561436,None,1,240.21079267561436,None,242.444966761861,None,242.444966761861,None,242.444966761861,None,242.444966761861,None,242.444966761861,None,242.444966761861,None,242.444966761861,None,246.44647867721505,None,246.44647867721505,None,246.44647867721505,None,246.44647867721505,None,246.44647867721505,None,246.44647867721505,None,246.44647867721505,None,247.430183269782,None,2.201084419270046,,,,,,,,,,,,,,,,,,,,,,,,,,,,,,24263,2019_Dec_30_1418,Mmi_3levels,3.1.5,59.9782938786886,
,,,1,1,6.1,,,,,,,,,0,0,0,0,0,4,4,8,,,,,,,,,,,,,,,,,,,,,,,,,,,,,,,,,,,,,,,,,,,,,,,,,,,,,,,,,,,,,True,True,True,0.7,-0.30000000000000004,-1.6800000000000002,5.880000000000001,6.1,0.21999999999999886,0.10999999999999943,gamble,win,6.1,20.9,249.44761781336274,None,249.44761781336274,None,249.44761781336274,None,249.44761781336274,None,249.44761781336274,None,249.44761781336274,None,249.44761781336274,None,1,249.44761781336274,None,250.99820650042966,None,250.99820650042966,None,250.99820650042966,None,250.99820650042966,None,250.99820650042966,None,250.99820650042966,None,250.99820650042966,None,254.98300191189628,None,254.98300191189628,None,254.98300191189628,None,254.98300191189628,None,254.98300191189628,None,254.98300191189628,None,254.98300191189628,None,264.48664506792556,None,1.5176058940123767,255.98342524818145,None,256.9838069868274,None,0.65,7.502730887033977,259.9849736414617,None,None,259.9849736414617,None,,,,,,,,,,,,,,,,,,,24263,2019_Dec_30_1418,Mmi_3levels,3.1.5,59.9782938786886,
,,,1,1,11.7,,,,,,,,,0,0,0,0,0,5,5,13,,,,,,,,,,,,,,,,,,,,,,,,,,,,,,,,,,,,,,,,,,,,,,,,,,,,,,,,,,,,,True,True,True,0.65,-0.35,-2.0300000000000002,6.93,11.7,4.77,2.385,gamble,win,11.7,32.599999999999994,266.5040789715713,None,266.5040789715713,None,266.5040789715713,None,266.5040789715713,None,266.5040789715713,None,266.5040789715713,None,266.5040789715713,None,1,266.5040789715713,None,268.0379626741633,None,268.0379626741633,None,268.0379626741633,None,268.0379626741633,None,268.0379626741633,None,268.0379626741633,None,268.0379626741633,None,272.02283520123456,None,272.02283520123456,None,272.02283520123456,None,272.02283520123456,None,272.02283520123456,None,272.02283520123456,None,272.02283520123456,None,273.023209900246,None,1.5008756309980527,,,,,,,,,,,,,,,,,,,,,,,,,,,,,,24263,2019_Dec_30_1418,Mmi_3levels,3.1.5,59.9782938786886,
,,,1,1,8.9,,,,,,,,,0,0,0,0,0,6,6,1,,,,,,,,,,,,,,,,,,,,,,,,,,,,,,,,,,,,,,,,,,,,,,,,,,,,,,,,,,,,,True,True,False,0.65,-0.35,-2.3800000000000003,7.279999999999999,8.9,1.620000000000001,0.8100000000000005,gamble,win,8.9,41.49999999999999,275.0406470037997,None,275.0406470037997,None,275.0406470037997,None,275.0406470037997,None,275.0406470037997,None,275.0406470037997,None,275.0406470037997,None,1,275.0406470037997,None,276.4911936131539,None,276.4911936131539,None,276.4911936131539,None,276.4911936131539,None,276.4911936131539,None,276.4911936131539,None,276.4911936131539,None,280.47604310163297,None,280.47604310163297,None,280.47604310163297,None,280.47604310163297,None,280.47604310163297,None,280.47604310163297,None,280.47604310163297,None,281.4764171607094,None,1.417462382116355,,,,,,,,,,,,,,,,,,,,,,,,,,,,,,24263,2019_Dec_30_1418,Mmi_3levels,3.1.5,59.9782938786886,
,,,1,1,7.3,,,,,,,,,0,0,0,0,0,7,7,17,,,,,,,,,,,,,,,,,,,,,,,,,,,,,,,,,,,,,,,,,,,,,,,,,,,,,,,,,,,,,True,True,False,0.65,-0.35,-2.7300000000000004,7.63,7.3,-0.33000000000000007,-0.16500000000000004,gamble,win,7.3,48.79999999999999,283.4938478645636,None,283.4938478645636,None,283.4938478645636,None,283.4938478645636,None,283.4938478645636,None,283.4938478645636,None,283.4938478645636,None,1,283.4938478645636,None,285.7113547241315,None,285.7113547241315,None,285.7113547241315,None,285.7113547241315,None,285.7113547241315,None,285.7113547241315,None,285.7113547241315,None,289.6961933331331,None,289.6961933331331,None,289.6961933331331,None,289.6961933331331,None,289.6961933331331,None,289.6961933331331,None,289.6961933331331,None,299.1997907317709,None,2.1844178325263783,290.696554592927,None,291.6970067276852,None,0.84,7.502665290725417,294.69807546783704,None,None,294.69807546783704,None,,,,,,,,,,,,,,,,,,,24263,2019_Dec_30_1418,Mmi_3levels,3.1.5,59.9782938786886,
,,,1,1,11.1,,,,,,,,,0,0,0,0,0,8,8,23,,,,,,,,,,,,,,,,,,,,,,,,,,,,,,,,,,,,,,,,,,,,,,,,,,,,,,,,,,,,,True,True,False,0.84,-0.16000000000000003,-2.8900000000000006,5.130000000000001,11.1,5.969999999999999,2.9849999999999994,gamble,win,11.1,59.89999999999999,301.2172275152989,None,301.2172275152989,None,301.2172275152989,None,301.2172275152989,None,301.2172275152989,None,301.2172275152989,None,301.2172275152989,None,1,301.2172275152989,None,302.5010506612016,None,302.5010506612016,None,302.5010506612016,None,302.5010506612016,None,302.5010506612016,None,302.5010506612016,None,302.5010506612016,None,306.48588831024244,None,306.48588831024244,None,306.48588831024244,None,306.48588831024244,None,306.48588831024244,None,306.48588831024244,None,306.48588831024244,None,307.48626844899263,None,1.2507305990438908,,,,,,,,,,,,,,,,,,,,,,,,,,,,,,24263,2019_Dec_30_1418,Mmi_3levels,3.1.5,59.9782938786886,
,,,1,1,-1.1,,,,,,,,,0,0,0,0,0,9,9,6,,,,,,,,,,,,,,,,,,,,,,,,,,,,,,,,,,,,,,,,,,,,,,,,,,,,,,,,,,,,,True,False,True,0.84,-0.16000000000000003,-3.0500000000000007,-0.8141666666666667,-1.1,-1.9141666666666668,-1.5070833333333336,gamble,lose,-1.9141666666666668,57.985833333333325,309.5037599494681,None,309.5037599494681,None,309.5037599494681,None,309.5037599494681,None,309.5037599494681,None,309.5037599494681,None,309.5037599494681,None,None,309.5037599494681,None,312.5048859664239,None,312.5048859664239,None,312.5048859664239,None,312.5048859664239,None,312.5048859664239,None,312.5048859664239,None,312.5048859664239,None,316.50634988443926,None,316.50634988443926,None,316.50634988443926,None,316.50634988443926,None,316.50634988443926,None,316.50634988443926,None,316.50634988443926,None,325.99327525659464,None,,317.49003751797136,None,318.4904371754965,None,0.7,7.502724487450905,321.49155551288277,None,None,321.49155551288277,None,,,,,,,,,,,,,,,,,,,24263,2019_Dec_30_1418,Mmi_3levels,3.1.5,59.9782938786886,
,,,1,1,9.7,,,,,,,,,0,0,0,0,0,10,10,10,,,,,,,,,,,,,,,,,,,,,,,,,,,,,,,,,,,,,,,,,,,,,,,,,,,,,,,,,,,,,True,True,True,0.7,-0.30000000000000004,-3.3500000000000005,7.550000000000002,9.7,2.1499999999999977,1.0749999999999988,gamble,win,9.7,67.68583333333332,328.01070852030534,None,328.01070852030534,None,328.01070852030534,None,328.01070852030534,None,328.01070852030534,None,328.01070852030534,None,328.01070852030534,None,1,328.01070852030534,None,329.0610999384662,None,329.0610999384662,None,329.0610999384662,None,329.0610999384662,None,329.0610999384662,None,329.0610999384662,None,329.0610999384662,None,333.0459455871023,None,333.0459455871023,None,333.0459455871023,None,333.0459455871023,None,333.0459455871023,None,333.0459455871023,None,333.0459455871023,None,334.0463279656833,None,1.017264313180931,,,,,,,,,,,,,,,,,,,,,,,,,,,,,,24263,2019_Dec_30_1418,Mmi_3levels,3.1.5,59.9782938786886,
,,,1,1,8.3,,,,,,,,,0,0,0,0,0,11,11,5,,,,,,,,,,,,,,,,,,,,,,,,,,,,,,,,,,,,,,,,,,,,,,,,,,,,,,,,,,,,,True,True,False,0.7,-0.30000000000000004,-3.6500000000000004,7.850000000000001,8.3,0.4499999999999993,0.22499999999999964,gamble,win,8.3,75.98583333333332,336.06381402642,None,336.06381402642,None,336.06381402642,None,336.06381402642,None,336.06381402642,None,336.06381402642,None,336.06381402642,None,1,336.06381402642,None,337.11416352691595,None,337.11416352691595,None,337.11416352691595,None,337.11416352691595,None,337.11416352691595,None,337.11416352691595,None,337.11416352691595,None,341.0990658123046,None,341.0990658123046,None,341.0990658123046,None,341.0990658123046,None,341.0990658123046,None,341.0990658123046,None,341.0990658123046,None,350.60259793454316,None,1.0172607934800908,342.0993752350332,None,343.0997579335235,None,0.81,7.502704008598812,346.1008826706093,None,None,346.1008826706093,None,,,,,,,,,,,,,,,,,,,24263,2019_Dec_30_1418,Mmi_3levels,3.1.5,59.9782938786886,
,,,1,1,7.1,,,,,,,,,0,0,0,0,0,12,12,19,,,,,,,,,,,,,,,,,,,,,,,,,,,,,,,,,,,,,,,,,,,,,,,,,,,,,,,,,,,,,True,True,False,0.81,-0.18999999999999995,-3.8400000000000003,6.5,7.1,0.5999999999999996,0.2999999999999998,gamble,win,7.1,83.08583333333331,352.62008175544906,None,352.62008175544906,None,352.62008175544906,None,352.62008175544906,None,352.62008175544906,None,352.62008175544906,None,352.62008175544906,None,1,352.62008175544906,None,354.220687801484,None,354.220687801484,None,354.220687801484,None,354.220687801484,None,354.220687801484,None,354.220687801484,None,354.220687801484,None,358.2221494796686,None,358.2221494796686,None,358.2221494796686,None,358.2221494796686,None,358.2221494796686,None,358.2221494796686,None,358.2221494796686,None,359.20585503207985,None,1.567515739123337,,,,,,,,,,,,,,,,,,,,,,,,,,,,,,24263,2019_Dec_30_1418,Mmi_3levels,3.1.5,59.9782938786886,
,,,1,1,4.9,,,,,,,,,0,0,0,0,0,13,13,21,,,,,,,,,,,,,,,,,,,,,,,,,,,,,,,,,,,,,,,,,,,,,,,,,,,,,,,,,,,,,True,True,False,0.81,-0.18999999999999995,-4.03,6.6899999999999995,4.9,-1.7899999999999991,1.5550000000000006,certain,certain,1.5550000000000006,84.64083333333332,361.2232863759855,None,361.2232863759855,None,361.2232863759855,None,361.2232863759855,None,361.2232863759855,None,361.2232863759855,None,361.2232863759855,None,3,361.2232863759855,None,363.8409276281018,None,363.8409276281018,None,363.8409276281018,None,363.8409276281018,None,363.8409276281018,None,363.8409276281018,None,363.8409276281018,None,367.8091658867197,None,367.8091658867197,None,367.8091658867197,None,367.8091658867197,None,367.8091658867197,None,367.8091658867197,None,367.8091658867197,None,368.7928196020657,None,2.5512193717295304,,,,,,,,,,,,,,,,,,,,,,,,,,,,,,24263,2019_Dec_30_1418,Mmi_3levels,3.1.5,59.9782938786886,
,,,1,1,4.1,,,,,,,,,0,0,0,0,0,14,14,26,,,,,,,,,,,,,,,,,,,,,,,,,,,,,,,,,,,,,,,,,,,,,,,,,,,,,,,,,,,,,True,True,True,0.81,-0.18999999999999995,-4.220000000000001,6.88,4.1,-2.7800000000000002,0.6599999999999997,gamble,win,4.1,88.74083333333331,370.81030598282814,None,370.81030598282814,None,370.81030598282814,None,370.81030598282814,None,370.81030598282814,None,370.81030598282814,None,370.81030598282814,None,None,370.81030598282814,None,373.81138336251024,None,373.81138336251024,None,373.81138336251024,None,373.81138336251024,None,373.81138336251024,None,373.81138336251024,None,373.81138336251024,None,377.79622901114635,None,377.79622901114635,None,377.79622901114635,None,377.79622901114635,None,377.79622901114635,None,377.79622901114635,None,377.79622901114635,None,387.29982704971917,None,,378.7965851512272,None,379.79703792592045,None,0.81,7.50267521024216,382.7981095458381,None,None,382.7981095458381,None,,,,,,,,,,,,,,,,,,,24263,2019_Dec_30_1418,Mmi_3levels,3.1.5,59.9782938786886,
,,,1,1,12.7,,,,,,,,,0,0,0,0,0,15,15,7,,,,,,,,,,,,,,,,,,,,,,,,,,,,,,,,,,,,,,,,,,,,,,,,,,,,,,,,,,,,,True,True,True,0.81,-0.18999999999999995,-4.41,7.069999999999999,12.7,5.63,2.815,gamble,win,12.7,101.44083333333332,389.3172583935084,None,389.3172583935084,None,389.3172583935084,None,389.3172583935084,None,389.3172583935084,None,389.3172583935084,None,389.3172583935084,None,1,389.3172583935084,None,390.5010263425065,None,390.5010263425065,None,390.5010263425065,None,390.5010263425065,None,390.5010263425065,None,390.5010263425065,None,390.5010263425065,None,394.4859238283243,None,394.4859238283243,None,394.4859238283243,None,394.4859238283243,None,394.4859238283243,None,394.4859238283243,None,394.4859238283243,None,395.4862607694231,None,1.1506674025440589,,,,,,,,,,,,,,,,,,,,,,,,,,,,,,24263,2019_Dec_30_1418,Mmi_3levels,3.1.5,59.9782938786886,
,,,1,1,10.9,,,,,,,,,0,0,0,0,0,16,16,2,,,,,,,,,,,,,,,,,,,,,,,,,,,,,,,,,,,,,,,,,,,,,,,,,,,,,,,,,,,,,True,True,True,0.81,-0.18999999999999995,-4.6,7.259999999999999,10.9,3.6400000000000015,1.8200000000000007,gamble,win,10.9,112.34083333333332,397.50365883507766,None,397.50365883507766,None,397.50365883507766,None,397.50365883507766,None,397.50365883507766,None,397.50365883507766,None,397.50365883507766,None,1,397.50365883507766,None,398.6708027550485,None,398.6708027550485,None,398.6708027550485,None,398.6708027550485,None,398.6708027550485,None,398.6708027550485,None,398.6708027550485,None,402.67231691023335,None,402.67231691023335,None,402.67231691023335,None,402.67231691023335,None,402.67231691023335,None,402.67231691023335,None,402.67231691023335,None,412.1592138040578,None,1.133877302869223,403.656016703113,None,404.6564000416547,None,0.92,7.5027270471910015,407.6575830153888,None,None,407.6575830153888,None,,,,,,,,,,,,,,,,,,,24263,2019_Dec_30_1418,Mmi_3levels,3.1.5,59.9782938786886,
,,,1,1,-1.3,,,,,,,,,0,0,0,0,0,17,17,16,,,,,,,,,,,,,,,,,,,,,,,,,,,,,,,,,,,,,,,,,,,,,,,,,,,,,,,,,,,,,True,False,True,0.92,-0.07999999999999996,-4.68,-0.6699999999999998,-1.3,-1.9699999999999998,-1.6349999999999998,certain,certain,-1.6349999999999998,110.70583333333332,414.1766697865678,None,414.1766697865678,None,414.1766697865678,None,414.1766697865678,None,414.1766697865678,None,414.1766697865678,None,414.1766697865678,None,3,414.1766697865678,None,416.1607545177685,None,416.1607545177685,None,416.1607545177685,None,416.1607545177685,None,416.1607545177685,None,416.1607545177685,None,416.1607545177685,None,420.16231635026634,None,420.16231635026634,None,420.16231635026634,None,420.16231635026634,None,420.16231635026634,None,420.16231635026634,None,420.16231635026634,None,421.1459777452983,None,1.9509944242890924,,,,,,,,,,,,,,,,,,,,,,,,,,,,,,24263,2019_Dec_30_1418,Mmi_3levels,3.1.5,59.9782938786886,
,,,1,1,1.1,,,,,,,,,0,0,0,0,0,18,18,15,,,,,,,,,,,,,,,,,,,,,,,,,,,,,,,,,,,,,,,,,,,,,,,,,,,,,,,,,,,,,True,False,True,0.92,-0.07999999999999996,-4.76,-0.6766666666666665,1.1,0.42333333333333356,0.7616666666666668,gamble,lose,0.42333333333333356,111.12916666666665,423.1634938843781,None,423.1634938843781,None,423.1634938843781,None,423.1634938843781,None,423.1634938843781,None,423.1634938843781,None,423.1634938843781,None,1,423.1634938843781,None,424.413894261932,None,424.413894261932,None,424.413894261932,None,424.413894261932,None,424.413894261932,None,424.413894261932,None,424.413894261932,None,428.39869287319016,None,428.39869287319016,None,428.39869287319016,None,428.39869287319016,None,428.39869287319016,None,428.39869287319016,None,428.39869287319016,None,429.39907365187537,None,1.2172979114111513,,,,,,,,,,,,,,,,,,,,,,,,,,,,,,24263,2019_Dec_30_1418,Mmi_3levels,3.1.5,59.9782938786886,
,,,1,1,3.7,,,,,,,,,0,0,0,0,0,19,19,24,,,,,,,,,,,,,,,,,,,,,,,,,,,,,,,,,,,,,,,,,,,,,,,,,,,,,,,,,,,,,True,False,True,0.92,-0.07999999999999996,-4.84,-0.6833333333333331,3.7,3.016666666666667,1.5083333333333335,gamble,lose,3.016666666666667,114.14583333333331,431.41653123428114,None,431.41653123428114,None,431.41653123428114,None,431.41653123428114,None,431.41653123428114,None,431.41653123428114,None,431.41653123428114,None,1,431.41653123428114,None,432.66706024459563,None,432.66706024459563,None,432.66706024459563,None,432.66706024459563,None,432.66706024459563,None,432.66706024459563,None,432.66706024459563,None,436.65181469835807,None,436.65181469835807,None,436.65181469835807,None,436.65181469835807,None,436.65181469835807,None,436.65181469835807,None,436.65181469835807,None,446.1554680938134,None,1.2174863808322698,437.6522319550859,None,438.6525717759505,None,0.84,7.502782724215649,441.6537022726843,None,None,441.6537022726843,None,,,,,,,,,,,,,,,,,,,24263,2019_Dec_30_1418,Mmi_3levels,3.1.5,59.9782938786886,
,,,1,1,4.5,,,,,,,,,0,0,0,0,0,20,20,22,,,,,,,,,,,,,,,,,,,,,,,,,,,,,,,,,,,,,,,,,,,,,,,,,,,,,,,,,,,,,True,True,False,0.84,-0.16000000000000003,-5.0,7.24,4.5,-2.74,0.8799999999999999,certain,certain,0.8799999999999999,115.02583333333331,448.1728664794937,None,448.1728664794937,None,448.1728664794937,None,448.1728664794937,None,448.1728664794937,None,448.1728664794937,None,448.1728664794937,None,3,448.1728664794937,None,449.9735467614373,None,449.9735467614373,None,449.9735467614373,None,449.9735467614373,None,449.9735467614373,None,449.9735467614373,None,449.9735467614373,None,453.9584128889255,None,453.9584128889255,None,453.9584128889255,None,453.9584128889255,None,453.9584128889255,None,453.9584128889255,None,453.9584128889255,None,454.95875015005004,None,1.7675826153717935,,,,,,,,,,,,,,,,,,,,,,,,,,,,,,24263,2019_Dec_30_1418,Mmi_3levels,3.1.5,59.9782938786886,
,,,1,1,-0.1,,,,,,,,,0,0,0,0,0,21,21,4,,,,,,,,,,,,,,,,,,,,,,,,,,,,,,,,,,,,,,,,,,,,,,,,,,,,,,,,,,,,,True,True,True,0.84,-0.16000000000000003,-5.16,7.4,-0.1,-7.5,-3.8,gamble,win,-0.1,114.92583333333332,456.97622277156916,None,456.97622277156916,None,456.97622277156916,None,456.97622277156916,None,456.97622277156916,None,456.97622277156916,None,456.97622277156916,None,1,456.97622277156916,None,458.810288703884,None,458.810288703884,None,458.810288703884,None,458.810288703884,None,458.810288703884,None,458.810288703884,None,458.810288703884,None,462.81172286358196,None,462.81172286358196,None,462.81172286358196,None,462.81172286358196,None,462.81172286358196,None,462.81172286358196,None,462.81172286358196,None,472.2986971929204,None,1.8010213827947155,463.79542681609746,None,464.79580695484765,None,0.83,7.502785603981465,467.79692593216896,None,None,467.79692593216896,None,,,,,,,,,,,,,,,,,,,24263,2019_Dec_30_1418,Mmi_3levels,3.1.5,59.9782938786886,
,,,1,1,6.3,,,,,,,,,0,0,0,0,0,22,22,11,,,,,,,,,,,,,,,,,,,,,,,,,,,,,,,,,,,,,,,,,,,,,,,,,,,,,,,,,,,,,True,True,True,0.83,-0.17000000000000004,-5.33,7.710000000000001,6.3,-1.410000000000001,-0.7050000000000005,gamble,win,6.3,121.22583333333331,474.3161358963698,None,474.3161358963698,None,474.3161358963698,None,474.3161358963698,None,474.3161358963698,None,474.3161358963698,None,474.3161358963698,None,1,474.3161358963698,None,476.1167598614702,None,476.1167598614702,None,476.1167598614702,None,476.1167598614702,None,476.1167598614702,None,476.1167598614702,None,476.1167598614702,None,480.11832425382454,None,480.11832425382454,None,480.11832425382454,None,480.11832425382454,None,480.11832425382454,None,480.11832425382454,None,480.11832425382454,None,481.1020208467962,None,1.7675957345636562,,,,,,,,,,,,,,,,,,,,,,,,,,,,,,24263,2019_Dec_30_1418,Mmi_3levels,3.1.5,59.9782938786886,
,,,1,1,13.3,,,,,,,,,0,0,0,0,0,23,23,25,,,,,,,,,,,,,,,,,,,,,,,,,,,,,,,,,,,,,,,,,,,,,,,,,,,,,,,,,,,,,True,False,False,0.83,-0.17000000000000004,-5.5,-1.0533333333333335,13.3,12.246666666666668,6.123333333333334,gamble,lose,12.246666666666668,133.47249999999997,483.1194947483018,None,483.1194947483018,None,483.1194947483018,None,483.1194947483018,None,483.1194947483018,None,483.1194947483018,None,483.1194947483018,None,1,483.1194947483018,None,484.35324517823756,None,484.35324517823756,None,484.35324517823756,None,484.35324517823756,None,484.35324517823756,None,484.35324517823756,None,484.35324517823756,None,488.3547410945175,None,488.3547410945175,None,488.3547410945175,None,488.3547410945175,None,488.3547410945175,None,488.3547410945175,None,488.3547410945175,None,497.8416530274553,None,1.2006863616406918,489.3384492069017,None,490.33882582571823,None,0.84,7.502846080577001,493.3399934404297,None,None,493.3399934404297,None,,,,,,,,,,,,,,,,,,,24263,2019_Dec_30_1418,Mmi_3levels,3.1.5,59.9782938786886,
,,,1,1,-1.5,,,,,,,,,0,0,0,0,0,24,24,14,,,,,,,,,,,,,,,,,,,,,,,,,,,,,,,,,,,,,,,,,,,,,,,,,,,,,,,,,,,,,True,True,True,0.84,-0.16000000000000003,-5.66,7.9,-1.5,-9.4,-5.45,gamble,win,-1.5,131.97249999999997,499.85913556837477,None,499.85913556837477,None,499.85913556837477,None,499.85913556837477,None,499.85913556837477,None,499.85913556837477,None,499.85913556837477,None,1,499.85913556837477,None,501.7431276649004,None,501.7431276649004,None,501.7431276649004,None,501.7431276649004,None,501.7431276649004,None,501.7431276649004,None,501.7431276649004,None,505.74469973682426,None,505.74469973682426,None,505.74469973682426,None,505.74469973682426,None,505.74469973682426,None,505.74469973682426,None,505.74469973682426,None,506.7283518522745,None,1.8508973097195849,,,,,,,,,,,,,,,,,,,,,,,,,,,,,,24263,2019_Dec_30_1418,Mmi_3levels,3.1.5,59.9782938786886,
,,,1,1,-0.3,,,,,,,,,0,0,0,0,0,25,25,20,,,,,,,,,,,,,,,,,,,,,,,,,,,,,,,,,,,,,,,,,,,,,,,,,,,,,,,,,,,,,True,False,True,0.84,-0.16000000000000003,-5.82,-1.0450000000000002,-0.3,-1.3450000000000002,-0.8225000000000001,certain,certain,-0.8225000000000001,131.14999999999998,508.7458119945368,None,508.7458119945368,None,508.7458119945368,None,508.7458119945368,None,508.7458119945368,None,508.7458119945368,None,508.7458119945368,None,3,508.7458119945368,None,511.39679025975056,None,511.39679025975056,None,511.39679025975056,None,511.39679025975056,None,511.39679025975056,None,511.39679025975056,None,511.39679025975056,None,515.3983575319871,None,515.3983575319871,None,515.3983575319871,None,515.3983575319871,None,515.3983575319871,None,515.3983575319871,None,515.3983575319871,None,516.3820083675673,None,2.617915796698071,,,,,,,,,,,,,,,,,,,,,,,,,,,,,,24263,2019_Dec_30_1418,Mmi_3levels,3.1.5,59.9782938786886,
,,,1,1,12.3,,,,,,,,,0,0,0,0,0,26,26,0,,,,,,,,,,,,,,,,,,,,,,,,,,,,,,,,,,,,,,,,,,,,,,,,,,,,,,,,,,,,,True,True,True,0.84,-0.16000000000000003,-5.98,8.22,12.3,4.08,2.04,gamble,win,12.3,143.45,518.3994397113565,None,518.3994397113565,None,518.3994397113565,None,518.3994397113565,None,518.3994397113565,None,518.3994397113565,None,518.3994397113565,None,1,518.3994397113565,None,519.4831838217797,None,519.4831838217797,None,519.4831838217797,None,519.4831838217797,None,519.4831838217797,None,519.4831838217797,None,519.4831838217797,None,523.4680528290337,None,523.4680528290337,None,523.4680528290337,None,523.4680528290337,None,523.4680528290337,None,523.4680528290337,None,523.4680528290337,None,532.9716844656505,None,1.0506925211520866,524.46840192948,None,525.4687795083737,None,0.83,7.5027830441249534,528.4699077651603,None,None,528.4699077651603,None,,,,,,,,,,,,,,,,,,,24263,2019_Dec_30_1418,Mmi_3levels,3.1.5,59.9782938786886,
,,,2,0,0.3,,,,,,,,,0,1,1,1,0,0,0,26,,,,,,,,,,,,,,,,,,,,,,,,,,,,,,,,,,,,,,,,,,,,,,,,,540.957964914036,None,0.93,5.534125928883441,543.9758291936014,None,4,2.5009367475286126,543.9758291936014,None,546.4933899701573,None,False,True,False,0.93,0.93,0.93,-13.950000000000001,0.3,-13.65,-6.675,gamble,lose,-13.65,129.79999999999998,549.5278773189057,None,549.5278773189057,None,549.5278773189057,None,549.5278773189057,None,549.5278773189057,None,549.5278773189057,None,549.5278773189057,None,1,549.5278773189057,None,551.9455841672607,None,551.9455841672607,None,551.9455841672607,None,551.9455841672607,None,551.9455841672607,None,551.9455841672607,None,551.9455841672607,None,555.9469879287062,None,555.9469879287062,None,555.9469879287062,None,555.9469879287062,None,555.9469879287062,None,555.9469879287062,None,555.9469879287062,None,556.9307513979729,None,2.3845416656695306,,,,,,,,,,,,534.9723775468301,None,4,5.969132288591936,534.9723775468301,None,,,,,,,,,,,,,24263,2019_Dec_30_1418,Mmi_3levels,3.1.5,59.9782938786886,
,,,2,0,1.9,,,,,,,,,0,1,1,1,0,1,1,13,,,,,,,,,,,,,,,,,,,,,,,,,,,,,,,,,,,,,,,,,,,,,,,,,,,,,,,,,,,,,False,True,True,0.93,0.93,1.86,-14.88,1.9,-12.98,-5.54,certain,certain,-5.54,124.25999999999998,558.9481321845669,None,558.9481321845669,None,558.9481321845669,None,558.9481321845669,None,558.9481321845669,None,558.9481321845669,None,558.9481321845669,None,3,558.9481321845669,None,560.6820974826114,None,560.6820974826114,None,560.6820974826114,None,560.6820974826114,None,560.6820974826114,None,560.6820974826114,None,560.6820974826114,None,564.6836308366619,None,564.6836308366619,None,564.6836308366619,None,564.6836308366619,None,564.6836308366619,None,564.6836308366619,None,564.6836308366619,None,574.1705546089215,None,1.7009485869202763,565.6673379890854,None,566.6677142879926,None,0.63,7.502734726876952,569.6688361451961,None,None,569.6688361451961,None,,,,,,,,,,,,,,,,,,,24263,2019_Dec_30_1418,Mmi_3levels,3.1.5,59.9782938786886,
,,,2,0,7.7,,,,,,,,,0,1,1,1,0,2,2,14,,,,,,,,,,,,,,,,,,,,,,,,,,,,,,,,,,,,,,,,,,,,,,,,,,,,,,,,,,,,,False,True,True,0.63,0.63,2.49,-11.31,7.7,-3.6100000000000003,-1.8050000000000002,gamble,lose,-3.6100000000000003,120.64999999999998,576.1879846728407,None,576.1879846728407,None,576.1879846728407,None,576.1879846728407,None,576.1879846728407,None,576.1879846728407,None,576.1879846728407,None,1,576.1879846728407,None,577.4718337373342,None,577.4718337373342,None,577.4718337373342,None,577.4718337373342,None,577.4718337373342,None,577.4718337373342,None,577.4718337373342,None,581.4733251738362,None,581.4733251738362,None,581.4733251738362,None,581.4733251738362,None,581.4733251738362,None,581.4733251738362,None,581.4733251738362,None,582.4570246466901,None,1.2507357187569141,,,,,,,,,,,,,,,,,,,,,,,,,,,,,,24263,2019_Dec_30_1418,Mmi_3levels,3.1.5,59.9782938786886,
,,,2,0,0.1,,,,,,,,,0,1,1,1,0,3,3,19,,,,,,,,,,,,,,,,,,,,,,,,,,,,,,,,,,,,,,,,,,,,,,,,,,,,,,,,,,,,,False,True,True,0.63,0.63,3.12,-11.940000000000001,0.1,-11.840000000000002,-5.870000000000001,certain,certain,-5.870000000000001,114.77999999999997,584.4745641443878,None,584.4745641443878,None,584.4745641443878,None,584.4745641443878,None,584.4745641443878,None,584.4745641443878,None,584.4745641443878,None,3,584.4745641443878,None,586.0751132336445,None,586.0751132336445,None,586.0751132336445,None,586.0751132336445,None,586.0751132336445,None,586.0751132336445,None,586.0751132336445,None,590.0765755517641,None,590.0765755517641,None,590.0765755517641,None,590.0765755517641,None,590.0765755517641,None,590.0765755517641,None,590.0765755517641,None,599.563513083267,None,1.5674079051241279,591.0602919836529,None,592.060666362755,None,0.51,7.50277792441193,595.0617946195416,None,None,595.0617946195416,None,,,,,,,,,,,,,,,,,,,24263,2019_Dec_30_1418,Mmi_3levels,3.1.5,59.9782938786886,
,,,2,0,9.5,,,,,,,,,0,1,1,1,0,4,4,17,,,,,,,,,,,,,,,,,,,,,,,,,,,,,,,,,,,,,,,,,,,,,,,,,,,,,,,,,,,,,False,True,False,0.51,0.51,3.63,-10.77,9.5,-1.2699999999999996,-0.6349999999999998,gamble,lose,-1.2699999999999996,113.50999999999998,601.5809901845641,None,601.5809901845641,None,601.5809901845641,None,601.5809901845641,None,601.5809901845641,None,601.5809901845641,None,601.5809901845641,None,1,601.5809901845641,None,602.964828529628,None,602.964828529628,None,602.964828529628,None,602.964828529628,None,602.964828529628,None,602.964828529628,None,602.964828529628,None,606.966306526796,None,606.966306526796,None,606.966306526796,None,606.966306526796,None,606.966306526796,None,606.966306526796,None,606.966306526796,None,607.9501096738968,None,1.3505922069307417,,,,,,,,,,,,,,,,,,,,,,,,,,,,,,24263,2019_Dec_30_1418,Mmi_3levels,3.1.5,59.9782938786886,
,,,2,0,13.3,,,,,,,,,0,1,1,1,0,5,5,6,,,,,,,,,,,,,,,,,,,,,,,,,,,,,,,,,,,,,,,,,,,,,,,,,,,,,,,,,,,,,False,True,True,0.51,0.51,4.14,-11.280000000000001,13.3,2.0199999999999996,1.0099999999999998,gamble,lose,2.0199999999999996,115.52999999999997,609.9674943003338,None,609.9674943003338,None,609.9674943003338,None,609.9674943003338,None,609.9674943003338,None,609.9674943003338,None,609.9674943003338,None,1,609.9674943003338,None,611.2012476101518,None,611.2012476101518,None,611.2012476101518,None,611.2012476101518,None,611.2012476101518,None,611.2012476101518,None,611.2012476101518,None,615.1861402961658,None,615.1861402961658,None,615.1861402961658,None,615.1861402961658,None,615.1861402961658,None,615.1861402961658,None,615.1861402961658,None,616.1864628380863,None,1.2005289304070175,,,,,,,,,,,,,,,,,,,,,,,,,,,,,,24263,2019_Dec_30_1418,Mmi_3levels,3.1.5,59.9782938786886,
,,,2,0,9.1,,,,,,,,,0,1,1,1,0,6,6,16,,,,,,,,,,,,,,,,,,,,,,,,,,,,,,,,,,,,,,,,,,,,,,,,,,,,,,,,,,,,,False,True,False,0.51,0.51,4.6499999999999995,-11.79,9.1,-2.6899999999999995,-1.3449999999999998,gamble,lose,-2.6899999999999995,112.83999999999997,618.2039037813665,None,618.2039037813665,None,618.2039037813665,None,618.2039037813665,None,618.2039037813665,None,618.2039037813665,None,618.2039037813665,None,1,618.2039037813665,None,619.6044272721047,None,619.6044272721047,None,619.6044272721047,None,619.6044272721047,None,619.6044272721047,None,619.6044272721047,None,619.6044272721047,None,623.6059510267805,None,623.6059510267805,None,623.6059510267805,None,623.6059510267805,None,623.6059510267805,None,623.6059510267805,None,623.6059510267805,None,633.0928674394963,None,1.3674936603056267,624.5896975370124,None,625.5900223187637,None,0.43,7.5027731247246265,628.5911489756545,None,None,628.5911489756545,None,,,,,,,,,,,,,,,,,,,24263,2019_Dec_30_1418,Mmi_3levels,3.1.5,59.9782938786886,
,,,2,0,2.3,,,,,,,,,0,1,1,1,0,7,7,1,,,,,,,,,,,,,,,,,,,,,,,,,,,,,,,,,,,,,,,,,,,,,,,,,,,,,,,,,,,,,False,True,True,0.43,0.43,5.079999999999999,-11.099999999999998,2.3,-8.799999999999997,-3.2499999999999987,gamble,lose,-8.799999999999997,104.03999999999998,635.1103362211725,None,635.1103362211725,None,635.1103362211725,None,635.1103362211725,None,635.1103362211725,None,635.1103362211725,None,635.1103362211725,None,1,635.1103362211725,None,637.2110944187734,None,637.2110944187734,None,637.2110944187734,None,637.2110944187734,None,637.2110944187734,None,637.2110944187734,None,637.2110944187734,None,641.2126060141018,None,641.2126060141018,None,641.2126060141018,None,641.2126060141018,None,641.2126060141018,None,641.2126060141018,None,641.2126060141018,None,642.1963656435255,None,2.0677206875989214,,,,,,,,,,,,,,,,,,,,,,,,,,,,,,24263,2019_Dec_30_1418,Mmi_3levels,3.1.5,59.9782938786886,
,,,2,0,-0.7,,,,,,,,,0,1,1,1,0,8,8,0,,,,,,,,,,,,,,,,,,,,,,,,,,,,,,,,,,,,,,,,,,,,,,,,,,,,,,,,,,,,,False,False,False,0.43,0.43,5.509999999999999,1.9641666666666664,-0.175,-2.139166666666666,-1.157083333333333,gamble,win,-0.175,103.86499999999998,644.2137483501574,None,644.2137483501574,None,644.2137483501574,None,644.2137483501574,None,644.2137483501574,None,644.2137483501574,None,644.2137483501574,None,1,644.2137483501574,None,646.3812448902754,None,646.3812448902754,None,646.3812448902754,None,646.3812448902754,None,646.3812448902754,None,646.3812448902754,None,646.3812448902754,None,650.3827449663077,None,650.3827449663077,None,650.3827449663077,None,650.3827449663077,None,650.3827449663077,None,650.3827449663077,None,650.3827449663077,None,659.8696706584888,None,2.1343892741715536,651.3664521187311,None,652.3668828145601,None,0.49,7.502325789770111,655.3679544345941,None,None,655.3679544345941,None,,,,,,,,,,,,,,,,,,,24263,2019_Dec_30_1418,Mmi_3levels,3.1.5,59.9782938786886,
,,,2,0,6.7,,,,,,,,,0,1,1,1,0,9,9,4,,,,,,,,,,,,,,,,,,,,,,,,,,,,,,,,,,,,,,,,,,,,,,,,,,,,,,,,,,,,,False,True,False,0.49,0.49,5.999999999999999,-12.86,6.7,-6.159999999999999,0.27000000000000046,gamble,lose,-6.159999999999999,97.70499999999998,661.8871279208688,None,661.8871279208688,None,661.8871279208688,None,661.8871279208688,None,661.8871279208688,None,661.8871279208688,None,661.8871279208688,None,1,661.8871279208688,None,663.3543702352326,None,663.3543702352326,None,663.3543702352326,None,663.3543702352326,None,663.3543702352326,None,663.3543702352326,None,663.3543702352326,None,667.3558936699992,None,667.3558936699992,None,667.3558936699992,None,667.3558936699992,None,667.3558936699992,None,667.3558936699992,None,667.3558936699992,None,668.3395691441838,None,1.4341734462650493,,,,,,,,,,,,,,,,,,,,,,,,,,,,,,24263,2019_Dec_30_1418,Mmi_3levels,3.1.5,59.9782938786886,
,,,2,0,-1.5,,,,,,,,,0,1,1,1,0,10,10,9,,,,,,,,,,,,,,,,,,,,,,,,,,,,,,,,,,,,,,,,,,,,,,,,,,,,,,,,,,,,,False,False,True,0.49,0.49,6.489999999999999,2.2558333333333334,-0.375,-2.6308333333333334,-1.5029166666666667,certain,certain,-1.5029166666666667,96.20208333333332,670.357082083472,None,670.357082083472,None,670.357082083472,None,670.357082083472,None,670.357082083472,None,670.357082083472,None,670.357082083472,None,3,670.357082083472,None,672.657843480818,None,672.657843480818,None,672.657843480818,None,672.657843480818,None,672.657843480818,None,672.657843480818,None,672.657843480818,None,676.6593832345679,None,676.6593832345679,None,676.6593832345679,None,676.6593832345679,None,676.6593832345679,None,676.6593832345679,None,676.6593832345679,None,677.6430667082313,None,2.2677181276958436,,,,,,,,,,,,,,,,,,,,,,,,,,,,,,24263,2019_Dec_30_1418,Mmi_3levels,3.1.5,59.9782938786886,
,,,2,0,1.1,,,,,,,,,0,1,1,1,0,11,11,25,,,,,,,,,,,,,,,,,,,,,,,,,,,,,,,,,,,,,,,,,,,,,,,,,,,,,,,,,,,,,False,True,False,0.49,0.49,6.9799999999999995,-13.84,1.1,-12.74,-5.82,gamble,lose,-12.74,83.46208333333333,679.6605482893065,None,679.6605482893065,None,679.6605482893065,None,679.6605482893065,None,679.6605482893065,None,679.6605482893065,None,679.6605482893065,None,None,679.6605482893065,None,682.6616253489628,None,682.6616253489628,None,682.6616253489628,None,682.6616253489628,None,682.6616253489628,None,682.6616253489628,None,682.6616253489628,None,686.6631468638079,None,686.6631468638079,None,686.6631468638079,None,686.6631468638079,None,686.6631468638079,None,686.6631468638079,None,686.6631468638079,None,696.1501560712932,None,,687.6469272921095,None,688.6472341548651,None,0.26,7.502788163837977,691.6483723311685,None,None,691.6483723311685,None,,,,,,,,,,,,,,,,,,,24263,2019_Dec_30_1418,Mmi_3levels,3.1.5,59.9782938786886,
,,,2,0,2.5,,,,,,,,,0,1,1,1,0,12,12,2,,,,,,,,,,,,,,,,,,,,,,,,,,,,,,,,,,,,,,,,,,,,,,,,,,,,,,,,,,,,,False,True,False,0.26,0.26,7.239999999999999,-10.879999999999999,2.5,-8.379999999999999,-2.9399999999999995,gamble,lose,-8.379999999999999,75.08208333333333,698.1675602166215,None,698.1675602166215,None,698.1675602166215,None,698.1675602166215,None,698.1675602166215,None,698.1675602166215,None,698.1675602166215,None,1,698.1675602166215,None,700.2849693216849,None,700.2849693216849,None,700.2849693216849,None,700.2849693216849,None,700.2849693216849,None,700.2849693216849,None,700.2849693216849,None,704.2865151552251,None,704.2865151552251,None,704.2865151552251,None,704.2865151552251,None,704.2865151552251,None,704.2865151552251,None,704.2865151552251,None,705.2702059884323,None,2.084307598765008,,,,,,,,,,,,,,,,,,,,,,,,,,,,,,24263,2019_Dec_30_1418,Mmi_3levels,3.1.5,59.9782938786886,
,,,2,0,0.5,,,,,,,,,0,1,1,1,0,13,13,12,,,,,,,,,,,,,,,,,,,,,,,,,,,,,,,,,,,,,,,,,,,,,,,,,,,,,,,,,,,,,False,True,False,0.26,0.26,7.499999999999999,-11.139999999999999,0.5,-10.639999999999999,-5.069999999999999,gamble,lose,-10.639999999999999,64.44208333333333,707.2876232530689,None,707.2876232530689,None,707.2876232530689,None,707.2876232530689,None,707.2876232530689,None,707.2876232530689,None,707.2876232530689,None,1,707.2876232530689,None,709.0549601222156,None,709.0549601222156,None,709.0549601222156,None,709.0549601222156,None,709.0549601222156,None,709.0549601222156,None,709.0549601222156,None,713.0565341140609,None,713.0565341140609,None,713.0565341140609,None,713.0565341140609,None,713.0565341140609,None,713.0565341140609,None,713.0565341140609,None,722.5433993296465,None,1.734257441596128,714.0401763101108,None,715.0405542090302,None,0.0,7.502728647086769,718.0416783060646,None,None,718.0416783060646,None,,,,,,,,,,,,,,,,,,,24263,2019_Dec_30_1418,Mmi_3levels,3.1.5,59.9782938786886,
,,,2,0,-1.3,,,,,,,,,0,1,1,1,0,14,14,24,,,,,,,,,,,,,,,,,,,,,,,,,,,,,,,,,,,,,,,,,,,,,,,,,,,,,,,,,,,,,False,False,True,0.0,0.0,7.499999999999999,0.6249999999999999,-0.325,-0.95,-0.6375,gamble,win,-0.325,64.11708333333333,724.5608789908001,None,724.5608789908001,None,724.5608789908001,None,724.5608789908001,None,724.5608789908001,None,724.5608789908001,None,724.5608789908001,None,1,724.5608789908001,None,726.4282304190565,None,726.4282304190565,None,726.4282304190565,None,726.4282304190565,None,726.4282304190565,None,726.4282304190565,None,726.4282304190565,None,730.413056228892,None,730.413056228892,None,730.413056228892,None,730.413056228892,None,730.413056228892,None,730.413056228892,None,730.413056228892,None,731.4134258081904,None,1.834219523705542,,,,,,,,,,,,,,,,,,,,,,,,,,,,,,24263,2019_Dec_30_1418,Mmi_3levels,3.1.5,59.9782938786886,
,,,2,0,4.5,,,,,,,,,0,1,1,1,0,15,15,20,,,,,,,,,,,,,,,,,,,,,,,,,,,,,,,,,,,,,,,,,,,,,,,,,,,,,,,,,,,,,False,True,False,0.0,0.0,7.499999999999999,-7.499999999999999,4.5,-2.999999999999999,0.7500000000000004,certain,certain,0.7500000000000004,64.86708333333333,733.4308523522923,None,733.4308523522923,None,733.4308523522923,None,733.4308523522923,None,733.4308523522923,None,733.4308523522923,None,733.4308523522923,None,3,733.4308523522923,None,735.2649051652988,None,735.2649051652988,None,735.2649051652988,None,735.2649051652988,None,735.2649051652988,None,735.2649051652988,None,735.2649051652988,None,739.2497236154741,None,739.2497236154741,None,739.2497236154741,None,739.2497236154741,None,739.2497236154741,None,739.2497236154741,None,739.2497236154741,None,748.7533718912164,None,1.8009529067203403,740.2501021543285,None,741.2504810130922,None,0.37,7.502718087867834,744.2516646267613,None,None,744.2516646267613,None,,,,,,,,,,,,,,,,,,,24263,2019_Dec_30_1418,Mmi_3levels,3.1.5,59.9782938786886,
,,,2,0,0.9,,,,,,,,,0,1,1,1,0,16,16,22,,,,,,,,,,,,,,,,,,,,,,,,,,,,,,,,,,,,,,,,,,,,,,,,,,,,,,,,,,,,,False,True,False,0.37,0.37,7.869999999999999,-13.049999999999999,0.9,-12.149999999999999,-5.624999999999999,gamble,lose,-12.149999999999999,52.71708333333333,750.7707513979403,None,750.7707513979403,None,750.7707513979403,None,750.7707513979403,None,750.7707513979403,None,750.7707513979403,None,750.7707513979403,None,1,750.7707513979403,None,752.7715379139408,None,752.7715379139408,None,752.7715379139408,None,752.7715379139408,None,752.7715379139408,None,752.7715379139408,None,752.7715379139408,None,756.7730200708611,None,756.7730200708611,None,756.7730200708611,None,756.7730200708611,None,756.7730200708611,None,756.7730200708611,None,756.7730200708611,None,757.7567409825278,None,1.967692369245924,,,,,,,,,,,,,,,,,,,,,,,,,,,,,,24263,2019_Dec_30_1418,Mmi_3levels,3.1.5,59.9782938786886,
,,,2,0,5.1,,,,,,,,,0,1,1,1,0,17,17,21,,,,,,,,,,,,,,,,,,,,,,,,,,,,,,,,,,,,,,,,,,,,,,,,,,,,,,,,,,,,,False,True,True,0.37,0.37,8.239999999999998,-13.419999999999998,5.1,-8.319999999999999,-1.6099999999999994,gamble,lose,-8.319999999999999,44.39708333333333,759.7742075243732,None,759.7742075243732,None,759.7742075243732,None,759.7742075243732,None,759.7742075243732,None,759.7742075243732,None,759.7742075243732,None,1,759.7742075243732,None,761.5748426888604,None,761.5748426888604,None,761.5748426888604,None,761.5748426888604,None,761.5748426888604,None,761.5748426888604,None,761.5748426888604,None,765.576357804006,None,765.576357804006,None,765.576357804006,None,765.576357804006,None,765.576357804006,None,765.576357804006,None,765.576357804006,None,766.5600575967692,None,1.7675995744066313,,,,,,,,,,,,,,,,,,,,,,,,,,,,,,24263,2019_Dec_30_1418,Mmi_3levels,3.1.5,59.9782938786886,
,,,2,0,3.9,,,,,,,,,0,1,1,1,0,18,18,7,,,,,,,,,,,,,,,,,,,,,,,,,,,,,,,,,,,,,,,,,,,,,,,,,,,,,,,,,,,,,False,True,False,0.37,0.37,8.609999999999998,-13.789999999999997,3.9,-9.889999999999997,-2.9949999999999983,gamble,lose,-9.889999999999997,34.50708333333333,768.5774995000102,None,768.5774995000102,None,768.5774995000102,None,768.5774995000102,None,768.5774995000102,None,768.5774995000102,None,768.5774995000102,None,1,768.5774995000102,None,770.6949351635994,None,770.6949351635994,None,770.6949351635994,None,770.6949351635994,None,770.6949351635994,None,770.6949351635994,None,770.6949351635994,None,774.6965283544268,None,774.6965283544268,None,774.6965283544268,None,774.6965283544268,None,774.6965283544268,None,774.6965283544268,None,774.6965283544268,None,784.1834156487603,None,2.084395593847148,775.6801807899028,None,776.6806415640749,None,0.0,7.502619213308208,779.6817384626484,None,None,779.6817384626484,None,,,,,,,,,,,,,,,,,,,24263,2019_Dec_30_1418,Mmi_3levels,3.1.5,59.9782938786886,
,,,2,0,-0.1,,,,,,,,,0,1,1,1,0,19,19,15,,,,,,,,,,,,,,,,,,,,,,,,,,,,,,,,,,,,,,,,,,,,,,,,,,,,,,,,,,,,,False,False,False,0.0,0.0,8.609999999999998,0.7174999999999998,-0.025,-0.7424999999999998,-0.3837499999999999,certain,certain,-0.3837499999999999,34.12333333333333,786.2008485924453,None,786.2008485924453,None,786.2008485924453,None,786.2008485924453,None,786.2008485924453,None,786.2008485924453,None,786.2008485924453,None,3,786.2008485924453,None,788.7018000591779,None,788.7018000591779,None,788.7018000591779,None,788.7018000591779,None,788.7018000591779,None,788.7018000591779,None,788.7018000591779,None,792.686645707814,None,792.686645707814,None,792.686645707814,None,792.686645707814,None,792.686645707814,None,792.686645707814,None,792.686645707814,None,793.6870143272681,None,2.467825001804158,,,,,,,,,,,,,,,,,,,,,,,,,,,,,,24263,2019_Dec_30_1418,Mmi_3levels,3.1.5,59.9782938786886,
,,,2,0,11.9,,,,,,,,,0,1,1,1,0,20,20,8,,,,,,,,,,,,,,,,,,,,,,,,,,,,,,,,,,,,,,,,,,,,,,,,,,,,,,,,,,,,,False,True,True,0.0,0.0,8.609999999999998,-8.609999999999998,11.9,3.2900000000000027,1.6450000000000014,gamble,lose,3.2900000000000027,37.41333333333333,795.7044283919968,None,795.7044283919968,None,795.7044283919968,None,795.7044283919968,None,795.7044283919968,None,795.7044283919968,None,795.7044283919968,None,1,795.7044283919968,None,797.305053316988,None,797.305053316988,None,797.305053316988,None,797.305053316988,None,797.305053316988,None,797.305053316988,None,797.305053316988,None,801.306548593333,None,801.306548593333,None,801.306548593333,None,801.306548593333,None,801.306548593333,None,801.306548593333,None,801.306548593333,None,810.7935206828406,None,1.567671570344828,802.2902563856915,None,803.2906534834765,None,0.41,7.502790403668769,806.2917545418022,None,None,806.2917545418022,None,,,,,,,,,,,,,,,,,,,24263,2019_Dec_30_1418,Mmi_3levels,3.1.5,59.9782938786886,
,,,2,0,2.7,,,,,,,,,0,1,1,1,0,21,21,11,,,,,,,,,,,,,,,,,,,,,,,,,,,,,,,,,,,,,,,,,,,,,,,,,,,,,,,,,,,,,False,True,False,0.41,0.41,9.019999999999998,-14.759999999999998,2.7,-12.059999999999999,-4.68,certain,certain,-4.68,32.73333333333333,812.8109056293033,None,812.8109056293033,None,812.8109056293033,None,812.8109056293033,None,812.8109056293033,None,812.8109056293033,None,812.8109056293033,None,3,812.8109056293033,None,815.4452371466905,None,815.4452371466905,None,815.4452371466905,None,815.4452371466905,None,815.4452371466905,None,815.4452371466905,None,815.4452371466905,None,819.4301269529387,None,819.4301269529387,None,819.4301269529387,None,819.4301269529387,None,819.4301269529387,None,819.4301269529387,None,819.4301269529387,None,820.430451094755,None,2.6012520898366347,,,,,,,,,,,,,,,,,,,,,,,,,,,,,,24263,2019_Dec_30_1418,Mmi_3levels,3.1.5,59.9782938786886,
,,,2,0,-0.5,,,,,,,,,0,1,1,1,0,22,22,5,,,,,,,,,,,,,,,,,,,,,,,,,,,,,,,,,,,,,,,,,,,,,,,,,,,,,,,,,,,,,False,True,False,0.41,0.41,9.429999999999998,-15.169999999999998,-0.5,-15.669999999999998,-8.084999999999999,gamble,lose,-15.669999999999998,17.06333333333333,822.4478862783872,None,822.4478862783872,None,822.4478862783872,None,822.4478862783872,None,822.4478862783872,None,822.4478862783872,None,822.4478862783872,None,1,822.4478862783872,None,824.6320970825618,None,824.6320970825618,None,824.6320970825618,None,824.6320970825618,None,824.6320970825618,None,824.6320970825618,None,824.6320970825618,None,828.6335606806679,None,828.6335606806679,None,828.6335606806679,None,828.6335606806679,None,828.6335606806679,None,828.6335606806679,None,828.6335606806679,None,838.1204809331102,None,2.151069940184243,829.6173103906913,None,830.6176962889731,None,0.0,7.50268640962895,833.6187669490464,None,None,833.6187669490464,None,,,,,,,,,,,,,,,,,,,24263,2019_Dec_30_1418,Mmi_3levels,3.1.5,59.9782938786886,
,,,2,0,-0.9,,,,,,,,,0,1,1,1,0,23,23,3,,,,,,,,,,,,,,,,,,,,,,,,,,,,,,,,,,,,,,,,,,,,,,,,,,,,,,,,,,,,,False,False,False,0.0,0.0,9.429999999999998,0.7858333333333332,-0.225,-1.0108333333333333,-0.6179166666666667,gamble,win,-0.225,16.838333333333328,840.1379618741339,None,840.1379618741339,None,840.1379618741339,None,840.1379618741339,None,840.1379618741339,None,840.1379618741339,None,840.1379618741339,None,1,840.1379618741339,None,842.8556112857768,None,842.8556112857768,None,842.8556112857768,None,842.8556112857768,None,842.8556112857768,None,842.8556112857768,None,842.8556112857768,None,846.840471013682,None,846.840471013682,None,846.840471013682,None,846.840471013682,None,846.840471013682,None,846.840471013682,None,846.840471013682,None,847.8408287536586,None,2.6845738239353523,,,,,,,,,,,,,,,,,,,,,,,,,,,,,,24263,2019_Dec_30_1418,Mmi_3levels,3.1.5,59.9782938786886,
,,,2,0,7.1,,,,,,,,,0,1,1,1,0,24,24,23,,,,,,,,,,,,,,,,,,,,,,,,,,,,,,,,,,,,,,,,,,,,,,,,,,,,,,,,,,,,,False,False,True,0.0,0.0,9.429999999999998,0.7858333333333332,1.775,0.9891666666666667,1.3820833333333333,gamble,win,1.775,18.613333333333326,849.8583122545388,None,849.8583122545388,None,849.8583122545388,None,849.8583122545388,None,849.8583122545388,None,849.8583122545388,None,849.8583122545388,None,1,849.8583122545388,None,851.7589798971312,None,851.7589798971312,None,851.7589798971312,None,851.7589798971312,None,851.7589798971312,None,851.7589798971312,None,851.7589798971312,None,855.743878022884,None,855.743878022884,None,855.743878022884,None,855.743878022884,None,855.743878022884,None,855.743878022884,None,855.743878022884,None,856.744203124661,None,1.8676387722371146,,,,,,,,,,,,,,,,,,,,,,,,,,,,,,24263,2019_Dec_30_1418,Mmi_3levels,3.1.5,59.9782938786886,
,,,2,0,10.3,,,,,,,,,0,1,1,1,0,25,25,10,,,,,,,,,,,,,,,,,,,,,,,,,,,,,,,,,,,,,,,,,,,,,,,,,,,,,,,,,,,,,False,True,False,0.0,0.0,9.429999999999998,-9.429999999999998,10.3,0.8700000000000028,0.4350000000000014,gamble,lose,0.8700000000000028,19.483333333333327,858.7616802259581,None,858.7616802259581,None,858.7616802259581,None,858.7616802259581,None,858.7616802259581,None,858.7616802259581,None,858.7616802259581,None,1,858.7616802259581,None,860.0788042269414,None,860.0788042269414,None,860.0788042269414,None,860.0788042269414,None,860.0788042269414,None,860.0788042269414,None,860.0788042269414,None,864.0636799539207,None,864.0636799539207,None,864.0636799539207,None,864.0636799539207,None,864.0636799539207,None,864.0636799539207,None,864.0636799539207,None,873.5672370347893,None,1.2840148152317852,865.0640706520062,None,866.0644127129344,None,0.29,7.502696648938581,869.0655156911816,None,None,869.0655156911816,None,,,,,,,,,,,,,,,,,,,24263,2019_Dec_30_1418,Mmi_3levels,3.1.5,59.9782938786886,
,,,2,0,2.1,,,,,,,,,0,1,1,1,0,26,26,18,,,,,,,,,,,,,,,,,,,,,,,,,,,,,,,,,,,,,,,,,,,,,,,,,,,,,,,,,,,,,False,False,False,0.29,0.29,9.719999999999997,1.8249999999999997,0.525,-1.2999999999999998,-0.3874999999999999,certain,certain,-0.3874999999999999,19.095833333333328,875.5846610190347,None,875.5846610190347,None,875.5846610190347,None,875.5846610190347,None,875.5846610190347,None,875.5846610190347,None,875.5846610190347,None,3,875.5846610190347,None,878.2190482133301,None,878.2190482133301,None,878.2190482133301,None,878.2190482133301,None,878.2190482133301,None,878.2190482133301,None,878.2190482133301,None,882.2038900221232,None,882.2038900221232,None,882.2038900221232,None,882.2038900221232,None,882.2038900221232,None,882.2038900221232,None,882.2038900221232,None,883.2042276032735,None,2.601357363979332,,,,,,,,,,,,,,,,,,,,,,,,,,,,,,24263,2019_Dec_30_1418,Mmi_3levels,3.1.5,59.9782938786886,
,,,3,1,-1.1,,,,,,,,,0,2,2,2,0,0,0,17,,,,,,,,,,,,,,,,,,,,,,,,,,,,,,,,,,,,,,,,,,,,,,,,,886.9222958714236,None,0.2,5.03443423169665,889.9234126089141,None,4,2.0176870095310733,889.9234126089141,None,891.9575514971511,None,True,False,True,0.2,-0.8,-0.8,-2.866666666666667,-1.1,-3.9666666666666672,-2.5333333333333337,gamble,lose,-3.9666666666666672,15.129166666666661,894.9920823634602,None,894.9920823634602,None,894.9920823634602,None,894.9920823634602,None,894.9920823634602,None,894.9920823634602,None,894.9920823634602,None,1,894.9920823634602,None,896.5093113186304,None,896.5093113186304,None,896.5093113186304,None,896.5093113186304,None,896.5093113186304,None,896.5093113186304,None,896.5093113186304,None,900.5107729966985,None,900.5107729966985,None,900.5107729966985,None,900.5107729966985,None,900.5107729966985,None,900.5107729966985,None,900.5107729966985,None,909.9976996488404,None,1.4841175293549895,901.4945351860952,None,902.4948759669205,None,0.18,7.502671050373465,905.49598310492,None,None,905.49598310492,None,885.2049667618703,None,4,1.7008801107294858,885.2049667618703,None,,,,,,,,,,,,,24263,2019_Dec_30_1418,Mmi_3levels,3.1.5,59.9782938786886,
,,,3,1,1.7,,,,,,,,,0,2,2,2,0,1,1,23,,,,,,,,,,,,,,,,,,,,,,,,,,,,,,,,,,,,,,,,,,,,,,,,,,,,,,,,,,,,,True,True,False,0.18,-0.8200000000000001,-1.62,13.100000000000001,1.7,-11.400000000000002,-4.850000000000001,certain,certain,-4.850000000000001,10.27916666666666,912.0151239531115,None,912.0151239531115,None,912.0151239531115,None,912.0151239531115,None,912.0151239531115,None,912.0151239531115,None,912.0151239531115,None,3,912.0151239531115,None,914.4494068332715,None,914.4494068332715,None,914.4494068332715,None,914.4494068332715,None,914.4494068332715,None,914.4494068332715,None,914.4494068332715,None,918.4509213084821,None,918.4509213084821,None,918.4509213084821,None,918.4509213084821,None,918.4509213084821,None,918.4509213084821,None,918.4509213084821,None,919.4345974226017,None,2.401176254148595,,,,,,,,,,,,,,,,,,,,,,,,,,,,,,24263,2019_Dec_30_1418,Mmi_3levels,3.1.5,59.9782938786886,
,,,3,1,0.3,,,,,,,,,0,2,2,2,0,2,2,9,,,,,,,,,,,,,,,,,,,,,,,,,,,,,,,,,,,,,,,,,,,,,,,,,,,,,,,,,,,,,True,True,False,0.18,-0.8200000000000001,-2.4400000000000004,13.920000000000002,0.3,-13.620000000000001,-6.66,gamble,win,0.3,10.57916666666666,921.4520566049032,None,921.4520566049032,None,921.4520566049032,None,921.4520566049032,None,921.4520566049032,None,921.4520566049032,None,921.4520566049032,None,1,921.4520566049032,None,924.4365525130415,None,924.4365525130415,None,924.4365525130415,None,924.4365525130415,None,924.4365525130415,None,924.4365525130415,None,924.4365525130415,None,928.438003311865,None,928.438003311865,None,928.438003311865,None,928.438003311865,None,928.438003311865,None,928.438003311865,None,928.438003311865,None,929.4217117441585,None,2.9513758429093286,,,,,,,,,,,,,,,,,,,,,,,,,,,,,,24263,2019_Dec_30_1418,Mmi_3levels,3.1.5,59.9782938786886,
,,,3,1,8.3,,,,,,,,,0,2,2,2,0,3,3,24,,,,,,,,,,,,,,,,,,,,,,,,,,,,,,,,,,,,,,,,,,,,,,,,,,,,,,,,,,,,,True,False,True,0.18,-0.8200000000000001,-3.2600000000000007,-3.1416666666666666,8.3,5.158333333333334,2.579166666666667,gamble,lose,5.158333333333334,15.737499999999994,931.439146607765,None,931.439146607765,None,931.439146607765,None,931.439146607765,None,931.439146607765,None,931.439146607765,None,931.439146607765,None,1,931.439146607765,None,932.6896701784572,None,932.6896701784572,None,932.6896701784572,None,932.6896701784572,None,932.6896701784572,None,932.6896701784572,None,932.6896701784572,None,936.6744623901322,None,936.6744623901322,None,936.6744623901322,None,936.6744623901322,None,936.6744623901322,None,936.6744623901322,None,936.6744623901322,None,946.1780617085751,None,1.2173846265068278,937.6748383690137,None,938.675219147699,None,0.33,7.502734086941928,941.6763934820192,None,None,941.6763934820192,None,,,,,,,,,,,,,,,,,,,24263,2019_Dec_30_1418,Mmi_3levels,3.1.5,59.9782938786886,
,,,3,1,4.3,,,,,,,,,0,2,2,2,0,4,4,1,,,,,,,,,,,,,,,,,,,,,,,,,,,,,,,,,,,,,,,,,,,,,,,,,,,,,,,,,,,,,True,True,False,0.33,-0.6699999999999999,-3.9300000000000006,13.309999999999999,4.3,-9.009999999999998,-2.354999999999999,gamble,win,4.3,20.037499999999994,948.1955391297815,None,948.1955391297815,None,948.1955391297815,None,948.1955391297815,None,948.1955391297815,None,948.1955391297815,None,948.1955391297815,None,1,948.1955391297815,None,950.0462102122838,None,950.0462102122838,None,950.0462102122838,None,950.0462102122838,None,950.0462102122838,None,950.0462102122838,None,950.0462102122838,None,954.0477525258902,None,954.0477525258902,None,954.0477525258902,None,954.0477525258902,None,954.0477525258902,None,954.0477525258902,None,954.0477525258902,None,955.031449758797,None,1.8176150135695934,,,,,,,,,,,,,,,,,,,,,,,,,,,,,,24263,2019_Dec_30_1418,Mmi_3levels,3.1.5,59.9782938786886,
,,,3,1,9.1,,,,,,,,,0,2,2,2,0,5,5,14,,,,,,,,,,,,,,,,,,,,,,,,,,,,,,,,,,,,,,,,,,,,,,,,,,,,,,,,,,,,,True,True,True,0.33,-0.6699999999999999,-4.6000000000000005,13.98,9.1,-4.880000000000001,-2.4400000000000004,gamble,win,9.1,29.137499999999996,957.0488401449984,None,957.0488401449984,None,957.0488401449984,None,957.0488401449984,None,957.0488401449984,None,957.0488401449984,None,957.0488401449984,None,1,957.0488401449984,None,958.466062860447,None,958.466062860447,None,958.466062860447,None,958.466062860447,None,958.466062860447,None,958.466062860447,None,958.466062860447,None,962.4509337877389,None,962.4509337877389,None,962.4509337877389,None,962.4509337877389,None,962.4509337877389,None,962.4509337877389,None,962.4509337877389,None,971.9545359859476,None,1.384119289345108,963.4513091266854,None,964.4516406281618,None,0.48,7.502838081098162,967.4527653651312,None,None,967.4527653651312,None,,,,,,,,,,,,,,,,,,,24263,2019_Dec_30_1418,Mmi_3levels,3.1.5,59.9782938786886,
,,,3,1,8.9,,,,,,,,,0,2,2,2,0,6,6,16,,,,,,,,,,,,,,,,,,,,,,,,,,,,,,,,,,,,,,,,,,,,,,,,,,,,,,,,,,,,,True,True,False,0.48,-0.52,-5.120000000000001,12.400000000000002,8.9,-3.5000000000000018,-1.7500000000000009,gamble,win,8.9,38.037499999999994,973.9719967681449,None,973.9719967681449,None,973.9719967681449,None,973.9719967681449,None,973.9719967681449,None,973.9719967681449,None,973.9719967681449,None,1,973.9719967681449,None,976.089406193234,None,976.089406193234,None,976.089406193234,None,976.089406193234,None,976.089406193234,None,976.089406193234,None,976.089406193234,None,980.0908992296318,None,980.0908992296318,None,980.0908992296318,None,980.0908992296318,None,980.0908992296318,None,980.0908992296318,None,980.0908992296318,None,981.0746415801113,None,2.0841412080917507,,,,,,,,,,,,,,,,,,,,,,,,,,,,,,24263,2019_Dec_30_1418,Mmi_3levels,3.1.5,59.9782938786886,
,,,3,1,8.7,,,,,,,,,0,2,2,2,0,7,7,12,,,,,,,,,,,,,,,,,,,,,,,,,,,,,,,,,,,,,,,,,,,,,,,,,,,,,,,,,,,,,True,True,False,0.48,-0.52,-5.640000000000001,12.920000000000002,8.7,-4.220000000000002,-2.110000000000001,gamble,win,8.7,46.7375,983.0920914829476,None,983.0920914829476,None,983.0920914829476,None,983.0920914829476,None,983.0920914829476,None,983.0920914829476,None,983.0920914829476,None,1,983.0920914829476,None,984.4092199637089,None,984.4092199637089,None,984.4092199637089,None,984.4092199637089,None,984.4092199637089,None,984.4092199637089,None,984.4092199637089,None,988.3940380938584,None,988.3940380938584,None,988.3940380938584,None,988.3940380938584,None,988.3940380938584,None,988.3940380938584,None,988.3940380938584,None,997.8976786900312,None,1.284034014097415,989.3944163126871,None,990.3947913317243,None,0.54,7.502779204398394,993.3959157487843,None,None,993.3959157487843,None,,,,,,,,,,,,,,,,,,,24263,2019_Dec_30_1418,Mmi_3levels,3.1.5,59.9782938786886,
,,,3,1,7.7,,,,,,,,,0,2,2,2,0,8,8,2,,,,,,,,,,,,,,,,,,,,,,,,,,,,,,,,,,,,,,,,,,,,,,,,,,,,,,,,,,,,,True,True,True,0.54,-0.45999999999999996,-6.1000000000000005,12.54,7.7,-4.839999999999999,1.4300000000000006,gamble,win,7.7,54.4375,999.9150633164681,None,999.9150633164681,None,999.9150633164681,None,999.9150633164681,None,999.9150633164681,None,999.9150633164681,None,999.9150633164681,None,1,999.9150633164681,None,1001.8491610869532,None,1001.8491610869532,None,1001.8491610869532,None,1001.8491610869532,None,1001.8491610869532,None,1001.8491610869532,None,1001.8491610869532,None,1005.8506506035337,None,1005.8506506035337,None,1005.8506506035337,None,1005.8506506035337,None,1005.8506506035337,None,1005.8506506035337,None,1005.8506506035337,None,1006.8344076732174,None,1.9009866646956652,,,,,,,,,,,,,,,,,,,,,,,,,,,,,,24263,2019_Dec_30_1418,Mmi_3levels,3.1.5,59.9782938786886,
,,,3,1,4.5,,,,,,,,,0,2,2,2,0,9,9,15,,,,,,,,,,,,,,,,,,,,,,,,,,,,,,,,,,,,,,,,,,,,,,,,,,,,,,,,,,,,,True,False,True,0.54,-0.45999999999999996,-6.5600000000000005,-2.1566666666666667,4.5,2.3433333333333333,1.1716666666666666,gamble,lose,2.3433333333333333,56.780833333333334,1008.8517827001633,None,1008.8517827001633,None,1008.8517827001633,None,1008.8517827001633,None,1008.8517827001633,None,1008.8517827001633,None,1008.8517827001633,None,1,1008.8517827001633,None,1010.2856841617031,None,1010.2856841617031,None,1010.2856841617031,None,1010.2856841617031,None,1010.2856841617031,None,1010.2856841617031,None,1010.2856841617031,None,1014.2705176509917,None,1014.2705176509917,None,1014.2705176509917,None,1014.2705176509917,None,1014.2705176509917,None,1014.2705176509917,None,1014.2705176509917,None,1015.270927868085,None,1.4008137143682688,,,,,,,,,,,,,,,,,,,,,,,,,,,,,,24263,2019_Dec_30_1418,Mmi_3levels,3.1.5,59.9782938786886,
,,,3,1,10.3,,,,,,,,,0,2,2,2,0,10,10,5,,,,,,,,,,,,,,,,,,,,,,,,,,,,,,,,,,,,,,,,,,,,,,,,,,,,,,,,,,,,,True,True,False,0.54,-0.45999999999999996,-7.0200000000000005,13.46,10.3,-3.16,-1.58,gamble,win,10.3,67.08083333333333,1017.2883348932955,None,1017.2883348932955,None,1017.2883348932955,None,1017.2883348932955,None,1017.2883348932955,None,1017.2883348932955,None,1017.2883348932955,None,1,1017.2883348932955,None,1019.2223757070024,None,1019.2223757070024,None,1019.2223757070024,None,1019.2223757070024,None,1019.2223757070024,None,1019.2223757070024,None,1019.2223757070024,None,1023.2239148208173,None,1023.2239148208173,None,1023.2239148208173,None,1023.2239148208173,None,1023.2239148208173,None,1023.2239148208173,None,1023.2239148208173,None,1032.7108475525165,None,1.9010065036127344,1024.2075970146107,None,1025.2080129912356,None,0.63,7.50269024935551,1028.2090980504872,None,None,1028.2090980504872,None,,,,,,,,,,,,,,,,,,,24263,2019_Dec_30_1418,Mmi_3levels,3.1.5,59.9782938786886,
,,,3,1,13.7,,,,,,,,,0,2,2,2,0,11,11,26,,,,,,,,,,,,,,,,,,,,,,,,,,,,,,,,,,,,,,,,,,,,,,,,,,,,,,,,,,,,,True,True,True,0.63,-0.37,-7.390000000000001,12.57,13.7,1.129999999999999,0.5649999999999995,gamble,win,13.7,80.78083333333333,1034.7282689769054,None,1034.7282689769054,None,1034.7282689769054,None,1034.7282689769054,None,1034.7282689769054,None,1034.7282689769054,None,1034.7282689769054,None,1,1034.7282689769054,None,1036.1121015623212,None,1036.1121015623212,None,1036.1121015623212,None,1036.1121015623212,None,1036.1121015623212,None,1036.1121015623212,None,1036.1121015623212,None,1040.096941771335,None,1040.096941771335,None,1040.096941771335,None,1040.096941771335,None,1040.096941771335,None,1040.096941771335,None,1040.096941771335,None,1041.0973734271247,None,1.3507441983092576,,,,,,,,,,,,,,,,,,,,,,,,,,,,,,24263,2019_Dec_30_1418,Mmi_3levels,3.1.5,59.9782938786886,
,,,3,1,12.9,,,,,,,,,0,2,2,2,0,12,12,0,,,,,,,,,,,,,,,,,,,,,,,,,,,,,,,,,,,,,,,,,,,,,,,,,,,,,,,,,,,,,True,True,True,0.63,-0.37,-7.760000000000001,12.940000000000001,12.9,-0.040000000000000924,-0.020000000000000462,gamble,win,12.9,93.68083333333334,1043.1147702129092,None,1043.1147702129092,None,1043.1147702129092,None,1043.1147702129092,None,1043.1147702129092,None,1043.1147702129092,None,1043.1147702129092,None,1,1043.1147702129092,None,1044.6486651147716,None,1044.6486651147716,None,1044.6486651147716,None,1044.6486651147716,None,1044.6486651147716,None,1044.6486651147716,None,1044.6486651147716,None,1048.6335475613596,None,1048.6335475613596,None,1048.6335475613596,None,1048.6335475613596,None,1048.6335475613596,None,1048.6335475613596,None,1048.6335475613596,None,1058.1371046421118,None,1.5008036349900067,1049.633892182028,None,1050.6343372771516,None,0.64,7.502869119285606,1053.6354447350604,None,None,1053.6354447350604,None,,,,,,,,,,,,,,,,,,,24263,2019_Dec_30_1418,Mmi_3levels,3.1.5,59.9782938786886,
,,,3,1,3.9,,,,,,,,,0,2,2,2,0,13,13,8,,,,,,,,,,,,,,,,,,,,,,,,,,,,,,,,,,,,,,,,,,,,,,,,,,,,,,,,,,,,,True,True,False,0.64,-0.36,-8.120000000000001,13.16,3.9,-9.26,-2.6799999999999997,certain,certain,-2.6799999999999997,91.00083333333333,1060.1545337460702,None,1060.1545337460702,None,1060.1545337460702,None,1060.1545337460702,None,1060.1545337460702,None,1060.1545337460702,None,1060.1545337460702,None,3,1060.1545337460702,None,1062.6721636388684,None,1062.6721636388684,None,1062.6721636388684,None,1062.6721636388684,None,1062.6721636388684,None,1062.6721636388684,None,1062.6721636388684,None,1066.6737382706488,None,1066.6737382706488,None,1066.6737382706488,None,1066.6737382706488,None,1066.6737382706488,None,1066.6737382706488,None,1066.6737382706488,None,1067.6573695873376,None,2.4843869543401524,,,,,,,,,,,,,,,,,,,,,,,,,,,,,,24263,2019_Dec_30_1418,Mmi_3levels,3.1.5,59.9782938786886,
,,,3,1,5.9,,,,,,,,,0,2,2,2,0,14,14,21,,,,,,,,,,,,,,,,,,,,,,,,,,,,,,,,,,,,,,,,,,,,,,,,,,,,,,,,,,,,,True,False,False,0.64,-0.36,-8.48,-1.9666666666666668,5.9,3.9333333333333336,1.9666666666666668,gamble,lose,3.9333333333333336,94.93416666666667,1069.6748364492087,None,1069.6748364492087,None,1069.6748364492087,None,1069.6748364492087,None,1069.6748364492087,None,1069.6748364492087,None,1069.6748364492087,None,1,1069.6748364492087,None,1070.6751881095115,None,1070.6751881095115,None,1070.6751881095115,None,1070.6751881095115,None,1070.6751881095115,None,1070.6751881095115,None,1070.6751881095115,None,1074.6767045045272,None,1074.6767045045272,None,1074.6767045045272,None,1074.6767045045272,None,1074.6767045045272,None,1074.6767045045272,None,1074.6767045045272,None,1075.6603962978115,None,0.967261033365503,,,,,,,,,,,,,,,,,,,,,,,,,,,,,,24263,2019_Dec_30_1418,Mmi_3levels,3.1.5,59.9782938786886,
,,,3,1,5.5,,,,,,,,,0,2,2,2,0,15,15,18,,,,,,,,,,,,,,,,,,,,,,,,,,,,,,,,,,,,,,,,,,,,,,,,,,,,,,,,,,,,,True,False,False,0.64,-0.36,-8.84,-1.9966666666666666,5.5,3.5033333333333334,1.7516666666666667,gamble,lose,3.5033333333333334,98.4375,1077.6778382010525,None,1077.6778382010525,None,1077.6778382010525,None,1077.6778382010525,None,1077.6778382010525,None,1077.6778382010525,None,1077.6778382010525,None,1,1077.6778382010525,None,1078.8283062548144,None,1078.8283062548144,None,1078.8283062548144,None,1078.8283062548144,None,1078.8283062548144,None,1078.8283062548144,None,1078.8283062548144,None,1082.8298261697637,None,1082.8298261697637,None,1082.8298261697637,None,1082.8298261697637,None,1082.8298261697637,None,1082.8298261697637,None,1082.8298261697637,None,1092.3167582615279,None,1.1173671875149012,1083.8135416416917,None,1084.8138686633902,None,0.69,7.502718087751418,1087.814995960216,None,None,1087.814995960216,None,,,,,,,,,,,,,,,,,,,24263,2019_Dec_30_1418,Mmi_3levels,3.1.5,59.9782938786886,
,,,3,1,9.9,,,,,,,,,0,2,2,2,0,16,16,10,,,,,,,,,,,,,,,,,,,,,,,,,,,,,,,,,,,,,,,,,,,,,,,,,,,,,,,,,,,,,True,True,True,0.69,-0.31000000000000005,-9.15,13.490000000000002,9.9,-3.5900000000000016,-1.7950000000000008,gamble,win,9.9,108.3375,1094.3341969649773,None,1094.3341969649773,None,1094.3341969649773,None,1094.3341969649773,None,1094.3341969649773,None,1094.3341969649773,None,1094.3341969649773,None,1,1094.3341969649773,None,1096.1348228498828,None,1096.1348228498828,None,1096.1348228498828,None,1096.1348228498828,None,1096.1348228498828,None,1096.1348228498828,None,1096.1348228498828,None,1100.1363968418445,None,1100.1363968418445,None,1100.1363968418445,None,1100.1363968418445,None,1100.1363968418445,None,1100.1363968418445,None,1100.1363968418445,None,1101.1200444775168,None,1.7675490173278376,,,,,,,,,,,,,,,,,,,,,,,,,,,,,,24263,2019_Dec_30_1418,Mmi_3levels,3.1.5,59.9782938786886,
,,,3,1,-0.3,,,,,,,,,0,2,2,2,0,17,17,25,,,,,,,,,,,,,,,,,,,,,,,,,,,,,,,,,,,,,,,,,,,,,,,,,,,,,,,,,,,,,True,False,True,0.69,-0.31000000000000005,-9.46,-1.8733333333333335,-0.3,-2.1733333333333333,-1.2366666666666666,gamble,lose,-2.1733333333333333,106.16416666666667,1103.1375180589966,None,1103.1375180589966,None,1103.1375180589966,None,1103.1375180589966,None,1103.1375180589966,None,1103.1375180589966,None,1103.1375180589966,None,1,1103.1375180589966,None,1105.9552450663177,None,1105.9552450663177,None,1105.9552450663177,None,1105.9552450663177,None,1105.9552450663177,None,1105.9552450663177,None,1105.9552450663177,None,1109.956761141424,None,1109.956761141424,None,1109.956761141424,None,1109.956761141424,None,1109.956761141424,None,1109.956761141424,None,1109.956761141424,None,1119.4436497156275,None,2.7846027822233737,1110.9404375755694,None,1111.940864111646,None,0.65,7.502619853243232,1114.9419363716152,None,None,1114.9419363716152,None,,,,,,,,,,,,,,,,,,,24263,2019_Dec_30_1418,Mmi_3levels,3.1.5,59.9782938786886,
,,,3,1,3.5,,,,,,,,,0,2,2,2,0,18,18,6,,,,,,,,,,,,,,,,,,,,,,,,,,,,,,,,,,,,,,,,,,,,,,,,,,,,,,,,,,,,,True,True,True,0.65,-0.35,-9.81,14.71,3.5,-11.21,-3.8550000000000004,gamble,win,3.5,109.66416666666667,1121.461136736325,None,1121.461136736325,None,1121.461136736325,None,1121.461136736325,None,1121.461136736325,None,1121.461136736325,None,1121.461136736325,None,None,1121.461136736325,None,1124.462218595785,None,1124.462218595785,None,1124.462218595785,None,1124.462218595785,None,1124.462218595785,None,1124.462218595785,None,1124.462218595785,None,1128.4637791484129,None,1128.4637791484129,None,1128.4637791484129,None,1128.4637791484129,None,1128.4637791484129,None,1128.4637791484129,None,1128.4637791484129,None,1129.4474315838888,None,,,,,,,,,,,,,,,,,,,,,,,,,,,,,,,24263,2019_Dec_30_1418,Mmi_3levels,3.1.5,59.9782938786886,
,,,3,1,13.1,,,,,,,,,0,2,2,2,0,19,19,11,,,,,,,,,,,,,,,,,,,,,,,,,,,,,,,,,,,,,,,,,,,,,,,,,,,,,,,,,,,,,True,True,False,0.65,-0.35,-10.16,15.059999999999999,13.1,-1.959999999999999,-0.9799999999999995,gamble,win,13.1,122.76416666666667,1131.4648670874303,None,1131.4648670874303,None,1131.4648670874303,None,1131.4648670874303,None,1131.4648670874303,None,1131.4648670874303,None,1131.4648670874303,None,1,1131.4648670874303,None,1132.9487619093852,None,1132.9487619093852,None,1132.9487619093852,None,1132.9487619093852,None,1132.9487619093852,None,1132.9487619093852,None,1132.9487619093852,None,1136.9502584656002,None,1136.9502584656002,None,1136.9502584656002,None,1136.9502584656002,None,1136.9502584656002,None,1136.9502584656002,None,1136.9502584656002,None,1146.4372014367254,None,1.4509200284956023,1137.9339880166808,None,1138.9343678354053,None,0.77,7.5027462461730465,1141.9354868127266,None,None,1141.9354868127266,None,,,,,,,,,,,,,,,,,,,24263,2019_Dec_30_1418,Mmi_3levels,3.1.5,59.9782938786886,
,,,3,1,12.7,,,,,,,,,0,2,2,2,0,20,20,4,,,,,,,,,,,,,,,,,,,,,,,,,,,,,,,,,,,,,,,,,,,,,,,,,,,,,,,,,,,,,True,False,False,0.77,-0.22999999999999998,-10.39,-1.6708333333333334,12.7,11.029166666666665,5.5145833333333325,gamble,lose,11.029166666666665,133.79333333333332,1148.4546347004361,None,1148.4546347004361,None,1148.4546347004361,None,1148.4546347004361,None,1148.4546347004361,None,1148.4546347004361,None,1148.4546347004361,None,1,1148.4546347004361,None,1149.5550457175123,None,1149.5550457175123,None,1149.5550457175123,None,1149.5550457175123,None,1149.5550457175123,None,1149.5550457175123,None,1149.5550457175123,None,1153.5566133096581,None,1153.5566133096581,None,1153.5566133096581,None,1153.5566133096581,None,1153.5566133096581,None,1153.5566133096581,None,1153.5566133096581,None,1154.5403207821073,None,1.0673267897218466,,,,,,,,,,,,,,,,,,,,,,,,,,,,,,24263,2019_Dec_30_1418,Mmi_3levels,3.1.5,59.9782938786886,
,,,3,1,5.1,,,,,,,,,0,2,2,2,0,21,21,3,,,,,,,,,,,,,,,,,,,,,,,,,,,,,,,,,,,,,,,,,,,,,,,,,,,,,,,,,,,,,True,True,False,0.77,-0.22999999999999998,-10.620000000000001,13.84,5.1,-8.74,-1.8200000000000003,certain,certain,-1.8200000000000003,131.97333333333333,1156.5577278073179,None,1156.5577278073179,None,1156.5577278073179,None,1156.5577278073179,None,1156.5577278073179,None,1156.5577278073179,None,1156.5577278073179,None,3,1156.5577278073179,None,1158.3417687009787,None,1158.3417687009787,None,1158.3417687009787,None,1158.3417687009787,None,1158.3417687009787,None,1158.3417687009787,None,1158.3417687009787,None,1162.343223019503,None,1162.343223019503,None,1162.343223019503,None,1162.343223019503,None,1162.343223019503,None,1162.343223019503,None,1162.343223019503,None,1163.32692761207,None,1.7508053148631006,,,,,,,,,,,,,,,,,,,,,,,,,,,,,,24263,2019_Dec_30_1418,Mmi_3levels,3.1.5,59.9782938786886,
,,,3,1,12.5,,,,,,,,,0,2,2,2,0,22,22,7,,,,,,,,,,,,,,,,,,,,,,,,,,,,,,,,,,,,,,,,,,,,,,,,,,,,,,,,,,,,,True,False,True,0.77,-0.22999999999999998,-10.850000000000001,-1.7091666666666667,12.5,10.790833333333333,5.395416666666667,gamble,lose,10.790833333333333,142.76416666666665,1165.3443618357414,None,1165.3443618357414,None,1165.3443618357414,None,1165.3443618357414,None,1165.3443618357414,None,1165.3443618357414,None,1165.3443618357414,None,1,1165.3443618357414,None,1166.3280936267693,None,1166.3280936267693,None,1166.3280936267693,None,1166.3280936267693,None,1166.3280936267693,None,1166.3280936267693,None,1166.3280936267693,None,1170.329606502084,None,1170.329606502084,None,1170.329606502084,None,1170.329606502084,None,1170.329606502084,None,1170.329606502084,None,1170.329606502084,None,1179.8165536329616,None,0.9506754021858796,1171.3133277336601,None,1172.3136611549417,None,0.7,7.502779844333418,1175.3148409288842,None,None,1175.3148409288842,None,,,,,,,,,,,,,,,,,,,24263,2019_Dec_30_1418,Mmi_3levels,3.1.5,59.9782938786886,
,,,3,1,7.9,,,,,,,,,0,2,2,2,0,23,23,22,,,,,,,,,,,,,,,,,,,,,,,,,,,,,,,,,,,,,,,,,,,,,,,,,,,,,,,,,,,,,True,False,False,0.7,-0.30000000000000004,-11.150000000000002,-1.979166666666667,7.9,5.920833333333333,2.9604166666666667,gamble,lose,5.920833333333333,148.68499999999997,1181.8339353796327,None,1181.8339353796327,None,1181.8339353796327,None,1181.8339353796327,None,1181.8339353796327,None,1181.8339353796327,None,1181.8339353796327,None,1,1181.8339353796327,None,1182.8509891446447,None,1182.8509891446447,None,1182.8509891446447,None,1182.8509891446447,None,1182.8509891446447,None,1182.8509891446447,None,1182.8509891446447,None,1186.8358914301498,None,1186.8358914301498,None,1186.8358914301498,None,1186.8358914301498,None,1186.8358914301498,None,1186.8358914301498,None,1186.8358914301498,None,1187.8362088523572,None,0.9839672978268936,,,,,,,,,,,,,,,,,,,,,,,,,,,,,,24263,2019_Dec_30_1418,Mmi_3levels,3.1.5,59.9782938786886,
,,,3,1,6.5,,,,,,,,,0,2,2,2,0,24,24,19,,,,,,,,,,,,,,,,,,,,,,,,,,,,,,,,,,,,,,,,,,,,,,,,,,,,,,,,,,,,,True,True,True,0.7,-0.30000000000000004,-11.450000000000003,15.650000000000004,6.5,-9.150000000000004,-1.325000000000002,certain,certain,-1.325000000000002,147.35999999999999,1189.8536443558987,None,1189.8536443558987,None,1189.8536443558987,None,1189.8536443558987,None,1189.8536443558987,None,1189.8536443558987,None,1189.8536443558987,None,3,1189.8536443558987,None,1191.7043915940449,None,1191.7043915940449,None,1191.7043915940449,None,1191.7043915940449,None,1191.7043915940449,None,1191.7043915940449,None,1191.7043915940449,None,1195.7059111889685,None,1195.7059111889685,None,1195.7059111889685,None,1195.7059111889685,None,1195.7059111889685,None,1195.7059111889685,None,1195.7059111889685,None,1205.1927786443848,None,1.8176390121225268,1196.6895601046272,None,1197.6899415232474,None,0.74,7.502800643211231,1200.6910429015988,None,None,1200.6910429015988,None,,,,,,,,,,,,,,,,,,,24263,2019_Dec_30_1418,Mmi_3levels,3.1.5,59.9782938786886,
,,,3,1,7.1,,,,,,,,,0,2,2,2,0,25,25,20,,,,,,,,,,,,,,,,,,,,,,,,,,,,,,,,,,,,,,,,,,,,,,,,,,,,,,,,,,,,,True,True,False,0.74,-0.26,-11.710000000000003,15.350000000000003,7.1,-8.250000000000004,-0.575000000000002,certain,certain,-0.575000000000002,146.785,1207.2102627853164,None,1207.2102627853164,None,1207.2102627853164,None,1207.2102627853164,None,1207.2102627853164,None,1207.2102627853164,None,1207.2102627853164,None,3,1207.2102627853164,None,1208.5774889406748,None,1208.5774889406748,None,1208.5774889406748,None,1208.5774889406748,None,1208.5774889406748,None,1208.5774889406748,None,1208.5774889406748,None,1212.5789672578685,None,1212.5789672578685,None,1212.5789672578685,None,1212.5789672578685,None,1212.5789672578685,None,1212.5789672578685,None,1212.5789672578685,None,1213.56261265371,None,1.3340833713300526,,,,,,,,,,,,,,,,,,,,,,,,,,,,,,24263,2019_Dec_30_1418,Mmi_3levels,3.1.5,59.9782938786886,
,,,3,1,2.9,,,,,,,,,0,2,2,2,0,26,26,13,,,,,,,,,,,,,,,,,,,,,,,,,,,,,,,,,,,,,,,,,,,,,,,,,,,,,,,,,,,,,True,False,False,0.74,-0.26,-11.970000000000002,-1.9075000000000002,2.9,0.9924999999999997,1.9462499999999998,gamble,lose,0.9924999999999997,147.7775,1215.5800497572636,None,1215.5800497572636,None,1215.5800497572636,None,1215.5800497572636,None,1215.5800497572636,None,1215.5800497572636,None,1215.5800497572636,None,1,1215.5800497572636,None,1216.6638114665402,None,1216.6638114665402,None,1216.6638114665402,None,1216.6638114665402,None,1216.6638114665402,None,1216.6638114665402,None,1216.6638114665402,None,1220.6486299167154,None,1220.6486299167154,None,1220.6486299167154,None,1220.6486299167154,None,1220.6486299167154,None,1220.6486299167154,None,1220.6486299167154,None,1230.1523233099142,None,1.0506714023649693,1221.6490561328828,None,1222.6493930739816,None,0.66,7.502776324516162,1225.6505104514072,None,None,1225.6505104514072,None,,,,,,,,,,,,,,,,,,,24263,2019_Dec_30_1418,Mmi_3levels,3.1.5,59.9782938786886,
,,,,,,,,,,,,,,,,,,,,,,,,,,,,,,0,0,0,0,,,,,,,,,,,,,,,,,,,,,,,,,,,,,,,,,,,,,,,,,,,,,,,,,,,,,,,,,,,,,,,,,,,,,,,,,,,,,,,,,,,,,,,,,,,,,,,,,,,,,,,,,,,,,,,,,,,,,,,,,,1232.1529767133761,None,4,8.303418848547153,1232.1529767133761,None,147.7775,4,1240.489474029513,None,1240.489474029513,None,1240.489474029513,None,4,6.769434671732597,1240.489474029513,None,24263,2019_Dec_30_1418,Mmi_3levels,3.1.5,59.9782938786886,
