currSlide,currImage,currText,blockNum,targetHappiness,highAmount,instructionLoop1.thisRepN,instructionLoop1.thisTrialN,instructionLoop1.thisN,instructionLoop1.thisIndex,instructionLoop2.thisRepN,instructionLoop2.thisTrialN,instructionLoop2.thisN,instructionLoop2.thisIndex,blockLoop.thisRepN,blockLoop.thisTrialN,blockLoop.thisN,blockLoop.thisIndex,trialLoop.thisRepN,trialLoop.thisTrialN,trialLoop.thisN,trialLoop.thisIndex,doRatingLoop.thisRepN,doRatingLoop.thisTrialN,doRatingLoop.thisN,doRatingLoop.thisIndex,trialHappyLoop.thisRepN,trialHappyLoop.thisTrialN,trialHappyLoop.thisN,trialHappyLoop.thisIndex,logWinningsLoop.thisRepN,logWinningsLoop.thisTrialN,logWinningsLoop.thisN,logWinningsLoop.thisIndex,instrImage.started,instrImage.stopped,instrText.started,instrText.stopped,instrContinueText.started,instrContinueText.stopped,instrKeyResp.keys,instrKeyResp.rt,instrKeyResp.started,instrKeyResp.stopped,lifeHappyText.started,lifeHappyText.stopped,lifeHappySlider.response,lifeHappySlider.rt,lifeHappySlider.started,lifeHappySlider.stopped,lifeHappyResp.keys,lifeHappyResp.rt,lifeHappyResp.started,lifeHappyResp.stopped,instrImage_2.started,instrImage_2.stopped,instrText_2.started,instrText_2.stopped,instrContinueText_2.started,instrContinueText_2.stopped,instrKeyResp_2.keys,instrKeyResp_2.rt,instrKeyResp_2.started,instrKeyResp_2.stopped,localizing.started,localizing.stopped,start_exp.keys,start_exp.rt,start_exp.started,start_exp.stopped,blockHappyText.started,blockHappyText.stopped,blockHappySlider.response,blockHappySlider.rt,blockHappySlider.started,blockHappySlider.stopped,blockHappyResp.keys,blockHappyResp.rt,blockHappyResp.started,blockHappyResp.stopped,blankText.started,blankText.stopped,isHappyBlock,isCongruent,isWinOnTop,lastHappyRating,diff,sumDiff,RPE,winAmount,loseAmount,certainAmount,choice,outcome,outcomeAmount,currentWinnings,fixCross.started,fixCross.stopped,certainBox.started,certainBox.stopped,outcome1Box.started,outcome1Box.stopped,outcome2Box.started,outcome2Box.stopped,certainText.started,certainText.stopped,outcome1Text.started,outcome1Text.stopped,outcome2Text.started,outcome2Text.stopped,choiceKey.keys,choiceKey.rt,choiceKey.started,choiceKey.stopped,fixCross_2.started,fixCross_2.stopped,certainBox_2.started,certainBox_2.stopped,outcome1Box_2.started,outcome1Box_2.stopped,outcome2Box_2.started,outcome2Box_2.stopped,certainText_2.started,certainText_2.stopped,outcome1Text_2.started,outcome1Text_2.stopped,outcome2Text_2.started,outcome2Text_2.stopped,fixCross_3.started,fixCross_3.stopped,certainBox_3.started,certainBox_3.stopped,outcome1Box_3.started,outcome1Box_3.stopped,outcome2Box_3.started,outcome2Box_3.stopped,certainText_3.started,certainText_3.stopped,outcome1Text_3.started,outcome1Text_3.stopped,outcome2Text_3.started,outcome2Text_3.stopped,fixCross_ITI.started,fixCross_ITI.stopped,fixCross_ISI.started,fixCross_ISI.stopped,happyText.started,happyText.stopped,happySlider.response,happySlider.rt,happySlider.started,happySlider.stopped,happyResp.keys,happyResp.started,happyResp.stopped,endOfBlockText.started,endOfBlockText.stopped,restKeyResp.keys,restKeyResp.rt,restKeyResp.started,restKeyResp.stopped,finalWinnings,cashBonus,goodbyeText.started,goodbyeText.stopped,finalWinningsText.started,finalWinningsText.stopped,spaceToContinue.started,spaceToContinue.stopped,goodbyeKeyResp_2.keys,goodbyeKeyResp_2.rt,goodbyeKeyResp_2.started,goodbyeKeyResp_2.stopped,participant,date,expName,psychopyVersion,frameRate,
1,black.png,"Welcome! You are about to play our gambling task.
This task has 3 blocks and takes about 15 minutes.",,,,0,0,0,0,,,,,,,,,,,,,,,,,,,,,,,,,20.518344732699916,None,20.518344732699916,None,20.518344732699916,None,4,171.88199924805667,20.518344732699916,None,,,,,,,,,,,,,,,,,,,,,,,,,,,,,,,,,,,,,,,,,,,,,,,,,,,,,,,,,,,,,,,,,,,,,,,,,,,,,,,,,,,,,,,,,,,,,,,,,,,,,,,,,,,,,,,,,,,,,,,,,,,,,,,,,,23999,2019_Dec_31_1403,Mmi_3levels,3.1.5,59.9740351085229,
2,black.png,"In this game, you may win or lose points. Your goal is to get as many points as possible. These points will be converted to a cash bonus at the end.
Sometimes we will ask you to rate your mood.",,,,0,1,1,1,,,,,,,,,,,,,,,,,,,,,,,,,192.45014567184262,None,192.45014567184262,None,192.45014567184262,None,4,2.551179053960368,192.45014567184262,None,,,,,,,,,,,,,,,,,,,,,,,,,,,,,,,,,,,,,,,,,,,,,,,,,,,,,,,,,,,,,,,,,,,,,,,,,,,,,,,,,,,,,,,,,,,,,,,,,,,,,,,,,,,,,,,,,,,,,,,,,,,,,,,,,,23999,2019_Dec_31_1403,Mmi_3levels,3.1.5,59.9740351085229,
3,black.png,"On the next screen, please rate how you feel about your life these days. Use the LEFT (green) and RIGHT (blue) buttons to move the slider (you can press and hold them to slide gradually) and the TOP (red) button to lock in your response.
Make your rating as accurately and quickly as you can!",,,,0,2,2,2,,,,,,,,,,,,,,,,,,,,,,,,,195.05112033733167,None,195.05112033733167,None,195.05112033733167,None,4,9.370263425284065,195.05112033733167,None,,,,,,,,,,,,,,,,,,,,,,,,,,,,,,,,,,,,,,,,,,,,,,,,,,,,,,,,,,,,,,,,,,,,,,,,,,,,,,,,,,,,,,,,,,,,,,,,,,,,,,,,,,,,,,,,,,,,,,,,,,,,,,,,,,23999,2019_Dec_31_1403,Mmi_3levels,3.1.5,59.9740351085229,
,,,,,,,,,,,,,,,,,,,,,,,,,,,,,,,,,,,,,,,,,,,,204.43807882757392,None,0.61,6.751883334596641,208.43952898634598,None,4,2.7346334205940366,208.43952898634598,None,,,,,,,,,,,,,,,,,,,,,,,,,,,,,,,,,,,,,,,,,,,,,,,,,,,,,,,,,,,,,,,,,,,,,,,,,,,,,,,,,,,,,,,,,,,,,,,,,,,,,,,,,,,,,,,,,,,,,,,,23999,2019_Dec_31_1403,Mmi_3levels,3.1.5,59.9740351085229,
4,black.png,"In this game you can win money by earning points according to your choices. You will decide whether to gamble a number of points or stick with a guaranteed number of points. 
Make your choice by pressing the left or right arrow key once. An example of one trial is shown on the next screen.",,,,,,,,0,0,0,0,,,,,,,,,,,,,,,,,,,,,,,,,,,,,,,,,,,,,,,,,211.2240229747258,None,211.2240229747258,None,211.2240229747258,None,4,1.6007612374378368,211.2240229747258,None,,,,,,,,,,,,,,,,,,,,,,,,,,,,,,,,,,,,,,,,,,,,,,,,,,,,,,,,,,,,,,,,,,,,,,,,,,,,,,,,,,,,,,,,,,,,,,,,,,,,,,,,,,,,,,23999,2019_Dec_31_1403,Mmi_3levels,3.1.5,59.9740351085229,
5,example_start.png,"The GAMBLING OPTION will be shown on the RIGHT SIDE. 
Select this option using the RIGHT (blue) button on your keypad.",,,,,,,,0,1,1,1,,,,,,,,,,,,,,,,,,,,,,,,,,,,,,,,,,,,,,,,,212.891219531768,None,212.891219531768,None,212.891219531768,None,4,4.051572791882791,212.891219531768,None,,,,,,,,,,,,,,,,,,,,,,,,,,,,,,,,,,,,,,,,,,,,,,,,,,,,,,,,,,,,,,,,,,,,,,,,,,,,,,,,,,,,,,,,,,,,,,,,,,,,,,,,,,,,,,23999,2019_Dec_31_1403,Mmi_3levels,3.1.5,59.9740351085229,
6,example_gamble.png,"Once you select the gambling choice, the choice you made will remain on the screen.",,,,,,,,0,2,2,2,,,,,,,,,,,,,,,,,,,,,,,,,,,,,,,,,,,,,,,,,216.97609701857436,None,216.97609701857436,None,216.97609701857436,None,4,1.1341076899552718,216.97609701857436,None,,,,,,,,,,,,,,,,,,,,,,,,,,,,,,,,,,,,,,,,,,,,,,,,,,,,,,,,,,,,,,,,,,,,,,,,,,,,,,,,,,,,,,,,,,,,,,,,,,,,,,,,,,,,,,23999,2019_Dec_31_1403,Mmi_3levels,3.1.5,59.9740351085229,
7,example_win.png,"The outcome you received will then be shown on the screen. In this example , you WON 10 points.",,,,,,,,0,3,3,3,,,,,,,,,,,,,,,,,,,,,,,,,,,,,,,,,,,,,,,,,218.14325117797125,None,218.14325117797125,None,218.14325117797125,None,4,0.5170340861659497,218.14325117797125,None,,,,,,,,,,,,,,,,,,,,,,,,,,,,,,,,,,,,,,,,,,,,,,,,,,,,,,,,,,,,,,,,,,,,,,,,,,,,,,,,,,,,,,,,,,,,,,,,,,,,,,,,,,,,,,23999,2019_Dec_31_1403,Mmi_3levels,3.1.5,59.9740351085229,
8,example_start.png,"The GUARANTEED OPTION will be shown on the LEFT SIDE. You are 100% guaranteed to gain or lose this amount. In this example, you have a 100% chance of winning 1 point. Select this option using the LEFT (green) button on your keyboard.",,,,,,,,0,4,4,4,,,,,,,,,,,,,,,,,,,,,,,,,,,,,,,,,,,,,,,,,218.71008535521105,None,218.71008535521105,None,218.71008535521105,None,4,0.3003834985429421,218.71008535521105,None,,,,,,,,,,,,,,,,,,,,,,,,,,,,,,,,,,,,,,,,,,,,,,,,,,,,,,,,,,,,,,,,,,,,,,,,,,,,,,,,,,,,,,,,,,,,,,,,,,,,,,,,,,,,,,23999,2019_Dec_31_1403,Mmi_3levels,3.1.5,59.9740351085229,
9,example_certain.png,"Once you select the guaranteed choice, your selection will remain on the screen.",,,,,,,,0,5,5,5,,,,,,,,,,,,,,,,,,,,,,,,,,,,,,,,,,,,,,,,,219.0435473213438,None,219.0435473213438,None,219.0435473213438,None,4,0.31697232963051647,219.0435473213438,None,,,,,,,,,,,,,,,,,,,,,,,,,,,,,,,,,,,,,,,,,,,,,,,,,,,,,,,,,,,,,,,,,,,,,,,,,,,,,,,,,,,,,,,,,,,,,,,,,,,,,,,,,,,,,,23999,2019_Dec_31_1403,Mmi_3levels,3.1.5,59.9740351085229,
10,black.png,"Please make your choices as fast as possible.
You will be given a break at the end of each block.
Let's play!",,,,,,,,0,6,6,6,,,,,,,,,,,,,,,,,,,,,,,,,,,,,,,,,,,,,,,,,219.39373475091998,None,219.39373475091998,None,219.39373475091998,None,4,1.067284552147612,219.39373475091998,None,,,,,,,,,,,,,,,,,,,,,,,,,,,,,,,,,,,,,,,,,,,,,,,,,,,,,,,,,,,,,,,,,,,,,,,,,,,,,,,,,,,,,,,,,,,,,,,,,,,,,,,,,,,,,,23999,2019_Dec_31_1403,Mmi_3levels,3.1.5,59.9740351085229,
,,,,,,,,,,,,,,,,,,,,,,,,,,,,,,,,,,,,,,,,,,,,,,,,,,,,,,,,,,,,,,,,220.4774446231313,None,space,258.5647184557747,220.4774446231313,None,,,,,,,,,,,,,,,,,,,,,,,,,,,,,,,,,,,,,,,,,,,,,,,,,,,,,,,,,,,,,,,,,,,,,,,,,,,,,,,,,,,,,,,,,,,,,,,,,,,,,,,,23999,2019_Dec_31_1403,Mmi_3levels,3.1.5,59.9740351085229,
,,,1,1,4.1,,,,,,,,,0,0,0,0,0,0,0,15,,,,,,,,,,,,,,,,,,,,,,,,,,,,,,,,,,,,,,,,,,,,,,,,,479.0586335165426,None,0.61,5.028113305568695,482.07643219979946,None,4,2.000974985421635,482.07643219979946,None,484.09385170426685,None,True,False,False,0.61,-0.39,-0.39,-1.3975,4.1,2.7024999999999997,1.3512499999999998,gamble,lose,2.7024999999999997,2.7024999999999997,487.12841328885406,None,487.12841328885406,None,487.12841328885406,None,487.12841328885406,None,487.12841328885406,None,487.12841328885406,None,487.12841328885406,None,1,1.2674323837272823,487.12841328885406,None,488.4288719831966,None,488.4288719831966,None,488.4288719831966,None,488.4288719831966,None,488.4288719831966,None,488.4288719831966,None,488.4288719831966,None,492.41368627361953,None,492.41368627361953,None,492.41368627361953,None,492.41368627361953,None,492.41368627361953,None,492.41368627361953,None,492.41368627361953,None,493.4141166495392,None,,,,,,,,,,,,,,,,,,,,,,,,,,,,,,23999,2019_Dec_31_1403,Mmi_3levels,3.1.5,59.9740351085229,
,,,1,1,-0.5,,,,,,,,,0,0,0,0,0,1,1,14,,,,,,,,,,,,,,,,,,,,,,,,,,,,,,,,,,,,,,,,,,,,,,,,,,,,,,,,,,,,,True,False,False,0.61,-0.39,-0.78,-1.43,-0.5,-1.93,-1.2149999999999999,gamble,lose,-1.93,0.7724999999999997,495.4314951963024,None,495.4314951963024,None,495.4314951963024,None,495.4314951963024,None,495.4314951963024,None,495.4314951963024,None,495.4314951963024,None,1,1.3508245138218626,495.4314951963024,None,496.81541129702237,None,496.81541129702237,None,496.81541129702237,None,496.81541129702237,None,496.81541129702237,None,496.81541129702237,None,496.81541129702237,None,500.816927052103,None,500.816927052103,None,500.816927052103,None,500.816927052103,None,500.816927052103,None,500.816927052103,None,500.816927052103,None,501.8005762877874,None,,,,,,,,,,,,,,,,,,,,,,,,,,,,,,23999,2019_Dec_31_1403,Mmi_3levels,3.1.5,59.9740351085229,
,,,1,1,10.3,,,,,,,,,0,0,0,0,0,2,2,20,,,,,,,,,,,,,,,,,,,,,,,,,,,,,,,,,,,,,,,,,,,,,,,,,,,,,,,,,,,,,True,True,False,0.61,-0.39,-1.17,6.63,10.3,3.670000000000001,1.8350000000000004,gamble,win,10.3,11.0725,503.81800571165513,None,503.81800571165513,None,503.81800571165513,None,503.81800571165513,None,503.81800571165513,None,503.81800571165513,None,503.81800571165513,None,1,1.2007599574280903,503.81800571165513,None,505.0518460565945,None,505.0518460565945,None,505.0518460565945,None,505.0518460565945,None,505.0518460565945,None,505.0518460565945,None,505.0518460565945,None,509.03670130472165,None,509.03670130472165,None,509.03670130472165,None,509.03670130472165,None,509.03670130472165,None,509.03670130472165,None,509.03670130472165,None,518.5402417464647,None,510.03702448669355,None,511.0374036653666,None,0.69,7.502726087346673,514.0385319222696,None,None,514.0385319222696,None,,,,,,,,,,,,,,,,,,,23999,2019_Dec_31_1403,Mmi_3levels,3.1.5,59.9740351085229,
,,,1,1,8.1,,,,,,,,,0,0,0,0,0,3,3,23,,,,,,,,,,,,,,,,,,,,,,,,,,,,,,,,,,,,,,,,,,,,,,,,,,,,,,,,,,,,,True,True,False,0.69,-0.31000000000000005,-1.48,5.82,8.1,2.2799999999999994,1.1399999999999997,gamble,win,8.1,19.1725,520.5576954890275,None,520.5576954890275,None,520.5576954890275,None,520.5576954890275,None,520.5576954890275,None,520.5576954890275,None,520.5576954890275,None,1,1.1506744421785697,520.5576954890275,None,521.7414570384426,None,521.7414570384426,None,521.7414570384426,None,521.7414570384426,None,521.7414570384426,None,521.7414570384426,None,521.7414570384426,None,525.7263279656181,None,525.7263279656181,None,525.7263279656181,None,525.7263279656181,None,525.7263279656181,None,525.7263279656181,None,525.7263279656181,None,526.7266818658682,None,,,,,,,,,,,,,,,,,,,,,,,,,,,,,,23999,2019_Dec_31_1403,Mmi_3levels,3.1.5,59.9740351085229,
,,,1,1,5.7,,,,,,,,,0,0,0,0,0,4,4,1,,,,,,,,,,,,,,,,,,,,,,,,,,,,,,,,,,,,,,,,,,,,,,,,,,,,,,,,,,,,,True,False,True,0.69,-0.31000000000000005,-1.79,-1.2341666666666669,5.7,4.465833333333333,2.2329166666666667,gamble,lose,4.465833333333333,23.638333333333332,528.7441202492919,None,528.7441202492919,None,528.7441202492919,None,528.7441202492919,None,528.7441202492919,None,528.7441202492919,None,528.7441202492919,None,1,0.6504854927770793,528.7441202492919,None,529.4277002088493,None,529.4277002088493,None,529.4277002088493,None,529.4277002088493,None,529.4277002088493,None,529.4277002088493,None,529.4277002088493,None,533.4125407377724,None,533.4125407377724,None,533.4125407377724,None,533.4125407377724,None,533.4125407377724,None,533.4125407377724,None,533.4125407377724,None,542.9161912533455,None,534.4129803931573,None,535.4133406929905,None,0.62,7.5027516859117895,538.4144222324248,None,None,538.4144222324248,None,,,,,,,,,,,,,,,,,,,23999,2019_Dec_31_1403,Mmi_3levels,3.1.5,59.9740351085229,
,,,1,1,6.5,,,,,,,,,0,0,0,0,0,5,5,11,,,,,,,,,,,,,,,,,,,,,,,,,,,,,,,,,,,,,,,,,,,,,,,,,,,,,,,,,,,,,True,True,False,0.62,-0.38,-2.17,7.49,6.5,-0.9900000000000002,-0.4950000000000001,certain,certain,-0.4950000000000001,23.14333333333333,544.9335691601736,None,544.9335691601736,None,544.9335691601736,None,544.9335691601736,None,544.9335691601736,None,544.9335691601736,None,544.9335691601736,None,3,1.3174532626289874,544.9335691601736,None,546.2841348084621,None,546.2841348084621,None,546.2841348084621,None,546.2841348084621,None,546.2841348084621,None,546.2841348084621,None,546.2841348084621,None,550.2855926468037,None,550.2855926468037,None,550.2855926468037,None,550.2855926468037,None,550.2855926468037,None,550.2855926468037,None,550.2855926468037,None,551.2693023590837,None,,,,,,,,,,,,,,,,,,,,,,,,,,,,,,23999,2019_Dec_31_1403,Mmi_3levels,3.1.5,59.9740351085229,
,,,1,1,10.1,,,,,,,,,0,0,0,0,0,6,6,25,,,,,,,,,,,,,,,,,,,,,,,,,,,,,,,,,,,,,,,,,,,,,,,,,,,,,,,,,,,,,True,True,True,0.62,-0.38,-2.55,7.87,10.1,2.2299999999999995,1.1149999999999998,gamble,win,10.1,33.24333333333333,553.2867362627294,None,553.2867362627294,None,553.2867362627294,None,553.2867362627294,None,553.2867362627294,None,553.2867362627294,None,553.2867362627294,None,1,0.7672021567123011,553.2867362627294,None,554.0870892030653,None,554.0870892030653,None,554.0870892030653,None,554.0870892030653,None,554.0870892030653,None,554.0870892030653,None,554.0870892030653,None,558.0718756549759,None,558.0718756549759,None,558.0718756549759,None,558.0718756549759,None,558.0718756549759,None,558.0718756549759,None,558.0718756549759,None,559.072250674013,None,,,,,,,,,,,,,,,,,,,,,,,,,,,,,,23999,2019_Dec_31_1403,Mmi_3levels,3.1.5,59.9740351085229,
,,,1,1,0.5,,,,,,,,,0,0,0,0,0,7,7,19,,,,,,,,,,,,,,,,,,,,,,,,,,,,,,,,,,,,,,,,,,,,,,,,,,,,,,,,,,,,,True,True,True,0.62,-0.38,-2.9299999999999997,8.25,0.5,-7.75,-3.625,certain,certain,-3.625,29.618333333333332,561.0897152959369,None,561.0897152959369,None,561.0897152959369,None,561.0897152959369,None,561.0897152959369,None,561.0897152959369,None,561.0897152959369,None,3,1.3507976352702826,561.0897152959369,None,562.4735709200613,None,562.4735709200613,None,562.4735709200613,None,562.4735709200613,None,562.4735709200613,None,562.4735709200613,None,562.4735709200613,None,566.4750809154939,None,566.4750809154939,None,566.4750809154939,None,566.4750809154939,None,566.4750809154939,None,566.4750809154939,None,566.4750809154939,None,575.9619666099316,None,567.4588133464567,None,568.4591518875677,None,0.61,7.502702728612348,571.4602641452802,None,None,571.4602641452802,None,,,,,,,,,,,,,,,,,,,23999,2019_Dec_31_1403,Mmi_3levels,3.1.5,59.9740351085229,
,,,1,1,4.7,,,,,,,,,0,0,0,0,0,8,8,4,,,,,,,,,,,,,,,,,,,,,,,,,,,,,,,,,,,,,,,,,,,,,,,,,,,,,,,,,,,,,True,False,True,0.61,-0.39,-3.32,-1.6416666666666666,4.7,3.0583333333333336,1.5291666666666668,gamble,lose,3.0583333333333336,32.67666666666666,577.9794168326771,None,577.9794168326771,None,577.9794168326771,None,577.9794168326771,None,577.9794168326771,None,577.9794168326771,None,577.9794168326771,None,1,0.6505235707154498,577.9794168326771,None,578.6630598286865,None,578.6630598286865,None,578.6630598286865,None,578.6630598286865,None,578.6630598286865,None,578.6630598286865,None,578.6630598286865,None,582.6478475605836,None,582.6478475605836,None,582.6478475605836,None,582.6478475605836,None,582.6478475605836,None,582.6478475605836,None,582.6478475605836,None,583.6482238594908,None,,,,,,,,,,,,,,,,,,,,,,,,,,,,,,23999,2019_Dec_31_1403,Mmi_3levels,3.1.5,59.9740351085229,
,,,1,1,9.1,,,,,,,,,0,0,0,0,0,9,9,26,,,,,,,,,,,,,,,,,,,,,,,,,,,,,,,,,,,,,,,,,,,,,,,,,,,,,,,,,,,,,True,True,True,0.61,-0.39,-3.71,9.17,9.1,-0.07000000000000028,-0.03500000000000014,gamble,win,9.1,41.776666666666664,585.6656715223799,None,585.6656715223799,None,585.6656715223799,None,585.6656715223799,None,585.6656715223799,None,585.6656715223799,None,585.6656715223799,None,1,1.3340820913435891,585.6656715223799,None,587.0328893582337,None,587.0328893582337,None,587.0328893582337,None,587.0328893582337,None,587.0328893582337,None,587.0328893582337,None,587.0328893582337,None,591.0343519962626,None,591.0343519962626,None,591.0343519962626,None,591.0343519962626,None,591.0343519962626,None,591.0343519962626,None,591.0343519962626,None,600.5212792883394,None,592.0180802674731,None,593.0184389674105,None,0.74,7.502873279154301,596.0195739439223,None,None,596.0195739439223,None,,,,,,,,,,,,,,,,,,,23999,2019_Dec_31_1403,Mmi_3levels,3.1.5,59.9740351085229,
,,,1,1,-0.7,,,,,,,,,0,0,0,0,0,10,10,17,,,,,,,,,,,,,,,,,,,,,,,,,,,,,,,,,,,,,,,,,,,,,,,,,,,,,,,,,,,,,True,True,False,0.74,-0.26,-3.9699999999999998,7.609999999999999,-0.7,-8.309999999999999,-4.504999999999999,certain,certain,-4.504999999999999,37.27166666666666,602.5387090323493,None,602.5387090323493,None,602.5387090323493,None,602.5387090323493,None,602.5387090323493,None,602.5387090323493,None,602.5387090323493,None,3,1.900987624656409,602.5387090323493,None,604.4728020031471,None,604.4728020031471,None,604.4728020031471,None,604.4728020031471,None,604.4728020031471,None,604.4728020031471,None,604.4728020031471,None,608.4576156535186,None,608.4576156535186,None,608.4576156535186,None,608.4576156535186,None,608.4576156535186,None,608.4576156535186,None,608.4576156535186,None,609.458041229751,None,,,,,,,,,,,,,,,,,,,,,,,,,,,,,,23999,2019_Dec_31_1403,Mmi_3levels,3.1.5,59.9740351085229,
,,,1,1,5.5,,,,,,,,,0,0,0,0,0,11,11,18,,,,,,,,,,,,,,,,,,,,,,,,,,,,,,,,,,,,,,,,,,,,,,,,,,,,,,,,,,,,,True,False,True,0.74,-0.26,-4.2299999999999995,-1.2625,5.5,4.2375,2.11875,gamble,lose,4.2375,41.50916666666666,611.4754229763057,None,611.4754229763057,None,611.4754229763057,None,611.4754229763057,None,611.4754229763057,None,611.4754229763057,None,611.4754229763057,None,1,1.2674307838315144,611.4754229763057,None,612.7759575063828,None,612.7759575063828,None,612.7759575063828,None,612.7759575063828,None,612.7759575063828,None,612.7759575063828,None,612.7759575063828,None,616.7608105146792,None,616.7608105146792,None,616.7608105146792,None,616.7608105146792,None,616.7608105146792,None,616.7608105146792,None,616.7608105146792,None,626.2643576760311,None,617.761153855361,None,618.7615138352849,None,0.67,7.502730567124672,621.76264017215,None,None,621.76264017215,None,,,,,,,,,,,,,,,,,,,23999,2019_Dec_31_1403,Mmi_3levels,3.1.5,59.9740351085229,
,,,1,1,3.9,,,,,,,,,0,0,0,0,0,12,12,5,,,,,,,,,,,,,,,,,,,,,,,,,,,,,,,,,,,,,,,,,,,,,,,,,,,,,,,,,,,,,True,True,True,0.67,-0.32999999999999996,-4.56,9.18,3.9,-5.279999999999999,-0.6899999999999997,certain,certain,-0.6899999999999997,40.81916666666666,628.2817832601722,None,628.2817832601722,None,628.2817832601722,None,628.2817832601722,None,628.2817832601722,None,628.2817832601722,None,628.2817832601722,None,3,1.8674439031165093,628.2817832601722,None,630.1825068995822,None,630.1825068995822,None,630.1825068995822,None,630.1825068995822,None,630.1825068995822,None,630.1825068995822,None,630.1825068995822,None,634.1673458286095,None,634.1673458286095,None,634.1673458286095,None,634.1673458286095,None,634.1673458286095,None,634.1673458286095,None,634.1673458286095,None,635.1677214875817,None,,,,,,,,,,,,,,,,,,,,,,,,,,,,,,23999,2019_Dec_31_1403,Mmi_3levels,3.1.5,59.9740351085229,
,,,1,1,6.1,,,,,,,,,0,0,0,0,0,13,13,2,,,,,,,,,,,,,,,,,,,,,,,,,,,,,,,,,,,,,,,,,,,,,,,,,,,,,,,,,,,,,True,True,False,0.67,-0.32999999999999996,-4.89,9.509999999999998,6.1,-3.4099999999999984,1.3450000000000006,gamble,win,6.1,46.91916666666666,637.1852075484348,None,637.1852075484348,None,637.1852075484348,None,637.1852075484348,None,637.1852075484348,None,637.1852075484348,None,637.1852075484348,None,1,1.050624365103431,637.1852075484348,None,638.2689011015464,None,638.2689011015464,None,638.2689011015464,None,638.2689011015464,None,638.2689011015464,None,638.2689011015464,None,638.2689011015464,None,642.253739710548,None,642.253739710548,None,642.253739710548,None,642.253739710548,None,642.253739710548,None,642.253739710548,None,642.253739710548,None,643.2541201693239,None,,,,,,,,,,,,,,,,,,,,,,,,,,,,,,23999,2019_Dec_31_1403,Mmi_3levels,3.1.5,59.9740351085229,
,,,1,1,0.9,,,,,,,,,0,0,0,0,0,14,14,12,,,,,,,,,,,,,,,,,,,,,,,,,,,,,,,,,,,,,,,,,,,,,,,,,,,,,,,,,,,,,True,True,False,0.67,-0.32999999999999996,-5.22,9.84,0.9,-8.94,-4.02,certain,certain,-4.02,42.89916666666666,645.2715473533608,None,645.2715473533608,None,645.2715473533608,None,645.2715473533608,None,645.2715473533608,None,645.2715473533608,None,645.2715473533608,None,3,1.6508905900409445,645.2715473533608,None,646.9555423296988,None,646.9555423296988,None,646.9555423296988,None,646.9555423296988,None,646.9555423296988,None,646.9555423296988,None,646.9555423296988,None,650.9570321661886,None,650.9570321661886,None,650.9570321661886,None,650.9570321661886,None,650.9570321661886,None,650.9570321661886,None,650.9570321661886,None,660.4440138551872,None,651.9407405985985,None,652.9412039326271,None,0.64,7.502710088272579,655.9422441943316,None,None,655.9422441943316,None,,,,,,,,,,,,,,,,,,,23999,2019_Dec_31_1403,Mmi_3levels,3.1.5,59.9740351085229,
,,,1,1,7.1,,,,,,,,,0,0,0,0,0,15,15,0,,,,,,,,,,,,,,,,,,,,,,,,,,,,,,,,,,,,,,,,,,,,,,,,,,,,,,,,,,,,,True,True,True,0.64,-0.36,-5.58,10.620000000000001,7.1,-3.5200000000000014,1.7899999999999991,gamble,win,7.1,49.99916666666666,662.4613981617149,None,662.4613981617149,None,662.4613981617149,None,662.4613981617149,None,662.4613981617149,None,662.4613981617149,None,662.4613981617149,None,1,1.567580695496872,662.4613981617149,None,664.0620538049843,None,664.0620538049843,None,664.0620538049843,None,664.0620538049843,None,664.0620538049843,None,664.0620538049843,None,664.0620538049843,None,668.0468348172726,None,668.0468348172726,None,668.0468348172726,None,668.0468348172726,None,668.0468348172726,None,668.0468348172726,None,668.0468348172726,None,669.0472127160756,None,,,,,,,,,,,,,,,,,,,,,,,,,,,,,,23999,2019_Dec_31_1403,Mmi_3levels,3.1.5,59.9740351085229,
,,,1,1,-1.1,,,,,,,,,0,0,0,0,0,16,16,21,,,,,,,,,,,,,,,,,,,,,,,,,,,,,,,,,,,,,,,,,,,,,,,,,,,,,,,,,,,,,True,True,True,0.64,-0.36,-5.94,10.98,-1.1,-12.08,-6.59,certain,certain,-6.59,43.409166666666664,671.0646958970465,None,671.0646958970465,None,671.0646958970465,None,671.0646958970465,None,671.0646958970465,None,671.0646958970465,None,671.0646958970465,None,3,1.017270392854698,671.0646958970465,None,672.1150972346077,None,672.1150972346077,None,672.1150972346077,None,672.1150972346077,None,672.1150972346077,None,672.1150972346077,None,672.1150972346077,None,676.1165806715144,None,676.1165806715144,None,676.1165806715144,None,676.1165806715144,None,676.1165806715144,None,676.1165806715144,None,676.1165806715144,None,685.6035354820779,None,677.1002599854255,None,678.100668602623,None,0.57,7.50265953107737,681.1017507819925,None,None,681.1017507819925,None,,,,,,,,,,,,,,,,,,,23999,2019_Dec_31_1403,Mmi_3levels,3.1.5,59.9740351085229,
,,,1,1,-1.5,,,,,,,,,0,0,0,0,0,17,17,9,,,,,,,,,,,,,,,,,,,,,,,,,,,,,,,,,,,,,,,,,,,,,,,,,,,,,,,,,,,,,True,True,True,0.57,-0.43000000000000005,-6.37,12.39,-1.5,-13.89,-7.695,certain,certain,-7.695,35.714166666666664,687.6208945099497,None,687.6208945099497,None,687.6208945099497,None,687.6208945099497,None,687.6208945099497,None,687.6208945099497,None,687.6208945099497,None,3,1.0673530282219872,687.6208945099497,None,688.7213269657223,None,688.7213269657223,None,688.7213269657223,None,688.7213269657223,None,688.7213269657223,None,688.7213269657223,None,688.7213269657223,None,692.7228596798377,None,692.7228596798377,None,692.7228596798377,None,692.7228596798377,None,692.7228596798377,None,692.7228596798377,None,692.7228596798377,None,693.706602350343,None,,,,,,,,,,,,,,,,,,,,,,,,,,,,,,23999,2019_Dec_31_1403,Mmi_3levels,3.1.5,59.9740351085229,
,,,1,1,12.9,,,,,,,,,0,0,0,0,0,18,18,7,,,,,,,,,,,,,,,,,,,,,,,,,,,,,,,,,,,,,,,,,,,,,,,,,,,,,,,,,,,,,True,True,False,0.57,-0.43000000000000005,-6.8,12.82,12.9,0.08000000000000007,0.040000000000000036,gamble,win,12.9,48.61416666666666,695.7239802571712,None,695.7239802571712,None,695.7239802571712,None,695.7239802571712,None,695.7239802571712,None,695.7239802571712,None,695.7239802571712,None,1,1.1507211595308036,695.7239802571712,None,696.9077661251649,None,696.9077661251649,None,696.9077661251649,None,696.9077661251649,None,696.9077661251649,None,696.9077661251649,None,696.9077661251649,None,700.909274200676,None,700.909274200676,None,700.909274200676,None,700.909274200676,None,700.909274200676,None,700.909274200676,None,700.909274200676,None,701.8930344700348,None,,,,,,,,,,,,,,,,,,,,,,,,,,,,,,23999,2019_Dec_31_1403,Mmi_3levels,3.1.5,59.9740351085229,
,,,1,1,-0.1,,,,,,,,,0,0,0,0,0,19,19,16,,,,,,,,,,,,,,,,,,,,,,,,,,,,,,,,,,,,,,,,,,,,,,,,,,,,,,,,,,,,,True,True,True,0.57,-0.43000000000000005,-7.2299999999999995,13.25,-0.1,-13.35,-6.725,certain,certain,-6.725,41.88916666666666,703.9104632540839,None,703.9104632540839,None,703.9104632540839,None,703.9104632540839,None,703.9104632540839,None,703.9104632540839,None,703.9104632540839,None,3,1.2339984161080793,703.9104632540839,None,705.1775580567773,None,705.1775580567773,None,705.1775580567773,None,705.1775580567773,None,705.1775580567773,None,705.1775580567773,None,705.1775580567773,None,709.1791205292102,None,709.1791205292102,None,709.1791205292102,None,709.1791205292102,None,709.1791205292102,None,709.1791205292102,None,709.1791205292102,None,718.665989264613,None,710.1627752046334,None,711.1631550233578,None,0.63,7.502878398867324,714.1643261577701,None,None,714.1643261577701,None,,,,,,,,,,,,,,,,,,,23999,2019_Dec_31_1403,Mmi_3levels,3.1.5,59.9740351085229,
,,,1,1,1.1,,,,,,,,,0,0,0,0,0,20,20,3,,,,,,,,,,,,,,,,,,,,,,,,,,,,,,,,,,,,,,,,,,,,,,,,,,,,,,,,,,,,,True,True,False,0.63,-0.37,-7.6,12.78,1.1,-11.68,-5.29,certain,certain,-5.29,36.59916666666666,720.6834270081017,None,720.6834270081017,None,720.6834270081017,None,720.6834270081017,None,720.6834270081017,None,720.6834270081017,None,720.6834270081017,None,3,2.0843760749557987,720.6834270081017,None,722.8008895502426,None,722.8008895502426,None,722.8008895502426,None,722.8008895502426,None,722.8008895502426,None,722.8008895502426,None,722.8008895502426,None,726.785734878853,None,726.785734878853,None,726.785734878853,None,726.785734878853,None,726.785734878853,None,726.785734878853,None,726.785734878853,None,727.7861118178116,None,,,,,,,,,,,,,,,,,,,,,,,,,,,,,,23999,2019_Dec_31_1403,Mmi_3levels,3.1.5,59.9740351085229,
,,,1,1,11.9,,,,,,,,,0,0,0,0,0,21,21,8,,,,,,,,,,,,,,,,,,,,,,,,,,,,,,,,,,,,,,,,,,,,,,,,,,,,,,,,,,,,,True,False,True,0.63,-0.37,-7.97,-1.9591666666666665,11.9,9.940833333333334,4.970416666666667,gamble,lose,9.940833333333334,46.53999999999999,729.8035351620056,None,729.8035351620056,None,729.8035351620056,None,729.8035351620056,None,729.8035351620056,None,729.8035351620056,None,729.8035351620056,None,1,0.9506690026028082,729.8035351620056,None,730.7872890317813,None,730.7872890317813,None,730.7872890317813,None,730.7872890317813,None,730.7872890317813,None,730.7872890317813,None,730.7872890317813,None,734.7720879630651,None,734.7720879630651,None,734.7720879630651,None,734.7720879630651,None,734.7720879630651,None,734.7720879630651,None,734.7720879630651,None,744.27568152186,None,735.7724703416461,None,736.7729019975523,None,0.61,7.502692809095606,739.7739652979653,None,None,739.7739652979653,None,,,,,,,,,,,,,,,,,,,23999,2019_Dec_31_1403,Mmi_3levels,3.1.5,59.9740351085229,
,,,1,1,1.5,,,,,,,,,0,0,0,0,0,22,22,13,,,,,,,,,,,,,,,,,,,,,,,,,,,,,,,,,,,,,,,,,,,,,,,,,,,,,,,,,,,,,True,True,False,0.61,-0.39,-8.36,13.82,1.5,-12.32,-5.41,certain,certain,-5.41,41.129999999999995,746.2931208652444,None,746.2931208652444,None,746.2931208652444,None,746.2931208652444,None,746.2931208652444,None,746.2931208652444,None,746.2931208652444,None,3,1.5842114441329613,746.2931208652444,None,747.9103998976061,None,747.9103998976061,None,747.9103998976061,None,747.9103998976061,None,747.9103998976061,None,747.9103998976061,None,747.9103998976061,None,751.9119166126475,None,751.9119166126475,None,751.9119166126475,None,751.9119166126475,None,751.9119166126475,None,751.9119166126475,None,751.9119166126475,None,752.8956148056313,None,,,,,,,,,,,,,,,,,,,,,,,,,,,,,,23999,2019_Dec_31_1403,Mmi_3levels,3.1.5,59.9740351085229,
,,,1,1,0.1,,,,,,,,,0,0,0,0,0,23,23,22,,,,,,,,,,,,,,,,,,,,,,,,,,,,,,,,,,,,,,,,,,,,,,,,,,,,,,,,,,,,,True,True,False,0.61,-0.39,-8.75,14.21,0.1,-14.110000000000001,-7.005000000000001,certain,certain,-7.005000000000001,34.12499999999999,754.9130983065115,None,754.9130983065115,None,754.9130983065115,None,754.9130983065115,None,754.9130983065115,None,754.9130983065115,None,754.9130983065115,None,3,2.2010517810704187,754.9130983065115,None,757.1472666331101,None,757.1472666331101,None,757.1472666331101,None,757.1472666331101,None,757.1472666331101,None,757.1472666331101,None,757.1472666331101,None,761.1487926276168,None,761.1487926276168,None,761.1487926276168,None,761.1487926276168,None,761.1487926276168,None,761.1487926276168,None,761.1487926276168,None,770.6356613630196,None,762.1324482628843,None,763.1328277616994,None,0.6,7.502715847920626,766.1339976161253,None,None,766.1339976161253,None,,,,,,,,,,,,,,,,,,,23999,2019_Dec_31_1403,Mmi_3levels,3.1.5,59.9740351085229,
,,,1,1,1.3,,,,,,,,,0,0,0,0,0,24,24,6,,,,,,,,,,,,,,,,,,,,,,,,,,,,,,,,,,,,,,,,,,,,,,,,,,,,,,,,,,,,,True,False,True,0.6,-0.4,-9.15,-2.1625,1.3,-0.8625,0.21875,gamble,lose,-0.8625,33.262499999999996,772.6530968665611,None,772.6530968665611,None,772.6530968665611,None,772.6530968665611,None,772.6530968665611,None,772.6530968665611,None,772.6530968665611,None,1,1.484174806275405,772.6530968665611,None,774.1703389410395,None,774.1703389410395,None,774.1703389410395,None,774.1703389410395,None,774.1703389410395,None,774.1703389410395,None,774.1703389410395,None,778.1552399465581,None,778.1552399465581,None,778.1552399465581,None,778.1552399465581,None,778.1552399465581,None,778.1552399465581,None,778.1552399465581,None,779.1555544889998,None,,,,,,,,,,,,,,,,,,,,,,,,,,,,,,23999,2019_Dec_31_1403,Mmi_3levels,3.1.5,59.9740351085229,
,,,1,1,12.3,,,,,,,,,0,0,0,0,0,25,25,10,,,,,,,,,,,,,,,,,,,,,,,,,,,,,,,,,,,,,,,,,,,,,,,,,,,,,,,,,,,,,True,True,True,0.6,-0.4,-9.55,15.150000000000002,12.3,-2.8500000000000014,-1.4250000000000007,gamble,win,12.3,45.5625,781.1730373499449,None,781.1730373499449,None,781.1730373499449,None,781.1730373499449,None,781.1730373499449,None,781.1730373499449,None,781.1730373499449,None,1,1.1172964713769034,781.1730373499449,None,782.3234231682727,None,782.3234231682727,None,782.3234231682727,None,782.3234231682727,None,782.3234231682727,None,782.3234231682727,None,782.3234231682727,None,786.3249782812782,None,786.3249782812782,None,786.3249782812782,None,786.3249782812782,None,786.3249782812782,None,786.3249782812782,None,786.3249782812782,None,787.3086390362587,None,,,,,,,,,,,,,,,,,,,,,,,,,,,,,,23999,2019_Dec_31_1403,Mmi_3levels,3.1.5,59.9740351085229,
,,,1,1,2.1,,,,,,,,,0,0,0,0,0,26,26,24,,,,,,,,,,,,,,,,,,,,,,,,,,,,,,,,,,,,,,,,,,,,,,,,,,,,,,,,,,,,,True,True,False,0.6,-0.4,-9.950000000000001,15.55,2.1,-13.450000000000001,-5.675000000000001,certain,certain,-5.675000000000001,39.8875,789.3260793396039,None,789.3260793396039,None,789.3260793396039,None,789.3260793396039,None,789.3260793396039,None,789.3260793396039,None,789.3260793396039,None,3,1.9009565864689648,789.3260793396039,None,791.2601316726068,None,791.2601316726068,None,791.2601316726068,None,791.2601316726068,None,791.2601316726068,None,791.2601316726068,None,791.2601316726068,None,795.2616493476089,None,795.2616493476089,None,795.2616493476089,None,795.2616493476089,None,795.2616493476089,None,795.2616493476089,None,795.2616493476089,None,804.7485724799335,None,796.2453600198496,None,797.245733438991,None,0.55,7.502717447816394,800.2468594558304,None,None,800.2468594558304,None,,,,,,,,,,,,,,,,,,,23999,2019_Dec_31_1403,Mmi_3levels,3.1.5,59.9740351085229,
,,,2,0,2.3,,,,,,,,,0,1,1,1,0,0,0,24,,,,,,,,,,,,,,,,,,,,,,,,,,,,,,,,,,,,,,,,,,,,,,,,,808.2832455782918,None,0.55,7.5015831113560125,811.3010861792136,None,None,,811.3010861792136,None,815.7860638204729,None,False,True,True,0.55,0.55,0.55,-8.250000000000002,2.3,-5.950000000000002,-1.825000000000001,certain,certain,-1.825000000000001,38.0625,818.820590207004,None,818.820590207004,None,818.820590207004,None,818.820590207004,None,818.820590207004,None,818.820590207004,None,818.820590207004,None,3,1.350806594826281,818.820590207004,None,820.2045434255851,None,820.2045434255851,None,820.2045434255851,None,820.2045434255851,None,820.2045434255851,None,820.2045434255851,None,820.2045434255851,None,824.206047981279,None,824.206047981279,None,824.206047981279,None,824.206047981279,None,824.206047981279,None,824.206047981279,None,824.206047981279,None,825.1896949771326,None,,,,,,,,,,,,806.7493253977736,None,4,1.5176420520292595,806.7493253977736,None,,,,,,,,,,,,,23999,2019_Dec_31_1403,Mmi_3levels,3.1.5,59.9740351085229,
,,,2,0,11.5,,,,,,,,,0,1,1,1,0,1,1,6,,,,,,,,,,,,,,,,,,,,,,,,,,,,,,,,,,,,,,,,,,,,,,,,,,,,,,,,,,,,,False,True,True,0.55,0.55,1.1,-8.8,11.5,2.6999999999999993,1.3499999999999996,gamble,lose,2.6999999999999993,40.7625,827.2071288807783,None,827.2071288807783,None,827.2071288807783,None,827.2071288807783,None,827.2071288807783,None,827.2071288807783,None,827.2071288807783,None,1,0.8505174909951165,827.2071288807783,None,828.0907411584631,None,828.0907411584631,None,828.0907411584631,None,828.0907411584631,None,828.0907411584631,None,828.0907411584631,None,828.0907411584631,None,832.0756325646071,None,832.0756325646071,None,832.0756325646071,None,832.0756325646071,None,832.0756325646071,None,832.0756325646071,None,832.0756325646071,None,841.5792037246283,None,833.0759624660714,None,834.0763413249515,None,0.55,7.502771844738163,837.0774679818423,None,None,837.0774679818423,None,,,,,,,,,,,,,,,,,,,23999,2019_Dec_31_1403,Mmi_3levels,3.1.5,59.9740351085229,
,,,2,0,5.5,,,,,,,,,0,1,1,1,0,2,2,22,,,,,,,,,,,,,,,,,,,,,,,,,,,,,,,,,,,,,,,,,,,,,,,,,,,,,,,,,,,,,False,True,False,0.55,0.55,1.6500000000000001,-9.350000000000001,5.5,-3.8500000000000014,0.8249999999999993,gamble,lose,-3.8500000000000014,36.9125,843.5966126697604,None,843.5966126697604,None,843.5966126697604,None,843.5966126697604,None,843.5966126697604,None,843.5966126697604,None,843.5966126697604,None,1,1.284076891723089,843.5966126697604,None,844.9138176261913,None,844.9138176261913,None,844.9138176261913,None,844.9138176261913,None,844.9138176261913,None,844.9138176261913,None,844.9138176261913,None,848.898618797306,None,848.898618797306,None,848.898618797306,None,848.898618797306,None,848.898618797306,None,848.898618797306,None,848.898618797306,None,849.8990187749732,None,,,,,,,,,,,,,,,,,,,,,,,,,,,,,,23999,2019_Dec_31_1403,Mmi_3levels,3.1.5,59.9740351085229,
,,,2,0,4.3,,,,,,,,,0,1,1,1,0,3,3,11,,,,,,,,,,,,,,,,,,,,,,,,,,,,,,,,,,,,,,,,,,,,,,,,,,,,,,,,,,,,,False,True,True,0.55,0.55,2.2,-9.900000000000002,4.3,-5.600000000000002,-0.6500000000000012,gamble,lose,-5.600000000000002,31.3125,851.9164408392971,None,851.9164408392971,None,851.9164408392971,None,851.9164408392971,None,851.9164408392971,None,851.9164408392971,None,851.9164408392971,None,1,2.7512657691258937,851.9164408392971,None,854.7007921156473,None,854.7007921156473,None,854.7007921156473,None,854.7007921156473,None,854.7007921156473,None,854.7007921156473,None,854.7007921156473,None,858.7023776269052,None,858.7023776269052,None,858.7023776269052,None,858.7023776269052,None,858.7023776269052,None,858.7023776269052,None,858.7023776269052,None,868.2059065492358,None,859.6860582208028,None,860.6864188405452,None,0.53,7.519307238864712,863.6875330181792,None,None,863.6875330181792,None,,,,,,,,,,,,,,,,,,,23999,2019_Dec_31_1403,Mmi_3levels,3.1.5,59.9740351085229,
,,,2,0,9.3,,,,,,,,,0,1,1,1,0,4,4,20,,,,,,,,,,,,,,,,,,,,,,,,,,,,,,,,,,,,,,,,,,,,,,,,,,,,,,,,,,,,,False,True,False,0.53,0.53,2.7300000000000004,-10.15,9.3,-0.8499999999999996,-0.4249999999999998,gamble,lose,-0.8499999999999996,30.4625,870.2233958098805,None,870.2233958098805,None,870.2233958098805,None,870.2233958098805,None,870.2233958098805,None,870.2233958098805,None,870.2233958098805,None,1,1.1673551080748439,870.2233958098805,None,871.4238498643972,None,871.4238498643972,None,871.4238498643972,None,871.4238498643972,None,871.4238498643972,None,871.4238498643972,None,871.4238498643972,None,875.4253285016166,None,875.4253285016166,None,875.4253285016166,None,875.4253285016166,None,875.4253285016166,None,875.4253285016166,None,875.4253285016166,None,876.4090270145098,None,,,,,,,,,,,,,,,,,,,,,,,,,,,,,,23999,2019_Dec_31_1403,Mmi_3levels,3.1.5,59.9740351085229,
,,,2,0,5.7,,,,,,,,,0,1,1,1,0,5,5,16,,,,,,,,,,,,,,,,,,,,,,,,,,,,,,,,,,,,,,,,,,,,,,,,,,,,,,,,,,,,,False,False,False,0.53,0.53,3.2600000000000007,2.126666666666667,1.425,-0.7016666666666669,0.3616666666666666,gamble,win,1.425,31.8875,878.4264605982462,None,878.4264605982462,None,878.4264605982462,None,878.4264605982462,None,878.4264605982462,None,878.4264605982462,None,878.4264605982462,None,1,2.4344982280163094,878.4264605982462,None,880.8941771261161,None,880.8941771261161,None,880.8941771261161,None,880.8941771261161,None,880.8941771261161,None,880.8941771261161,None,880.8941771261161,None,884.8789197405567,None,884.8789197405567,None,884.8789197405567,None,884.8789197405567,None,884.8789197405567,None,884.8789197405567,None,884.8789197405567,None,885.8792806803249,None,,,,,,,,,,,,,,,,,,,,,,,,,,,,,,23999,2019_Dec_31_1403,Mmi_3levels,3.1.5,59.9740351085229,
,,,2,0,12.1,,,,,,,,,0,1,1,1,0,6,6,14,,,,,,,,,,,,,,,,,,,,,,,,,,,,,,,,,,,,,,,,,,,,,,,,,,,,,,,,,,,,,False,True,False,0.53,0.53,3.790000000000001,-11.21,12.1,0.8899999999999988,0.4449999999999994,gamble,lose,0.8899999999999988,32.777499999999996,887.8967421024572,None,887.8967421024572,None,887.8967421024572,None,887.8967421024572,None,887.8967421024572,None,887.8967421024572,None,887.8967421024572,None,1,0.8505405297037214,887.8967421024572,None,888.7803770989412,None,888.7803770989412,None,888.7803770989412,None,888.7803770989412,None,888.7803770989412,None,888.7803770989412,None,888.7803770989412,None,892.7818973337999,None,892.7818973337999,None,892.7818973337999,None,892.7818973337999,None,892.7818973337999,None,892.7818973337999,None,892.7818973337999,None,902.2688182261772,None,893.7656003263546,None,894.7660287823528,None,0.43,7.502682569785975,897.767129840795,None,None,897.767129840795,None,,,,,,,,,,,,,,,,,,,23999,2019_Dec_31_1403,Mmi_3levels,3.1.5,59.9740351085229,
,,,2,0,-1.1,,,,,,,,,0,1,1,1,0,7,7,17,,,,,,,,,,,,,,,,,,,,,,,,,,,,,,,,,,,,,,,,,,,,,,,,,,,,,,,,,,,,,False,True,True,0.43,0.43,4.220000000000001,-10.24,-1.1,-11.34,-6.22,gamble,lose,-11.34,21.437499999999996,904.2862370907096,None,904.2862370907096,None,904.2862370907096,None,904.2862370907096,None,904.2862370907096,None,904.2862370907096,None,904.2862370907096,None,None,,904.2862370907096,None,907.2874088651733,None,907.2874088651733,None,907.2874088651733,None,907.2874088651733,None,907.2874088651733,None,907.2874088651733,None,907.2874088651733,None,911.2889179006452,None,911.2889179006452,None,911.2889179006452,None,911.2889179006452,None,911.2889179006452,None,911.2889179006452,None,911.2889179006452,None,912.2726023342693,None,,,,,,,,,,,,,,,,,,,,,,,,,,,,,,23999,2019_Dec_31_1403,Mmi_3levels,3.1.5,59.9740351085229,
,,,2,0,11.3,,,,,,,,,0,1,1,1,0,8,8,0,,,,,,,,,,,,,,,,,,,,,,,,,,,,,,,,,,,,,,,,,,,,,,,,,,,,,,,,,,,,,False,True,False,0.43,0.43,4.65,-10.67,11.3,0.6300000000000008,0.3150000000000004,gamble,lose,0.6300000000000008,22.067499999999995,914.2900269584497,None,914.2900269584497,None,914.2900269584497,None,914.2900269584497,None,914.2900269584497,None,914.2900269584497,None,914.2900269584497,None,1,1.5508961897576228,914.2900269584497,None,915.8739686578047,None,915.8739686578047,None,915.8739686578047,None,915.8739686578047,None,915.8739686578047,None,915.8739686578047,None,915.8739686578047,None,919.8588107866235,None,919.8588107866235,None,919.8588107866235,None,919.8588107866235,None,919.8588107866235,None,919.8588107866235,None,919.8588107866235,None,929.3624597023008,None,920.859185485635,None,921.8595614645164,None,0.35,7.502785284072161,924.8607181997504,None,None,924.8607181997504,None,,,,,,,,,,,,,,,,,,,23999,2019_Dec_31_1403,Mmi_3levels,3.1.5,59.9740351085229,
,,,2,0,10.9,,,,,,,,,0,1,1,1,0,9,9,19,,,,,,,,,,,,,,,,,,,,,,,,,,,,,,,,,,,,,,,,,,,,,,,,,,,,,,,,,,,,,False,True,False,0.35,0.35,5.0,-9.899999999999999,10.9,1.0000000000000018,0.5000000000000009,gamble,lose,1.0000000000000018,23.067499999999995,931.3798644875642,None,931.3798644875642,None,931.3798644875642,None,931.3798644875642,None,931.3798644875642,None,931.3798644875642,None,931.3798644875642,None,1,1.1840674522100016,931.3798644875642,None,932.5969656099332,None,932.5969656099332,None,932.5969656099332,None,932.5969656099332,None,932.5969656099332,None,932.5969656099332,None,932.5969656099332,None,936.5818346173037,None,936.5818346173037,None,936.5818346173037,None,936.5818346173037,None,936.5818346173037,None,936.5818346173037,None,936.5818346173037,None,937.5822384346975,None,,,,,,,,,,,,,,,,,,,,,,,,,,,,,,23999,2019_Dec_31_1403,Mmi_3levels,3.1.5,59.9740351085229,
,,,2,0,-1.3,,,,,,,,,0,1,1,1,0,10,10,25,,,,,,,,,,,,,,,,,,,,,,,,,,,,,,,,,,,,,,,,,,,,,,,,,,,,,,,,,,,,,False,True,True,0.35,0.35,5.35,-10.25,-1.3,-11.55,-6.425000000000001,certain,certain,-6.425000000000001,16.642499999999995,939.5996704184217,None,939.5996704184217,None,939.5996704184217,None,939.5996704184217,None,939.5996704184217,None,939.5996704184217,None,939.5996704184217,None,3,1.7508920299587771,939.5996704184217,None,941.3836220371304,None,941.3836220371304,None,941.3836220371304,None,941.3836220371304,None,941.3836220371304,None,941.3836220371304,None,941.3836220371304,None,945.3851349124452,None,945.3851349124452,None,945.3851349124452,None,945.3851349124452,None,945.3851349124452,None,945.3851349124452,None,945.3851349124452,None,946.3688420648687,None,,,,,,,,,,,,,,,,,,,,,,,,,,,,,,23999,2019_Dec_31_1403,Mmi_3levels,3.1.5,59.9740351085229,
,,,2,0,6.7,,,,,,,,,0,1,1,1,0,11,11,12,,,,,,,,,,,,,,,,,,,,,,,,,,,,,,,,,,,,,,,,,,,,,,,,,,,,,,,,,,,,,False,True,False,0.35,0.35,5.699999999999999,-10.599999999999998,6.7,-3.8999999999999977,1.4000000000000012,certain,certain,1.4000000000000012,18.042499999999997,948.3862730887486,None,948.3862730887486,None,948.3862730887486,None,948.3862730887486,None,948.3862730887486,None,948.3862730887486,None,948.3862730887486,None,3,1.9676651706686243,948.3862730887486,None,950.3870330462232,None,950.3870330462232,None,950.3870330462232,None,950.3870330462232,None,950.3870330462232,None,950.3870330462232,None,950.3870330462232,None,954.3885887990473,None,954.3885887990473,None,954.3885887990473,None,954.3885887990473,None,954.3885887990473,None,954.3885887990473,None,954.3885887990473,None,963.8755170510849,None,955.3722495540278,None,956.3726706504822,None,0.38,7.50273216702044,959.3738606638508,None,None,959.3738606638508,None,,,,,,,,,,,,,,,,,,,23999,2019_Dec_31_1403,Mmi_3levels,3.1.5,59.9740351085229,
,,,2,0,8.1,,,,,,,,,0,1,1,1,0,12,12,3,,,,,,,,,,,,,,,,,,,,,,,,,,,,,,,,,,,,,,,,,,,,,,,,,,,,,,,,,,,,,False,True,False,0.38,0.38,6.079999999999999,-11.399999999999999,8.1,-3.299999999999999,-1.6499999999999995,gamble,lose,-3.299999999999999,14.742499999999998,965.892926636152,None,965.892926636152,None,965.892926636152,None,965.892926636152,None,965.892926636152,None,965.892926636152,None,965.892926636152,None,1,2.1344084730371833,965.892926636152,None,968.0604679738171,None,968.0604679738171,None,968.0604679738171,None,968.0604679738171,None,968.0604679738171,None,968.0604679738171,None,968.0604679738171,None,972.0619059732417,None,972.0619059732417,None,972.0619059732417,None,972.0619059732417,None,972.0619059732417,None,972.0619059732417,None,972.0619059732417,None,973.0456227251561,None,,,,,,,,,,,,,,,,,,,,,,,,,,,,,,23999,2019_Dec_31_1403,Mmi_3levels,3.1.5,59.9740351085229,
,,,2,0,5.3,,,,,,,,,0,1,1,1,0,13,13,18,,,,,,,,,,,,,,,,,,,,,,,,,,,,,,,,,,,,,,,,,,,,,,,,,,,,,,,,,,,,,False,True,True,0.38,0.38,6.459999999999999,-11.78,5.3,-6.4799999999999995,-0.5899999999999999,certain,certain,-0.5899999999999999,14.152499999999998,975.0630367900012,None,975.0630367900012,None,975.0630367900012,None,975.0630367900012,None,975.0630367900012,None,975.0630367900012,None,975.0630367900012,None,3,2.200958346365951,975.0630367900012,None,977.2972630333388,None,977.2972630333388,None,977.2972630333388,None,977.2972630333388,None,977.2972630333388,None,977.2972630333388,None,977.2972630333388,None,981.2820510851452,None,981.2820510851452,None,981.2820510851452,None,981.2820510851452,None,981.2820510851452,None,981.2820510851452,None,981.2820510851452,None,990.7857022406533,None,982.2824885006994,None,983.2828318413813,None,0.43,7.502730887033977,986.283990176511,None,None,986.283990176511,None,,,,,,,,,,,,,,,,,,,23999,2019_Dec_31_1403,Mmi_3levels,3.1.5,59.9740351085229,
,,,2,0,0.5,,,,,,,,,0,1,1,1,0,14,14,21,,,,,,,,,,,,,,,,,,,,,,,,,,,,,,,,,,,,,,,,,,,,,,,,,,,,,,,,,,,,,False,False,True,0.43,0.43,6.889999999999999,2.0791666666666666,0.125,-1.9541666666666666,-0.9145833333333333,certain,certain,-0.9145833333333333,13.237916666666665,992.8031428640243,None,992.8031428640243,None,992.8031428640243,None,992.8031428640243,None,992.8031428640243,None,992.8031428640243,None,992.8031428640243,None,3,1.2838673035148531,992.8031428640243,None,994.1202511859592,None,994.1202511859592,None,994.1202511859592,None,994.1202511859592,None,994.1202511859592,None,994.1202511859592,None,994.1202511859592,None,998.1217679010006,None,998.1217679010006,None,998.1217679010006,None,998.1217679010006,None,998.1217679010006,None,998.1217679010006,None,998.1217679010006,None,999.105484652915,None,,,,,,,,,,,,,,,,,,,,,,,,,,,,,,23999,2019_Dec_31_1403,Mmi_3levels,3.1.5,59.9740351085229,
,,,2,0,0.7,,,,,,,,,0,1,1,1,0,15,15,8,,,,,,,,,,,,,,,,,,,,,,,,,,,,,,,,,,,,,,,,,,,,,,,,,,,,,,,,,,,,,False,True,True,0.43,0.43,7.3199999999999985,-13.339999999999998,0.7,-12.639999999999999,-5.97,certain,certain,-5.97,7.2679166666666655,1001.1229060773039,None,1001.1229060773039,None,1001.1229060773039,None,1001.1229060773039,None,1001.1229060773039,None,1001.1229060773039,None,1001.1229060773039,None,3,2.084361355751753,1001.1229060773039,None,1003.2404226963408,None,1003.2404226963408,None,1003.2404226963408,None,1003.2404226963408,None,1003.2404226963408,None,1003.2404226963408,None,1003.2404226963408,None,1007.2418789347867,None,1007.2418789347867,None,1007.2418789347867,None,1007.2418789347867,None,1007.2418789347867,None,1007.2418789347867,None,1007.2418789347867,None,1016.7288583839545,None,1008.2256289648358,None,1009.2259723055176,None,0.38,7.502860799781047,1012.2270932027604,None,None,1012.2270932027604,None,,,,,,,,,,,,,,,,,,,23999,2019_Dec_31_1403,Mmi_3levels,3.1.5,59.9740351085229,
,,,2,0,8.5,,,,,,,,,0,1,1,1,0,16,16,9,,,,,,,,,,,,,,,,,,,,,,,,,,,,,,,,,,,,,,,,,,,,,,,,,,,,,,,,,,,,,False,True,True,0.38,0.38,7.699999999999998,-13.02,8.5,-4.52,1.9900000000000002,certain,certain,1.9900000000000002,9.257916666666667,1018.7462394905742,None,1018.7462394905742,None,1018.7462394905742,None,1018.7462394905742,None,1018.7462394905742,None,1018.7462394905742,None,1018.7462394905742,None,3,2.0844144728034735,1018.7462394905742,None,1020.8637692289194,None,1020.8637692289194,None,1020.8637692289194,None,1020.8637692289194,None,1020.8637692289194,None,1020.8637692289194,None,1020.8637692289194,None,1024.848569760099,None,1024.848569760099,None,1024.848569760099,None,1024.848569760099,None,1024.848569760099,None,1024.848569760099,None,1024.848569760099,None,1025.8489252602449,None,,,,,,,,,,,,,,,,,,,,,,,,,,,,,,23999,2019_Dec_31_1403,Mmi_3levels,3.1.5,59.9740351085229,
,,,2,0,0.1,,,,,,,,,0,1,1,1,0,17,17,26,,,,,,,,,,,,,,,,,,,,,,,,,,,,,,,,,,,,,,,,,,,,,,,,,,,,,,,,,,,,,False,False,True,0.38,0.38,8.079999999999998,2.0033333333333334,0.025,-1.9783333333333335,-0.9766666666666668,certain,certain,-0.9766666666666668,8.28125,1027.8663562840084,None,1027.8663562840084,None,1027.8663562840084,None,1027.8663562840084,None,1027.8663562840084,None,1027.8663562840084,None,1027.8663562840084,None,3,1.234059852664359,1027.8663562840084,None,1029.1335198829183,None,1029.1335198829183,None,1029.1335198829183,None,1029.1335198829183,None,1029.1335198829183,None,1029.1335198829183,None,1029.1335198829183,None,1033.1350170790683,None,1033.1350170790683,None,1033.1350170790683,None,1033.1350170790683,None,1033.1350170790683,None,1033.1350170790683,None,1033.1350170790683,None,1034.1187370307744,None,,,,,,,,,,,,,,,,,,,,,,,,,,,,,,23999,2019_Dec_31_1403,Mmi_3levels,3.1.5,59.9740351085229,
,,,2,0,3.5,,,,,,,,,0,1,1,1,0,18,18,10,,,,,,,,,,,,,,,,,,,,,,,,,,,,,,,,,,,,,,,,,,,,,,,,,,,,,,,,,,,,,False,False,False,0.38,0.38,8.459999999999999,2.035,0.875,-1.1600000000000001,-0.14250000000000007,certain,certain,-0.14250000000000007,8.13875,1036.1361517355544,None,1036.1361517355544,None,1036.1361517355544,None,1036.1361517355544,None,1036.1361517355544,None,1036.1361517355544,None,1036.1361517355544,None,3,1.667622453183867,1036.1361517355544,None,1037.836849776446,None,1037.836849776446,None,1037.836849776446,None,1037.836849776446,None,1037.836849776446,None,1037.836849776446,None,1037.836849776446,None,1041.8383085747482,None,1041.8383085747482,None,1041.8383085747482,None,1041.8383085747482,None,1041.8383085747482,None,1041.8383085747482,None,1041.8383085747482,None,1051.3252531458857,None,1042.8220435655676,None,1043.8224249841878,None,0.53,7.50276288529858,1046.8235193229048,None,None,1046.8235193229048,None,,,,,,,,,,,,,,,,,,,23999,2019_Dec_31_1403,Mmi_3levels,3.1.5,59.9740351085229,
,,,2,0,4.1,,,,,,,,,0,1,1,1,0,19,19,4,,,,,,,,,,,,,,,,,,,,,,,,,,,,,,,,,,,,,,,,,,,,,,,,,,,,,,,,,,,,,False,True,True,0.53,0.53,8.989999999999998,-16.409999999999997,4.1,-12.309999999999997,-4.104999999999999,certain,certain,-4.104999999999999,4.033750000000001,1053.3427164879395,None,1053.3427164879395,None,1053.3427164879395,None,1053.3427164879395,None,1053.3427164879395,None,1053.3427164879395,None,1053.3427164879395,None,3,2.8012700089020655,1053.3427164879395,None,1056.1770780836232,None,1056.1770780836232,None,1056.1770780836232,None,1056.1770780836232,None,1056.1770780836232,None,1056.1770780836232,None,1056.1770780836232,None,1060.1785896789515,None,1060.1785896789515,None,1060.1785896789515,None,1060.1785896789515,None,1060.1785896789515,None,1060.1785896789515,None,1060.1785896789515,None,1061.162296831375,None,,,,,,,,,,,,,,,,,,,,,,,,,,,,,,23999,2019_Dec_31_1403,Mmi_3levels,3.1.5,59.9740351085229,
,,,2,0,6.1,,,,,,,,,0,1,1,1,0,20,20,15,,,,,,,,,,,,,,,,,,,,,,,,,,,,,,,,,,,,,,,,,,,,,,,,,,,,,,,,,,,,,False,True,True,0.53,0.53,9.519999999999998,-16.939999999999998,6.1,-10.839999999999998,-2.369999999999999,certain,certain,-2.369999999999999,1.663750000000002,1063.179732335033,None,1063.179732335033,None,1063.179732335033,None,1063.179732335033,None,1063.179732335033,None,1063.179732335033,None,1063.179732335033,None,3,1.9174507027491927,1063.179732335033,None,1065.1304656539578,None,1065.1304656539578,None,1065.1304656539578,None,1065.1304656539578,None,1065.1304656539578,None,1065.1304656539578,None,1065.1304656539578,None,1069.132031646208,None,1069.132031646208,None,1069.132031646208,None,1069.132031646208,None,1069.132031646208,None,1069.132031646208,None,1069.132031646208,None,1078.6189621381927,None,1070.115686321631,None,1071.1161122177728,None,0.44,7.502608973882161,1074.1171844777418,None,None,1074.1171844777418,None,,,,,,,,,,,,,,,,,,,23999,2019_Dec_31_1403,Mmi_3levels,3.1.5,59.9740351085229,
,,,2,0,7.3,,,,,,,,,0,1,1,1,0,21,21,1,,,,,,,,,,,,,,,,,,,,,,,,,,,,,,,,,,,,,,,,,,,,,,,,,,,,,,,,,,,,,False,True,False,0.44,0.44,9.959999999999997,-16.119999999999997,7.3,-8.819999999999997,-0.7599999999999985,gamble,lose,-8.819999999999997,-7.156249999999995,1080.6363333252957,None,1080.6363333252957,None,1080.6363333252957,None,1080.6363333252957,None,1080.6363333252957,None,1080.6363333252957,None,1080.6363333252957,None,1,2.284451590734534,1080.6363333252957,None,1082.9539315399015,None,1082.9539315399015,None,1082.9539315399015,None,1082.9539315399015,None,1082.9539315399015,None,1082.9539315399015,None,1082.9539315399015,None,1086.9553919380996,None,1086.9553919380996,None,1086.9553919380996,None,1086.9553919380996,None,1086.9553919380996,None,1086.9553919380996,None,1086.9553919380996,None,1087.93909397081,None,,,,,,,,,,,,,,,,,,,,,,,,,,,,,,23999,2019_Dec_31_1403,Mmi_3levels,3.1.5,59.9740351085229,
,,,2,0,11.1,,,,,,,,,0,1,1,1,0,22,22,7,,,,,,,,,,,,,,,,,,,,,,,,,,,,,,,,,,,,,,,,,,,,,,,,,,,,,,,,,,,,,False,True,True,0.44,0.44,10.399999999999997,-16.559999999999995,11.1,-5.4599999999999955,-2.7299999999999978,gamble,lose,-5.4599999999999955,-12.61624999999999,1089.9566433880245,None,1089.9566433880245,None,1089.9566433880245,None,1089.9566433880245,None,1089.9566433880245,None,1089.9566433880245,None,1089.9566433880245,None,1,2.28433223743923,1089.9566433880245,None,1092.2741280088667,None,1092.2741280088667,None,1092.2741280088667,None,1092.2741280088667,None,1092.2741280088667,None,1092.2741280088667,None,1092.2741280088667,None,1096.2755909669213,None,1096.2755909669213,None,1096.2755909669213,None,1096.2755909669213,None,1096.2755909669213,None,1096.2755909669213,None,1096.2755909669213,None,1105.7625633764546,None,1097.2593464365928,None,1098.2597115361132,None,0.26,7.502665930776857,1101.260908909142,None,None,1101.260908909142,None,,,,,,,,,,,,,,,,,,,23999,2019_Dec_31_1403,Mmi_3levels,3.1.5,59.9740351085229,
,,,2,0,11.9,,,,,,,,,0,1,1,1,0,23,23,2,,,,,,,,,,,,,,,,,,,,,,,,,,,,,,,,,,,,,,,,,,,,,,,,,,,,,,,,,,,,,False,False,True,0.26,0.26,10.659999999999997,1.7983333333333331,2.975,1.176666666666667,0.5883333333333335,gamble,win,2.975,-9.64124999999999,1107.7799422432436,None,1107.7799422432436,None,1107.7799422432436,None,1107.7799422432436,None,1107.7799422432436,None,1107.7799422432436,None,1107.7799422432436,None,1,1.5840111353900284,1107.7799422432436,None,1109.3972235155525,None,1109.3972235155525,None,1109.3972235155525,None,1109.3972235155525,None,1109.3972235155525,None,1109.3972235155525,None,1109.3972235155525,None,1113.3820640444756,None,1113.3820640444756,None,1113.3820640444756,None,1113.3820640444756,None,1113.3820640444756,None,1113.3820640444756,None,1113.3820640444756,None,1114.382445783005,None,,,,,,,,,,,,,,,,,,,,,,,,,,,,,,23999,2019_Dec_31_1403,Mmi_3levels,3.1.5,59.9740351085229,
,,,2,0,0.9,,,,,,,,,0,1,1,1,0,24,24,13,,,,,,,,,,,,,,,,,,,,,,,,,,,,,,,,,,,,,,,,,,,,,,,,,,,,,,,,,,,,,False,True,False,0.26,0.26,10.919999999999996,-14.559999999999997,0.9,-13.659999999999997,-6.379999999999998,certain,certain,-6.379999999999998,-16.021249999999988,1116.399919364485,None,1116.399919364485,None,1116.399919364485,None,1116.399919364485,None,1116.399919364485,None,1116.399919364485,None,1116.399919364485,None,3,2.7179540345678106,1116.399919364485,None,1119.1509121889248,None,1119.1509121889248,None,1119.1509121889248,None,1119.1509121889248,None,1119.1509121889248,None,1119.1509121889248,None,1119.1509121889248,None,1123.1524493828183,None,1123.1524493828183,None,1123.1524493828183,None,1123.1524493828183,None,1123.1524493828183,None,1123.1524493828183,None,1123.1524493828183,None,1124.1361818137811,None,,,,,,,,,,,,,,,,,,,,,,,,,,,,,,23999,2019_Dec_31_1403,Mmi_3levels,3.1.5,59.9740351085229,
,,,2,0,3.7,,,,,,,,,0,1,1,1,0,25,25,5,,,,,,,,,,,,,,,,,,,,,,,,,,,,,,,,,,,,,,,,,,,,,,,,,,,,,,,,,,,,,False,False,False,0.26,0.26,11.179999999999996,1.8416666666666663,0.925,-0.9166666666666663,0.004166666666666874,gamble,win,0.925,-15.096249999999987,1126.153581479448,None,1126.153581479448,None,1126.153581479448,None,1126.153581479448,None,1126.153581479448,None,1126.153581479448,None,1126.153581479448,None,1,2.834639660199173,1126.153581479448,None,1129.0213408849668,None,1129.0213408849668,None,1129.0213408849668,None,1129.0213408849668,None,1129.0213408849668,None,1129.0213408849668,None,1129.0213408849668,None,1133.0228278416907,None,1133.0228278416907,None,1133.0228278416907,None,1133.0228278416907,None,1133.0228278416907,None,1133.0228278416907,None,1133.0228278416907,None,1142.5097640932072,None,1134.0065330741927,None,1135.006929851952,None,0.5,7.502737286733463,1138.008040829678,None,None,1138.008040829678,None,,,,,,,,,,,,,,,,,,,23999,2019_Dec_31_1403,Mmi_3levels,3.1.5,59.9740351085229,
,,,2,0,-0.5,,,,,,,,,0,1,1,1,0,26,26,23,,,,,,,,,,,,,,,,,,,,,,,,,,,,,,,,,,,,,,,,,,,,,,,,,,,,,,,,,,,,,False,True,False,0.5,0.5,11.679999999999996,-18.679999999999996,-0.5,-19.179999999999996,-9.839999999999998,gamble,lose,-19.179999999999996,-34.27624999999998,1144.5272354348563,None,1144.5272354348563,None,1144.5272354348563,None,1144.5272354348563,None,1144.5272354348563,None,1144.5272354348563,None,1144.5272354348563,None,None,,1144.5272354348563,None,1147.528342892765,None,1147.528342892765,None,1147.528342892765,None,1147.528342892765,None,1147.528342892765,None,1147.528342892765,None,1147.528342892765,None,1151.5298548081191,None,1151.5298548081191,None,1151.5298548081191,None,1151.5298548081191,None,1151.5298548081191,None,1151.5298548081191,None,1151.5298548081191,None,1152.5135398817947,None,,,,,,,,,,,,,,,,,,,,,,,,,,,,,,23999,2019_Dec_31_1403,Mmi_3levels,3.1.5,59.9740351085229,
,,,3,1,3.7,,,,,,,,,0,2,2,2,0,0,0,16,,,,,,,,,,,,,,,,,,,,,,,,,,,,,,,,,,,,,,,,,,,,,,,,,1155.9982442583423,None,0.42,7.168621277203783,1158.9993117185077,None,4,4.1518900541123,1158.9993117185077,None,1163.167608533986,None,True,True,False,0.42,-0.5800000000000001,-0.5800000000000001,8.700000000000001,3.7,-5.000000000000001,-0.6500000000000004,gamble,win,3.7,-30.576249999999984,1166.2020558848744,None,1166.2020558848744,None,1166.2020558848744,None,1166.2020558848744,None,1166.2020558848744,None,1166.2020558848744,None,1166.2020558848744,None,1,1.5675394178833812,1166.2020558848744,None,1167.8026657707524,None,1167.8026657707524,None,1167.8026657707524,None,1167.8026657707524,None,1167.8026657707524,None,1167.8026657707524,None,1167.8026657707524,None,1171.8041776861064,None,1171.8041776861064,None,1171.8041776861064,None,1171.8041776861064,None,1171.8041776861064,None,1171.8041776861064,None,1171.8041776861064,None,1181.291096978588,None,1172.7879171567038,None,1173.7882601774763,None,0.33,7.5027324869297445,1176.7893906740937,None,None,1176.7893906740937,None,1154.514308798709,None,4,1.467465661931783,1154.514308798709,None,,,,,,,,,,,,,23999,2019_Dec_31_1403,Mmi_3levels,3.1.5,59.9740351085229,
,,,3,1,2.5,,,,,,,,,0,2,2,2,0,1,1,14,,,,,,,,,,,,,,,,,,,,,,,,,,,,,,,,,,,,,,,,,,,,,,,,,,,,,,,,,,,,,True,True,False,0.33,-0.6699999999999999,-1.25,10.629999999999999,2.5,-8.129999999999999,-2.8149999999999995,certain,certain,-2.8149999999999995,-33.391249999999985,1183.3086102377856,None,1183.3086102377856,None,1183.3086102377856,None,1183.3086102377856,None,1183.3086102377856,None,1183.3086102377856,None,1183.3086102377856,None,3,1.483882662607357,1183.3086102377856,None,1184.8257457582513,None,1184.8257457582513,None,1184.8257457582513,None,1184.8257457582513,None,1184.8257457582513,None,1184.8257457582513,None,1184.8257457582513,None,1188.8273354292614,None,1188.8273354292614,None,1188.8273354292614,None,1188.8273354292614,None,1188.8273354292614,None,1188.8273354292614,None,1188.8273354292614,None,1189.8110054637073,None,,,,,,,,,,,,,,,,,,,,,,,,,,,,,,23999,2019_Dec_31_1403,Mmi_3levels,3.1.5,59.9740351085229,
,,,3,1,11.1,,,,,,,,,0,2,2,2,0,2,2,13,,,,,,,,,,,,,,,,,,,,,,,,,,,,,,,,,,,,,,,,,,,,,,,,,,,,,,,,,,,,,True,False,True,0.33,-0.6699999999999999,-1.92,-2.505,11.1,8.594999999999999,4.297499999999999,gamble,lose,8.594999999999999,-24.796249999999986,1191.8284192085266,None,1191.8284192085266,None,1191.8284192085266,None,1191.8284192085266,None,1191.8284192085266,None,1191.8284192085266,None,1191.8284192085266,None,1,1.3839781772112474,1191.8284192085266,None,1193.2456259250175,None,1193.2456259250175,None,1193.2456259250175,None,1193.2456259250175,None,1193.2456259250175,None,1193.2456259250175,None,1193.2456259250175,None,1197.230461654137,None,1197.230461654137,None,1197.230461654137,None,1197.230461654137,None,1197.230461654137,None,1197.230461654137,None,1197.230461654137,None,1198.230842432822,None,,,,,,,,,,,,,,,,,,,,,,,,,,,,,,23999,2019_Dec_31_1403,Mmi_3levels,3.1.5,59.9740351085229,
,,,3,1,8.5,,,,,,,,,0,2,2,2,0,3,3,4,,,,,,,,,,,,,,,,,,,,,,,,,,,,,,,,,,,,,,,,,,,,,,,,,,,,,,,,,,,,,True,True,True,0.33,-0.6699999999999999,-2.59,11.969999999999999,8.5,-3.469999999999999,-1.7349999999999994,gamble,win,8.5,-16.296249999999986,1200.2483896102058,None,1200.2483896102058,None,1200.2483896102058,None,1200.2483896102058,None,1200.2483896102058,None,1200.2483896102058,None,1200.2483896102058,None,1,1.3173294295556843,1200.2483896102058,None,1201.598813186516,None,1201.598813186516,None,1201.598813186516,None,1201.598813186516,None,1201.598813186516,None,1201.598813186516,None,1201.598813186516,None,1205.6003167822491,None,1205.6003167822491,None,1205.6003167822491,None,1205.6003167822491,None,1205.6003167822491,None,1205.6003167822491,None,1205.6003167822491,None,1215.0872187957866,None,1206.584005375742,None,1207.58438263461,None,0.4,7.502733126981184,1210.585503211827,None,None,1210.585503211827,None,,,,,,,,,,,,,,,,,,,23999,2019_Dec_31_1403,Mmi_3levels,3.1.5,59.9740351085229,
,,,3,1,5.7,,,,,,,,,0,2,2,2,0,4,4,1,,,,,,,,,,,,,,,,,,,,,,,,,,,,,,,,,,,,,,,,,,,,,,,,,,,,,,,,,,,,,True,True,True,0.4,-0.6,-3.19,11.59,5.7,-5.89,-0.09499999999999975,certain,certain,-0.09499999999999975,-16.391249999999985,1217.1046827777755,None,1217.1046827777755,None,1217.1046827777755,None,1217.1046827777755,None,1217.1046827777755,None,1217.1046827777755,None,1217.1046827777755,None,3,1.9009396273177117,1217.1046827777755,None,1219.0387248714687,None,1219.0387248714687,None,1219.0387248714687,None,1219.0387248714687,None,1219.0387248714687,None,1219.0387248714687,None,1219.0387248714687,None,1223.023559960653,None,1223.023559960653,None,1223.023559960653,None,1223.023559960653,None,1223.023559960653,None,1223.023559960653,None,1223.023559960653,None,1224.0239391394425,None,,,,,,,,,,,,,,,,,,,,,,,,,,,,,,23999,2019_Dec_31_1403,Mmi_3levels,3.1.5,59.9740351085229,
,,,3,1,11.7,,,,,,,,,0,2,2,2,0,5,5,20,,,,,,,,,,,,,,,,,,,,,,,,,,,,,,,,,,,,,,,,,,,,,,,,,,,,,,,,,,,,,True,False,True,0.4,-0.6,-3.79,-2.4158333333333335,11.7,9.284166666666666,4.642083333333333,gamble,lose,9.284166666666666,-7.107083333333319,1226.0413813627092,None,1226.0413813627092,None,1226.0413813627092,None,1226.0413813627092,None,1226.0413813627092,None,1226.0413813627092,None,1226.0413813627092,None,1,1.9343390370486304,1226.0413813627092,None,1228.0087828681571,None,1228.0087828681571,None,1228.0087828681571,None,1228.0087828681571,None,1228.0087828681571,None,1228.0087828681571,None,1228.0087828681571,None,1231.9936489956453,None,1231.9936489956453,None,1231.9936489956453,None,1231.9936489956453,None,1231.9936489956453,None,1231.9936489956453,None,1231.9936489956453,None,1241.513884502463,None,1232.994027214474,None,1233.9944300719071,None,0.48,7.5193133185384795,1236.9955522491364,None,None,1236.9955522491364,None,,,,,,,,,,,,,,,,,,,23999,2019_Dec_31_1403,Mmi_3levels,3.1.5,59.9740351085229,
,,,3,1,6.1,,,,,,,,,0,2,2,2,0,6,6,18,,,,,,,,,,,,,,,,,,,,,,,,,,,,,,,,,,,,,,,,,,,,,,,,,,,,,,,,,,,,,True,False,True,0.48,-0.52,-4.3100000000000005,-2.1791666666666667,6.1,3.920833333333333,1.9604166666666665,gamble,lose,3.920833333333333,-3.1862499999999865,1243.5313209660817,None,1243.5313209660817,None,1243.5313209660817,None,1243.5313209660817,None,1243.5313209660817,None,1243.5313209660817,None,1243.5313209660817,None,1,0.6838769029127434,1243.5313209660817,None,1244.2482564976672,None,1244.2482564976672,None,1244.2482564976672,None,1244.2482564976672,None,1244.2482564976672,None,1244.2482564976672,None,1244.2482564976672,None,1248.2331395841902,None,1248.2331395841902,None,1248.2331395841902,None,1248.2331395841902,None,1248.2331395841902,None,1248.2331395841902,None,1248.2331395841902,None,1249.2334790851455,None,,,,,,,,,,,,,,,,,,,,,,,,,,,,,,23999,2019_Dec_31_1403,Mmi_3levels,3.1.5,59.9740351085229,
,,,3,1,13.1,,,,,,,,,0,2,2,2,0,7,7,5,,,,,,,,,,,,,,,,,,,,,,,,,,,,,,,,,,,,,,,,,,,,,,,,,,,,,,,,,,,,,True,True,False,0.48,-0.52,-4.83,12.11,13.1,0.9900000000000002,0.4950000000000001,gamble,win,13.1,9.913750000000013,1251.2509670658037,None,1251.2509670658037,None,1251.2509670658037,None,1251.2509670658037,None,1251.2509670658037,None,1251.2509670658037,None,1251.2509670658037,None,1,1.1172820721985772,1251.2509670658037,None,1252.4013458446134,None,1252.4013458446134,None,1252.4013458446134,None,1252.4013458446134,None,1252.4013458446134,None,1252.4013458446134,None,1252.4013458446134,None,1256.3861866935622,None,1256.3861866935622,None,1256.3861866935622,None,1256.3861866935622,None,1256.3861866935622,None,1256.3861866935622,None,1256.3861866935622,None,1265.8898423288483,None,1257.3866186693776,None,1258.386978649185,None,0.5,7.502658251207322,1261.388071708032,None,None,1261.388071708032,None,,,,,,,,,,,,,,,,,,,23999,2019_Dec_31_1403,Mmi_3levels,3.1.5,59.9740351085229,
,,,3,1,3.3,,,,,,,,,0,2,2,2,0,8,8,19,,,,,,,,,,,,,,,,,,,,,,,,,,,,,,,,,,,,,,,,,,,,,,,,,,,,,,,,,,,,,True,False,True,0.5,-0.5,-5.33,-2.194166666666667,3.3,1.105833333333333,0.5529166666666665,gamble,lose,1.105833333333333,11.019583333333346,1267.9072685529245,None,1267.9072685529245,None,1267.9072685529245,None,1267.9072685529245,None,1267.9072685529245,None,1267.9072685529245,None,1267.9072685529245,None,1,1.3006670026807114,1267.9072685529245,None,1269.2243970338022,None,1269.2243970338022,None,1269.2243970338022,None,1269.2243970338022,None,1269.2243970338022,None,1269.2243970338022,None,1269.2243970338022,None,1273.2258919901215,None,1273.2258919901215,None,1273.2258919901215,None,1273.2258919901215,None,1273.2258919901215,None,1273.2258919901215,None,1273.2258919901215,None,1274.2263306855457,None,,,,,,,,,,,,,,,,,,,,,,,,,,,,,,23999,2019_Dec_31_1403,Mmi_3levels,3.1.5,59.9740351085229,
,,,3,1,0.7,,,,,,,,,0,2,2,2,0,9,9,10,,,,,,,,,,,,,,,,,,,,,,,,,,,,,,,,,,,,,,,,,,,,,,,,,,,,,,,,,,,,,True,True,False,0.5,-0.5,-5.83,12.83,0.7,-12.13,-5.715000000000001,certain,certain,-5.715000000000001,5.304583333333345,1276.243714352022,None,1276.243714352022,None,1276.243714352022,None,1276.243714352022,None,1276.243714352022,None,1276.243714352022,None,1276.243714352022,None,3,1.5676818097708747,1276.243714352022,None,1277.8443648755783,None,1277.8443648755783,None,1277.8443648755783,None,1277.8443648755783,None,1277.8443648755783,None,1277.8443648755783,None,1277.8443648755783,None,1281.8458243138157,None,1281.8458243138157,None,1281.8458243138157,None,1281.8458243138157,None,1281.8458243138157,None,1281.8458243138157,None,1281.8458243138157,None,1282.8295289063826,None,,,,,,,,,,,,,,,,,,,,,,,,,,,,,,23999,2019_Dec_31_1403,Mmi_3levels,3.1.5,59.9740351085229,
,,,3,1,4.9,,,,,,,,,0,2,2,2,0,10,10,11,,,,,,,,,,,,,,,,,,,,,,,,,,,,,,,,,,,,,,,,,,,,,,,,,,,,,,,,,,,,,True,False,True,0.5,-0.5,-6.33,-2.2775,4.9,2.6225000000000005,1.3112500000000002,gamble,lose,2.6225000000000005,7.9270833333333455,1284.846958650276,None,1284.846958650276,None,1284.846958650276,None,1284.846958650276,None,1284.846958650276,None,1284.846958650276,None,1284.846958650276,None,1,0.7672101563075557,1284.846958650276,None,1285.6472632732475,None,1285.6472632732475,None,1285.6472632732475,None,1285.6472632732475,None,1285.6472632732475,None,1285.6472632732475,None,1285.6472632732475,None,1289.632117561414,None,1289.632117561414,None,1289.632117561414,None,1289.632117561414,None,1289.632117561414,None,1289.632117561414,None,1289.632117561414,None,1299.1356788020348,None,1290.632524898625,None,1291.632917516632,None,0.5,7.5027462461730465,1294.634031694266,None,None,1294.634031694266,None,,,,,,,,,,,,,,,,,,,23999,2019_Dec_31_1403,Mmi_3levels,3.1.5,59.9740351085229,
,,,3,1,0.1,,,,,,,,,0,2,2,2,0,11,11,2,,,,,,,,,,,,,,,,,,,,,,,,,,,,,,,,,,,,,,,,,,,,,,,,,,,,,,,,,,,,,True,False,False,0.5,-0.5,-6.83,-2.319166666666667,0.1,-2.2191666666666667,-1.0595833333333333,certain,certain,-1.0595833333333333,6.867500000000012,1301.153185021598,None,1301.153185021598,None,1301.153185021598,None,1301.153185021598,None,1301.153185021598,None,1301.153185021598,None,1301.153185021598,None,3,2.9346836577169597,1301.153185021598,None,1304.1209759453777,None,1304.1209759453777,None,1304.1209759453777,None,1304.1209759453777,None,1304.1209759453777,None,1304.1209759453777,None,1304.1209759453777,None,1308.1224533026107,None,1308.1224533026107,None,1308.1224533026107,None,1308.1224533026107,None,1308.1224533026107,None,1308.1224533026107,None,1308.1224533026107,None,1309.1061646147864,None,,,,,,,,,,,,,,,,,,,,,,,,,,,,,,23999,2019_Dec_31_1403,Mmi_3levels,3.1.5,59.9740351085229,
,,,3,1,2.9,,,,,,,,,0,2,2,2,0,12,12,24,,,,,,,,,,,,,,,,,,,,,,,,,,,,,,,,,,,,,,,,,,,,,,,,,,,,,,,,,,,,,True,True,False,0.5,-0.5,-7.33,14.33,2.9,-11.43,-4.265,certain,certain,-4.265,2.6025000000000125,1311.1236279568402,None,1311.1236279568402,None,1311.1236279568402,None,1311.1236279568402,None,1311.1236279568402,None,1311.1236279568402,None,1311.1236279568402,None,3,1.8342137640574947,1311.1236279568402,None,1312.990942587261,None,1312.990942587261,None,1312.990942587261,None,1312.990942587261,None,1312.990942587261,None,1312.990942587261,None,1312.990942587261,None,1316.9925149792107,None,1316.9925149792107,None,1316.9925149792107,None,1316.9925149792107,None,1316.9925149792107,None,1316.9925149792107,None,1316.9925149792107,None,1326.4793846744578,None,1317.976192693226,None,1318.9765395538416,None,0.37,7.50271296815481,1321.9777254073415,None,None,1321.9777254073415,None,,,,,,,,,,,,,,,,,,,23999,2019_Dec_31_1403,Mmi_3levels,3.1.5,59.9740351085229,
,,,3,1,7.1,,,,,,,,,0,2,2,2,0,13,13,6,,,,,,,,,,,,,,,,,,,,,,,,,,,,,,,,,,,,,,,,,,,,,,,,,,,,,,,,,,,,,True,True,True,0.37,-0.63,-7.96,16.78,7.1,-9.680000000000001,-1.290000000000001,certain,certain,-1.290000000000001,1.3125000000000115,1328.4968137784163,None,1328.4968137784163,None,1328.4968137784163,None,1328.4968137784163,None,1328.4968137784163,None,1328.4968137784163,None,1328.4968137784163,None,3,1.3174139048205689,1328.4968137784163,None,1329.847353828256,None,1329.847353828256,None,1329.847353828256,None,1329.847353828256,None,1329.847353828256,None,1329.847353828256,None,1329.847353828256,None,1333.8488923020195,None,1333.8488923020195,None,1333.8488923020195,None,1333.8488923020195,None,1333.8488923020195,None,1333.8488923020195,None,1333.8488923020195,None,1334.8325463373912,None,,,,,,,,,,,,,,,,,,,,,,,,,,,,,,23999,2019_Dec_31_1403,Mmi_3levels,3.1.5,59.9740351085229,
,,,3,1,8.7,,,,,,,,,0,2,2,2,0,14,14,23,,,,,,,,,,,,,,,,,,,,,,,,,,,,,,,,,,,,,,,,,,,,,,,,,,,,,,,,,,,,,True,True,True,0.37,-0.63,-8.59,17.41,8.7,-8.71,-0.005000000000000782,certain,certain,-0.005000000000000782,1.3075000000000108,1336.849998800084,None,1336.849998800084,None,1336.849998800084,None,1336.849998800084,None,1336.849998800084,None,1336.849998800084,None,1336.849998800084,None,3,1.6508832304971293,1336.849998800084,None,1338.533964977949,None,1338.533964977949,None,1338.533964977949,None,1338.533964977949,None,1338.533964977949,None,1338.533964977949,None,1338.533964977949,None,1342.5354583343724,None,1342.5354583343724,None,1342.5354583343724,None,1342.5354583343724,None,1342.5354583343724,None,1342.5354583343724,None,1342.5354583343724,None,1343.5191958850482,None,,,,,,,,,,,,,,,,,,,,,,,,,,,,,,23999,2019_Dec_31_1403,Mmi_3levels,3.1.5,59.9740351085229,
,,,3,1,11.3,,,,,,,,,0,2,2,2,0,15,15,25,,,,,,,,,,,,,,,,,,,,,,,,,,,,,,,,,,,,,,,,,,,,,,,,,,,,,,,,,,,,,True,True,False,0.37,-0.63,-9.22,18.04,11.3,-6.739999999999998,-3.369999999999999,certain,certain,-3.369999999999999,-2.0624999999999885,1345.5365920308977,None,1345.5365920308977,None,1345.5365920308977,None,1345.5365920308977,None,1345.5365920308977,None,1345.5365920308977,None,1345.5365920308977,None,3,0.9673064708476886,1345.5365920308977,None,1346.5370003279531,None,1346.5370003279531,None,1346.5370003279531,None,1346.5370003279531,None,1346.5370003279531,None,1346.5370003279531,None,1346.5370003279531,None,1350.5218136584153,None,1350.5218136584153,None,1350.5218136584153,None,1350.5218136584153,None,1350.5218136584153,None,1350.5218136584153,None,1350.5218136584153,None,1360.0254152168054,None,1351.5222453143215,None,1352.5226244929945,None,0.34,7.502687689498998,1355.5236951530678,None,None,1355.5236951530678,None,,,,,,,,,,,,,,,,,,,23999,2019_Dec_31_1403,Mmi_3levels,3.1.5,59.9740351085229,
,,,3,1,12.5,,,,,,,,,0,2,2,2,0,16,16,8,,,,,,,,,,,,,,,,,,,,,,,,,,,,,,,,,,,,,,,,,,,,,,,,,,,,,,,,,,,,,True,True,False,0.34,-0.6599999999999999,-9.88,19.119999999999997,12.5,-6.619999999999997,-3.3099999999999987,gamble,win,12.5,10.43750000000001,1362.0428446406731,None,1362.0428446406731,None,1362.0428446406731,None,1362.0428446406731,None,1362.0428446406731,None,1362.0428446406731,None,1362.0428446406731,None,None,,1362.0428446406731,None,1365.0439882567152,None,1365.0439882567152,None,1365.0439882567152,None,1365.0439882567152,None,1365.0439882567152,None,1365.0439882567152,None,1365.0439882567152,None,1369.0454905725783,None,1369.0454905725783,None,1369.0454905725783,None,1369.0454905725783,None,1369.0454905725783,None,1369.0454905725783,None,1369.0454905725783,None,1370.029201884754,None,,,,,,,,,,,,,,,,,,,,,,,,,,,,,,23999,2019_Dec_31_1403,Mmi_3levels,3.1.5,59.9740351085229,
,,,3,1,12.9,,,,,,,,,0,2,2,2,0,17,17,21,,,,,,,,,,,,,,,,,,,,,,,,,,,,,,,,,,,,,,,,,,,,,,,,,,,,,,,,,,,,,True,False,False,0.34,-0.6599999999999999,-10.540000000000001,-3.188333333333333,12.9,9.711666666666668,4.855833333333334,gamble,lose,9.711666666666668,20.14916666666668,1372.0466300287517,None,1372.0466300287517,None,1372.0466300287517,None,1372.0466300287517,None,1372.0466300287517,None,1372.0466300287517,None,1372.0466300287517,None,1,0.9173262297408655,1372.0466300287517,None,1372.9969940884039,None,1372.9969940884039,None,1372.9969940884039,None,1372.9969940884039,None,1372.9969940884039,None,1372.9969940884039,None,1372.9969940884039,None,1376.99850152398,None,1376.99850152398,None,1376.99850152398,None,1376.99850152398,None,1376.99850152398,None,1376.99850152398,None,1376.99850152398,None,1386.4854320158483,None,1377.9822534738341,None,1378.9825926548801,None,0.4,7.50273632677272,1381.9837145119673,None,None,1381.9837145119673,None,,,,,,,,,,,,,,,,,,,23999,2019_Dec_31_1403,Mmi_3levels,3.1.5,59.9740351085229,
,,,3,1,-1.5,,,,,,,,,0,2,2,2,0,18,18,3,,,,,,,,,,,,,,,,,,,,,,,,,,,,,,,,,,,,,,,,,,,,,,,,,,,,,,,,,,,,,True,True,False,0.4,-0.6,-11.14,19.54,-1.5,-21.04,-11.27,gamble,win,-1.5,18.64916666666668,1388.5028591998853,None,1388.5028591998853,None,1388.5028591998853,None,1388.5028591998853,None,1388.5028591998853,None,1388.5028591998853,None,1388.5028591998853,None,None,,1388.5028591998853,None,1391.503985216841,None,1391.503985216841,None,1391.503985216841,None,1391.503985216841,None,1391.503985216841,None,1391.503985216841,None,1391.503985216841,None,1395.5055092915427,None,1395.5055092915427,None,1395.5055092915427,None,1395.5055092915427,None,1395.5055092915427,None,1395.5055092915427,None,1395.5055092915427,None,1396.4892132440582,None,,,,,,,,,,,,,,,,,,,,,,,,,,,,,,23999,2019_Dec_31_1403,Mmi_3levels,3.1.5,59.9740351085229,
,,,3,1,-0.7,,,,,,,,,0,2,2,2,0,19,19,26,,,,,,,,,,,,,,,,,,,,,,,,,,,,,,,,,,,,,,,,,,,,,,,,,,,,,,,,,,,,,True,True,False,0.4,-0.6,-11.74,20.14,-0.7,-20.84,-10.77,certain,certain,-10.77,7.879166666666681,1398.5066452278988,None,1398.5066452278988,None,1398.5066452278988,None,1398.5066452278988,None,1398.5066452278988,None,1398.5066452278988,None,1398.5066452278988,None,3,1.400916108628735,1398.5066452278988,None,1399.9405806075083,None,1399.9405806075083,None,1399.9405806075083,None,1399.9405806075083,None,1399.9405806075083,None,1399.9405806075083,None,1399.9405806075083,None,1403.9420870831236,None,1403.9420870831236,None,1403.9420870831236,None,1403.9420870831236,None,1403.9420870831236,None,1403.9420870831236,None,1403.9420870831236,None,1413.4289766172878,None,1404.925758397556,None,1405.9261202972848,None,0.49,7.502728007151745,1408.9272898318013,None,None,1408.9272898318013,None,,,,,,,,,,,,,,,,,,,23999,2019_Dec_31_1403,Mmi_3levels,3.1.5,59.9740351085229,
,,,3,1,5.5,,,,,,,,,0,2,2,2,0,20,20,9,,,,,,,,,,,,,,,,,,,,,,,,,,,,,,,,,,,,,,,,,,,,,,,,,,,,,,,,,,,,,True,True,True,0.49,-0.51,-12.25,19.39,5.5,-13.89,-4.195,certain,certain,-4.195,3.6841666666666804,1415.4463894022629,None,1415.4463894022629,None,1415.4463894022629,None,1415.4463894022629,None,1415.4463894022629,None,1415.4463894022629,None,1415.4463894022629,None,3,2.0344127928838134,1415.4463894022629,None,1417.5138870623196,None,1417.5138870623196,None,1417.5138870623196,None,1417.5138870623196,None,1417.5138870623196,None,1417.5138870623196,None,1417.5138870623196,None,1421.498708392377,None,1421.498708392377,None,1421.498708392377,None,1421.498708392377,None,1421.498708392377,None,1421.498708392377,None,1421.498708392377,None,1422.499075411819,None,,,,,,,,,,,,,,,,,,,,,,,,,,,,,,23999,2019_Dec_31_1403,Mmi_3levels,3.1.5,59.9740351085229,
,,,3,1,13.9,,,,,,,,,0,2,2,2,0,21,21,15,,,,,,,,,,,,,,,,,,,,,,,,,,,,,,,,,,,,,,,,,,,,,,,,,,,,,,,,,,,,,True,False,False,0.49,-0.51,-12.76,-2.8483333333333336,13.9,11.051666666666666,5.525833333333333,gamble,lose,11.051666666666666,14.735833333333346,1424.516501635895,None,1424.516501635895,None,1424.516501635895,None,1424.516501635895,None,1424.516501635895,None,1424.516501635895,None,1424.516501635895,None,1,0.8338857823982835,1424.516501635895,None,1425.3834828450345,None,1425.3834828450345,None,1425.3834828450345,None,1425.3834828450345,None,1425.3834828450345,None,1425.3834828450345,None,1425.3834828450345,None,1429.3683256137883,None,1429.3683256137883,None,1429.3683256137883,None,1429.3683256137883,None,1429.3683256137883,None,1429.3683256137883,None,1429.3683256137883,None,1430.3687255913392,None,,,,,,,,,,,,,,,,,,,,,,,,,,,,,,23999,2019_Dec_31_1403,Mmi_3levels,3.1.5,59.9740351085229,
,,,3,1,11.5,,,,,,,,,0,2,2,2,0,22,22,17,,,,,,,,,,,,,,,,,,,,,,,,,,,,,,,,,,,,,,,,,,,,,,,,,,,,,,,,,,,,,True,False,True,0.49,-0.51,-13.27,-2.890833333333333,11.5,8.609166666666667,4.304583333333333,gamble,lose,8.609166666666667,23.345000000000013,1432.3861486157402,None,1432.3861486157402,None,1432.3861486157402,None,1432.3861486157402,None,1432.3861486157402,None,1432.3861486157402,None,1432.3861486157402,None,1,0.8839012214448303,1432.3861486157402,None,1433.3031471837312,None,1433.3031471837312,None,1433.3031471837312,None,1433.3031471837312,None,1433.3031471837312,None,1433.3031471837312,None,1433.3031471837312,None,1437.3046750981594,None,1437.3046750981594,None,1437.3046750981594,None,1437.3046750981594,None,1437.3046750981594,None,1437.3046750981594,None,1437.3046750981594,None,1446.7916311887093,None,1438.288380650687,None,1439.2887742286548,None,0.34,7.502765765180811,1442.2899450430414,None,None,1442.2899450430414,None,,,,,,,,,,,,,,,,,,,23999,2019_Dec_31_1403,Mmi_3levels,3.1.5,59.9740351085229,
,,,3,1,6.9,,,,,,,,,0,2,2,2,0,23,23,7,,,,,,,,,,,,,,,,,,,,,,,,,,,,,,,,,,,,,,,,,,,,,,,,,,,,,,,,,,,,,True,False,False,0.34,-0.6599999999999999,-13.93,-3.470833333333333,6.9,3.429166666666667,1.7145833333333336,gamble,lose,3.429166666666667,26.77416666666668,1448.8090190149378,None,1448.8090190149378,None,1448.8090190149378,None,1448.8090190149378,None,1448.8090190149378,None,1448.8090190149378,None,1448.8090190149378,None,1,0.8005577287403867,1448.8090190149378,None,1449.6427236874588,None,1449.6427236874588,None,1449.6427236874588,None,1449.6427236874588,None,1449.6427236874588,None,1449.6427236874588,None,1449.6427236874588,None,1453.6275114193559,None,1453.6275114193559,None,1453.6275114193559,None,1453.6275114193559,None,1453.6275114193559,None,1453.6275114193559,None,1453.6275114193559,None,1454.6278835585108,None,,,,,,,,,,,,,,,,,,,,,,,,,,,,,,23999,2019_Dec_31_1403,Mmi_3levels,3.1.5,59.9740351085229,
,,,3,1,-0.5,,,,,,,,,0,2,2,2,0,24,24,22,,,,,,,,,,,,,,,,,,,,,,,,,,,,,,,,,,,,,,,,,,,,,,,,,,,,,,,,,,,,,True,True,True,0.34,-0.6599999999999999,-14.59,23.83,-0.5,-24.33,-12.415,gamble,win,-0.5,26.27416666666668,1456.6453676994424,None,1456.6453676994424,None,1456.6453676994424,None,1456.6453676994424,None,1456.6453676994424,None,1456.6453676994424,None,1456.6453676994424,None,None,,1456.6453676994424,None,1459.6464466790203,None,1459.6464466790203,None,1459.6464466790203,None,1459.6464466790203,None,1459.6464466790203,None,1459.6464466790203,None,1459.6464466790203,None,1463.6479742734227,None,1463.6479742734227,None,1463.6479742734227,None,1463.6479742734227,None,1463.6479742734227,None,1463.6479742734227,None,1463.6479742734227,None,1473.1348855664255,None,1464.631725583342,None,1465.6320538850268,None,0.49,7.502727687242441,1468.6332240594784,None,None,1468.6332240594784,None,,,,,,,,,,,,,,,,,,,23999,2019_Dec_31_1403,Mmi_3levels,3.1.5,59.9740351085229,
,,,3,1,12.3,,,,,,,,,0,2,2,2,0,25,25,12,,,,,,,,,,,,,,,,,,,,,,,,,,,,,,,,,,,,,,,,,,,,,,,,,,,,,,,,,,,,,True,True,True,0.49,-0.51,-15.1,22.240000000000002,12.3,-9.940000000000001,1.1799999999999997,gamble,win,12.3,38.574166666666684,1475.1523617077619,None,1475.1523617077619,None,1475.1523617077619,None,1475.1523617077619,None,1475.1523617077619,None,1475.1523617077619,None,1475.1523617077619,None,1,1.15063988417387,1475.1523617077619,None,1476.3361034182599,None,1476.3361034182599,None,1476.3361034182599,None,1476.3361034182599,None,1476.3361034182599,None,1476.3361034182599,None,1476.3361034182599,None,1480.3376137336018,None,1480.3376137336018,None,1480.3376137336018,None,1480.3376137336018,None,1480.3376137336018,None,1480.3376137336018,None,1480.3376137336018,None,1481.3213231259724,None,,,,,,,,,,,,,,,,,,,,,,,,,,,,,,23999,2019_Dec_31_1403,Mmi_3levels,3.1.5,59.9740351085229,
,,,3,1,0.9,,,,,,,,,0,2,2,2,0,26,26,0,,,,,,,,,,,,,,,,,,,,,,,,,,,,,,,,,,,,,,,,,,,,,,,,,,,,,,,,,,,,,True,True,True,0.49,-0.51,-15.61,22.75,0.9,-21.85,-10.475000000000001,certain,certain,-10.475000000000001,28.099166666666683,1483.3387903077528,None,1483.3387903077528,None,1483.3387903077528,None,1483.3387903077528,None,1483.3387903077528,None,1483.3387903077528,None,1483.3387903077528,None,3,1.7675925347721204,1483.3387903077528,None,1485.1394142728532,None,1485.1394142728532,None,1485.1394142728532,None,1485.1394142728532,None,1485.1394142728532,None,1485.1394142728532,None,1485.1394142728532,None,1489.1409684257815,None,1489.1409684257815,None,1489.1409684257815,None,1489.1409684257815,None,1489.1409684257815,None,1489.1409684257815,None,1489.1409684257815,None,1498.62788259855,None,1490.1247037366265,None,1491.1250845153118,None,0.37,7.502743686316535,1494.1261522955028,None,None,1494.1261522955028,None,,,,,,,,,,,,,,,,,,,23999,2019_Dec_31_1403,Mmi_3levels,3.1.5,59.9740351085229,
,,,,,,,,,,,,,,,,,,,,,,,,,,,,,,0,0,0,0,,,,,,,,,,,,,,,,,,,,,,,,,,,,,,,,,,,,,,,,,,,,,,,,,,,,,,,,,,,,,,,,,,,,,,,,,,,,,,,,,,,,,,,,,,,,,,,,,,,,,,,,,,,,,,,,,,,,,,,,,,1500.6286191972904,None,4,1.750932987779379,1500.6286191972904,None,28.099166666666683,2,1502.4126504915766,None,1502.4126504915766,None,1502.4126504915766,None,4,3.4348217300139368,1502.4126504915766,None,23999,2019_Dec_31_1403,Mmi_3levels,3.1.5,59.9740351085229,
