currSlide,currImage,currText,blockNum,targetHappiness,highAmount,instructionLoop1.thisRepN,instructionLoop1.thisTrialN,instructionLoop1.thisN,instructionLoop1.thisIndex,instructionLoop2.thisRepN,instructionLoop2.thisTrialN,instructionLoop2.thisN,instructionLoop2.thisIndex,blockLoop.thisRepN,blockLoop.thisTrialN,blockLoop.thisN,blockLoop.thisIndex,trialLoop.thisRepN,trialLoop.thisTrialN,trialLoop.thisN,trialLoop.thisIndex,doRatingLoop.thisRepN,doRatingLoop.thisTrialN,doRatingLoop.thisN,doRatingLoop.thisIndex,trialHappyLoop.thisRepN,trialHappyLoop.thisTrialN,trialHappyLoop.thisN,trialHappyLoop.thisIndex,logWinningsLoop.thisRepN,logWinningsLoop.thisTrialN,logWinningsLoop.thisN,logWinningsLoop.thisIndex,instrImage.started,instrImage.stopped,instrText.started,instrText.stopped,instrContinueText.started,instrContinueText.stopped,instrKeyResp.keys,instrKeyResp.rt,instrKeyResp.started,instrKeyResp.stopped,lifeHappyText.started,lifeHappyText.stopped,lifeHappySlider.response,lifeHappySlider.rt,lifeHappySlider.started,lifeHappySlider.stopped,lifeHappyResp.keys,lifeHappyResp.started,lifeHappyResp.stopped,instrImage_2.started,instrImage_2.stopped,instrText_2.started,instrText_2.stopped,instrContinueText_2.started,instrContinueText_2.stopped,instrKeyResp_2.keys,instrKeyResp_2.rt,instrKeyResp_2.started,instrKeyResp_2.stopped,localizing.started,localizing.stopped,start_exp.keys,start_exp.rt,start_exp.started,start_exp.stopped,blockHappyText.started,blockHappyText.stopped,blockHappySlider.response,blockHappySlider.rt,blockHappySlider.started,blockHappySlider.stopped,blockHappyResp.keys,blockHappyResp.started,blockHappyResp.stopped,blankText.started,blankText.stopped,isHappyBlock,isCongruent,isWinOnTop,lastHappyRating,diff,sumDiff,RPE,winAmount,loseAmount,certainAmount,choice,outcome,outcomeAmount,currentWinnings,fixCross.started,fixCross.stopped,certainBox.started,certainBox.stopped,outcome1Box.started,outcome1Box.stopped,outcome2Box.started,outcome2Box.stopped,certainText.started,certainText.stopped,outcome1Text.started,outcome1Text.stopped,outcome2Text.started,outcome2Text.stopped,choiceKey.keys,choiceKey.rt,choiceKey.started,choiceKey.stopped,fixCross_2.started,fixCross_2.stopped,certainBox_2.started,certainBox_2.stopped,outcome1Box_2.started,outcome1Box_2.stopped,outcome2Box_2.started,outcome2Box_2.stopped,certainText_2.started,certainText_2.stopped,outcome1Text_2.started,outcome1Text_2.stopped,outcome2Text_2.started,outcome2Text_2.stopped,fixCross_3.started,fixCross_3.stopped,certainBox_3.started,certainBox_3.stopped,outcome1Box_3.started,outcome1Box_3.stopped,outcome2Box_3.started,outcome2Box_3.stopped,certainText_3.started,certainText_3.stopped,outcome1Text_3.started,outcome1Text_3.stopped,outcome2Text_3.started,outcome2Text_3.stopped,fixCross_ITI.started,fixCross_ITI.stopped,fixCross_ISI.started,fixCross_ISI.stopped,happyText.started,happyText.stopped,happySlider.response,happySlider.rt,happySlider.started,happySlider.stopped,happyResp.keys,happyResp.started,happyResp.stopped,endOfBlockText.started,endOfBlockText.stopped,restKeyResp.keys,restKeyResp.rt,restKeyResp.started,restKeyResp.stopped,finalWinnings,cashBonus,goodbyeText.started,goodbyeText.stopped,finalWinningsText.started,finalWinningsText.stopped,spaceToContinue.started,spaceToContinue.stopped,goodbyeKeyResp_2.keys,goodbyeKeyResp_2.rt,goodbyeKeyResp_2.started,goodbyeKeyResp_2.stopped,participant,date,expName,psychopyVersion,frameRate,
1,black.png,"Welcome! You are about to play our gambling task.
This task has 3 blocks and takes about 15 minutes.",,,,0,0,0,0,,,,,,,,,,,,,,,,,,,,,,,,,11.70717304086429,None,11.70717304086429,None,11.70717304086429,None,space,8.421287197445054,11.70717304086429,None,,,,,,,,,,,,,,,,,,,,,,,,,,,,,,,,,,,,,,,,,,,,,,,,,,,,,,,,,,,,,,,,,,,,,,,,,,,,,,,,,,,,,,,,,,,,,,,,,,,,,,,,,,,,,,,,,,,,,,,,,,,,,,,,24175,2019_Oct_07_1724,Mmi_3levels,3.1.5,59.993165895262294,
2,black.png,"In this game, you may win or lose points. Your goal is to get as many points as possible. These points will be converted to a cash bonus at the end.
Sometimes we will ask you to rate your mood.",,,,0,1,1,1,,,,,,,,,,,,,,,,,,,,,,,,,20.17835166741861,None,20.17835166741861,None,20.17835166741861,None,space,0.500399981305236,20.17835166741861,None,,,,,,,,,,,,,,,,,,,,,,,,,,,,,,,,,,,,,,,,,,,,,,,,,,,,,,,,,,,,,,,,,,,,,,,,,,,,,,,,,,,,,,,,,,,,,,,,,,,,,,,,,,,,,,,,,,,,,,,,,,,,,,,,24175,2019_Oct_07_1724,Mmi_3levels,3.1.5,59.993165895262294,
3,black.png,"On the next screen, please rate how you feel about your life these days. Use the LEFT (green) and RIGHT (blue) buttons to move the slider (you can press and hold them to slide gradually) and the TOP (red) button to lock in your response.
Make your rating as accurately and quickly as you can!",,,,0,2,2,2,,,,,,,,,,,,,,,,,,,,,,,,,20.72851316386368,None,20.72851316386368,None,20.72851316386368,None,space,0.4171616302046459,20.72851316386368,None,,,,,,,,,,,,,,,,,,,,,,,,,,,,,,,,,,,,,,,,,,,,,,,,,,,,,,,,,,,,,,,,,,,,,,,,,,,,,,,,,,,,,,,,,,,,,,,,,,,,,,,,,,,,,,,,,,,,,,,,,,,,,,,,24175,2019_Oct_07_1724,Mmi_3levels,3.1.5,59.993165895262294,
,,,,,,,,,,,,,,,,,,,,,,,,,,,,,,,,,,,,,,,,,,,,21.162074667867273,None,0.77,10.502957621822134,25.163560678454814,None,None,25.163560678454814,None,,,,,,,,,,,,,,,,,,,,,,,,,,,,,,,,,,,,,,,,,,,,,,,,,,,,,,,,,,,,,,,,,,,,,,,,,,,,,,,,,,,,,,,,,,,,,,,,,,,,,,,,,,,,,,,,,,,,,,,24175,2019_Oct_07_1724,Mmi_3levels,3.1.5,59.993165895262294,
4,black.png,"In this game you can win money by earning points according to your choices. You will decide whether to gamble a number of points or stick with a guaranteed number of points. 
Make your choice by pressing the left or right arrow key once. An example of one trial is shown on the next screen.",,,,,,,,0,0,0,0,,,,,,,,,,,,,,,,,,,,,,,,,,,,,,,,,,,,,,,,31.699514198699035,None,31.699514198699035,None,31.699514198699035,None,4,4.501973987760721,31.699514198699035,None,,,,,,,,,,,,,,,,,,,,,,,,,,,,,,,,,,,,,,,,,,,,,,,,,,,,,,,,,,,,,,,,,,,,,,,,,,,,,,,,,,,,,,,,,,,,,,,,,,,,,,,,,,,,,24175,2019_Oct_07_1724,Mmi_3levels,3.1.5,59.993165895262294,
5,example_start.png,"The GAMBLING OPTION will be shown on the RIGHT SIDE. 
Select this option using the RIGHT (blue) button on your keypad.",,,,,,,,0,1,1,1,,,,,,,,,,,,,,,,,,,,,,,,,,,,,,,,,,,,,,,,36.26793052229914,None,36.26793052229914,None,36.26793052229914,None,4,1.234079623798607,36.26793052229914,None,,,,,,,,,,,,,,,,,,,,,,,,,,,,,,,,,,,,,,,,,,,,,,,,,,,,,,,,,,,,,,,,,,,,,,,,,,,,,,,,,,,,,,,,,,,,,,,,,,,,,,,,,,,,,24175,2019_Oct_07_1724,Mmi_3levels,3.1.5,59.993165895262294,
6,example_gamble.png,"Once you select the gambling choice, the choice you made will remain on the screen.",,,,,,,,0,2,2,2,,,,,,,,,,,,,,,,,,,,,,,,,,,,,,,,,,,,,,,,37.53507164143957,None,37.53507164143957,None,37.53507164143957,None,4,1.184070120245451,37.53507164143957,None,,,,,,,,,,,,,,,,,,,,,,,,,,,,,,,,,,,,,,,,,,,,,,,,,,,,,,,,,,,,,,,,,,,,,,,,,,,,,,,,,,,,,,,,,,,,,,,,,,,,,,,,,,,,,24175,2019_Oct_07_1724,Mmi_3levels,3.1.5,59.993165895262294,
7,example_win.png,"The outcome you received will then be shown on the screen. In this example , you WON 10 points.",,,,,,,,0,3,3,3,,,,,,,,,,,,,,,,,,,,,,,,,,,,,,,,,,,,,,,,38.75216613878729,None,38.75216613878729,None,38.75216613878729,None,4,1.0673562131123617,38.75216613878729,None,,,,,,,,,,,,,,,,,,,,,,,,,,,,,,,,,,,,,,,,,,,,,,,,,,,,,,,,,,,,,,,,,,,,,,,,,,,,,,,,,,,,,,,,,,,,,,,,,,,,,,,,,,,,,24175,2019_Oct_07_1724,Mmi_3levels,3.1.5,59.993165895262294,
8,example_start.png,"The GUARANTEED OPTION will be shown on the LEFT SIDE. You are 100% guaranteed to gain or lose this amount. In this example, you have a 100% chance of winning 1 point. Select this option using the LEFT (green) button on your keyboard.",,,,,,,,0,4,4,4,,,,,,,,,,,,,,,,,,,,,,,,,,,,,,,,,,,,,,,,39.86927010770887,None,39.86927010770887,None,39.86927010770887,None,4,0.6338715055317152,39.86927010770887,None,,,,,,,,,,,,,,,,,,,,,,,,,,,,,,,,,,,,,,,,,,,,,,,,,,,,,,,,,,,,,,,,,,,,,,,,,,,,,,,,,,,,,,,,,,,,,,,,,,,,,,,,,,,,,24175,2019_Oct_07_1724,Mmi_3levels,3.1.5,59.993165895262294,
9,example_certain.png,"Once you select the guaranteed choice, your selection will remain on the screen.",,,,,,,,0,5,5,5,,,,,,,,,,,,,,,,,,,,,,,,,,,,,,,,,,,,,,,,40.5361960689188,None,40.5361960689188,None,40.5361960689188,None,4,0.8172930160653777,40.5361960689188,None,,,,,,,,,,,,,,,,,,,,,,,,,,,,,,,,,,,,,,,,,,,,,,,,,,,,,,,,,,,,,,,,,,,,,,,,,,,,,,,,,,,,,,,,,,,,,,,,,,,,,,,,,,,,,24175,2019_Oct_07_1724,Mmi_3levels,3.1.5,59.993165895262294,
10,black.png,"Please make your choices as fast as possible.
You will be given a break at the end of each block.
Let's play!",,,,,,,,0,6,6,6,,,,,,,,,,,,,,,,,,,,,,,,,,,,,,,,,,,,,,,,41.38647442392539,None,41.38647442392539,None,41.38647442392539,None,4,0.567123903951142,41.38647442392539,None,,,,,,,,,,,,,,,,,,,,,,,,,,,,,,,,,,,,,,,,,,,,,,,,,,,,,,,,,,,,,,,,,,,,,,,,,,,,,,,,,,,,,,,,,,,,,,,,,,,,,,,,,,,,,24175,2019_Oct_07_1724,Mmi_3levels,3.1.5,59.993165895262294,
,,,,,,,,,,,,,,,,,,,,,,,,,,,,,,,,,,,,,,,,,,,,,,,,,,,,,,,,,,,,,,,41.97010251681786,None,space,14.105767858505715,41.97010251681786,None,,,,,,,,,,,,,,,,,,,,,,,,,,,,,,,,,,,,,,,,,,,,,,,,,,,,,,,,,,,,,,,,,,,,,,,,,,,,,,,,,,,,,,,,,,,,,,,,,,,,,,,24175,2019_Oct_07_1724,Mmi_3levels,3.1.5,59.993165895262294,
,,,1,1,2.9,,,,,,,,,0,0,0,0,0,0,0,4,,,,,,,,,,,,,,,,,,,,,,,,,,,,,,,,,,,,,,,,,,,,,,,,56.092308647348545,None,0.73,7.496202097419882,59.110113255504984,None,None,59.110113255504984,None,63.59513923508348,None,True,True,True,0.73,-0.27,-0.27,4.050000000000001,2.9,-1.1500000000000008,0.8749999999999996,gamble,win,2.9,2.9,66.62967874141759,None,66.62967874141759,None,66.62967874141759,None,66.62967874141759,None,66.62967874141759,None,66.62967874141759,None,66.62967874141759,None,1,2.3011632096313406,66.62967874141759,None,68.96392008566181,None,68.96392008566181,None,68.96392008566181,None,68.96392008566181,None,68.96392008566181,None,68.96392008566181,None,68.96392008566181,None,72.94879151246278,None,72.94879151246278,None,72.94879151246278,None,72.94879151246278,None,72.94879151246278,None,72.94879151246278,None,72.94879151246278,None,73.94919661353924,None,,,,,,,,,,,,,,,,,,,,,,,,,,,,,,24175,2019_Oct_07_1724,Mmi_3levels,3.1.5,59.993165895262294,
,,,1,1,5.1,,,,,,,,,0,0,0,0,0,1,1,3,,,,,,,,,,,,,,,,,,,,,,,,,,,,,,,,,,,,,,,,,,,,,,,,,,,,,,,,,,,True,True,True,0.73,-0.27,-0.54,4.32,5.1,0.7799999999999994,0.3899999999999997,gamble,win,5.1,8.0,75.96667739682016,None,75.96667739682016,None,75.96667739682016,None,75.96667739682016,None,75.96667739682016,None,75.96667739682016,None,75.96667739682016,None,1,0.7338245957216714,75.96667739682016,None,76.73364828396006,None,76.73364828396006,None,76.73364828396006,None,76.73364828396006,None,76.73364828396006,None,76.73364828396006,None,76.73364828396006,None,80.71851779083954,None,80.71851779083954,None,80.71851779083954,None,80.71851779083954,None,80.71851779083954,None,80.71851779083954,None,80.71851779083954,None,81.71886945443111,None,,,,,,,,,,,,,,,,,,,,,,,,,,,,,,24175,2019_Oct_07_1724,Mmi_3levels,3.1.5,59.993165895262294,
,,,1,1,-0.9,,,,,,,,,0,0,0,0,0,2,2,17,,,,,,,,,,,,,,,,,,,,,,,,,,,,,,,,,,,,,,,,,,,,,,,,,,,,,,,,,,,True,False,True,0.73,-0.27,-0.81,-1.0125000000000002,-0.9,-1.9125,-1.40625,gamble,lose,-1.9125,6.0875,83.73628880060278,None,83.73628880060278,None,83.73628880060278,None,83.73628880060278,None,83.73628880060278,None,83.73628880060278,None,83.73628880060278,None,None,,83.73628880060278,None,86.73746026586741,None,86.73746026586741,None,86.73746026586741,None,86.73746026586741,None,86.73746026586741,None,86.73746026586741,None,86.73746026586741,None,90.73908834980102,None,90.73908834980102,None,90.73908834980102,None,90.73908834980102,None,90.73908834980102,None,90.73908834980102,None,90.73908834980102,None,100.22604351924383,None,91.72274415340507,None,92.72313581508934,None,0.6,7.502838587388396,95.72432647948153,None,None,95.72432647948153,None,,,,,,,,,,,,,,,,,,,24175,2019_Oct_07_1724,Mmi_3levels,3.1.5,59.993165895262294,
,,,1,1,3.7,,,,,,,,,0,0,0,0,0,3,3,14,,,,,,,,,,,,,,,,,,,,,,,,,,,,,,,,,,,,,,,,,,,,,,,,,,,,,,,,,,,True,False,True,0.6,-0.4,-1.21,-1.5008333333333335,3.7,2.1991666666666667,1.0995833333333334,gamble,lose,2.1991666666666667,8.286666666666667,102.2435454215447,None,102.2435454215447,None,102.2435454215447,None,102.2435454215447,None,102.2435454215447,None,102.2435454215447,None,102.2435454215447,None,1,1.117358357005287,102.2435454215447,None,103.39400079229381,None,103.39400079229381,None,103.39400079229381,None,103.39400079229381,None,103.39400079229381,None,103.39400079229381,None,103.39400079229381,None,107.39548840277712,None,107.39548840277712,None,107.39548840277712,None,107.39548840277712,None,107.39548840277712,None,107.39548840277712,None,107.39548840277712,None,108.37920820340514,None,,,,,,,,,,,,,,,,,,,,,,,,,,,,,,24175,2019_Oct_07_1724,Mmi_3levels,3.1.5,59.993165895262294,
,,,1,1,12.3,,,,,,,,,0,0,0,0,0,4,4,11,,,,,,,,,,,,,,,,,,,,,,,,,,,,,,,,,,,,,,,,,,,,,,,,,,,,,,,,,,,True,True,False,0.6,-0.4,-1.6099999999999999,7.210000000000001,12.3,5.09,2.545,gamble,win,12.3,20.586666666666666,110.3967142655165,None,110.3967142655165,None,110.3967142655165,None,110.3967142655165,None,110.3967142655165,None,110.3967142655165,None,110.3967142655165,None,1,0.6672302669903729,110.3967142655165,None,111.09698458889034,None,111.09698458889034,None,111.09698458889034,None,111.09698458889034,None,111.09698458889034,None,111.09698458889034,None,111.09698458889034,None,115.0984913984721,None,115.0984913984721,None,115.0984913984721,None,115.0984913984721,None,115.0984913984721,None,115.0984913984721,None,115.0984913984721,None,124.58555632279604,None,116.082217278803,None,117.08257470210083,None,0.56,7.502868026000215,120.08377048623515,None,None,120.08377048623515,None,,,,,,,,,,,,,,,,,,,24175,2019_Oct_07_1724,Mmi_3levels,3.1.5,59.993165895262294,
,,,1,1,6.1,,,,,,,,,0,0,0,0,0,5,5,12,,,,,,,,,,,,,,,,,,,,,,,,,,,,,,,,,,,,,,,,,,,,,,,,,,,,,,,,,,,True,True,True,0.56,-0.43999999999999995,-2.05,8.209999999999999,6.1,-2.1099999999999994,1.995,gamble,win,6.1,26.686666666666667,126.6029331109603,None,126.6029331109603,None,126.6029331109603,None,126.6029331109603,None,126.6029331109603,None,126.6029331109603,None,126.6029331109603,None,1,2.001046031131409,126.6029331109603,None,128.63706847614958,None,128.63706847614958,None,128.63706847614958,None,128.63706847614958,None,128.63706847614958,None,128.63706847614958,None,128.63706847614958,None,132.6219949403894,None,132.6219949403894,None,132.6219949403894,None,132.6219949403894,None,132.6219949403894,None,132.6219949403894,None,132.6219949403894,None,133.62234212417388,None,,,,,,,,,,,,,,,,,,,,,,,,,,,,,,24175,2019_Oct_07_1724,Mmi_3levels,3.1.5,59.993165895262294,
,,,1,1,6.9,,,,,,,,,0,0,0,0,0,6,6,19,,,,,,,,,,,,,,,,,,,,,,,,,,,,,,,,,,,,,,,,,,,,,,,,,,,,,,,,,,,True,True,True,0.56,-0.43999999999999995,-2.4899999999999998,8.649999999999999,6.9,-1.7499999999999982,-0.8749999999999991,gamble,win,6.9,33.586666666666666,135.63984018666088,None,135.63984018666088,None,135.63984018666088,None,135.63984018666088,None,135.63984018666088,None,135.63984018666088,None,135.63984018666088,None,1,0.8839052639377769,135.63984018666088,None,136.55681494559394,None,136.55681494559394,None,136.55681494559394,None,136.55681494559394,None,136.55681494559394,None,136.55681494559394,None,136.55681494559394,None,140.54175612915424,None,140.54175612915424,None,140.54175612915424,None,140.54175612915424,None,140.54175612915424,None,140.54175612915424,None,140.54175612915424,None,141.5421365913935,None,,,,,,,,,,,,,,,,,,,,,,,,,,,,,,24175,2019_Oct_07_1724,Mmi_3levels,3.1.5,59.993165895262294,
,,,1,1,12.7,,,,,,,,,0,0,0,0,0,7,7,22,,,,,,,,,,,,,,,,,,,,,,,,,,,,,,,,,,,,,,,,,,,,,,,,,,,,,,,,,,,True,True,False,0.56,-0.43999999999999995,-2.9299999999999997,9.09,12.7,3.6099999999999994,1.8049999999999997,gamble,win,12.7,46.28666666666666,143.55956041734316,None,143.55956041734316,None,143.55956041734316,None,143.55956041734316,None,143.55956041734316,None,143.55956041734316,None,143.55956041734316,None,1,0.7336364444927312,143.55956041734316,None,144.3265345043037,None,144.3265345043037,None,144.3265345043037,None,144.3265345043037,None,144.3265345043037,None,144.3265345043037,None,144.3265345043037,None,148.31135409354465,None,148.31135409354465,None,148.31135409354465,None,148.31135409354465,None,148.31135409354465,None,148.31135409354465,None,148.31135409354465,None,157.81512063756236,None,149.31181487202412,None,150.31214317667764,None,0.59,7.502759551076451,153.31329384291894,None,None,153.31329384291894,None,,,,,,,,,,,,,,,,,,,24175,2019_Oct_07_1724,Mmi_3levels,3.1.5,59.993165895262294,
,,,1,1,12.5,,,,,,,,,0,0,0,0,0,8,8,21,,,,,,,,,,,,,,,,,,,,,,,,,,,,,,,,,,,,,,,,,,,,,,,,,,,,,,,,,,,True,False,False,0.59,-0.41000000000000003,-3.34,-1.7133333333333334,12.5,10.786666666666667,5.3933333333333335,gamble,lose,10.786666666666667,57.07333333333333,159.83256238268223,None,159.83256238268223,None,159.83256238268223,None,159.83256238268223,None,159.83256238268223,None,159.83256238268223,None,159.83256238268223,None,1,0.9172467462194618,159.83256238268223,None,160.78289398318157,None,160.78289398318157,None,160.78289398318157,None,160.78289398318157,None,160.78289398318157,None,160.78289398318157,None,160.78289398318157,None,164.78448110903264,None,164.78448110903264,None,164.78448110903264,None,164.78448110903264,None,164.78448110903264,None,164.78448110903264,None,164.78448110903264,None,165.768163791392,None,,,,,,,,,,,,,,,,,,,,,,,,,,,,,,24175,2019_Oct_07_1724,Mmi_3levels,3.1.5,59.993165895262294,
,,,1,1,12.1,,,,,,,,,0,0,0,0,0,9,9,10,,,,,,,,,,,,,,,,,,,,,,,,,,,,,,,,,,,,,,,,,,,,,,,,,,,,,,,,,,,True,True,False,0.59,-0.41000000000000003,-3.75,9.49,12.1,2.6099999999999994,1.3049999999999997,gamble,win,12.1,69.17333333333333,167.78560553651187,None,167.78560553651187,None,167.78560553651187,None,167.78560553651187,None,167.78560553651187,None,167.78560553651187,None,167.78560553651187,None,1,0.9504519148904365,167.78560553651187,None,168.76936661518994,None,168.76936661518994,None,168.76936661518994,None,168.76936661518994,None,168.76936661518994,None,168.76936661518994,None,168.76936661518994,None,172.77082446709392,None,172.77082446709392,None,172.77082446709392,None,172.77082446709392,None,172.77082446709392,None,172.77082446709392,None,172.77082446709392,None,182.25786859239452,None,173.75458618573612,None,174.75502808508463,None,0.6,7.502881785359932,177.75617715140106,None,None,177.75617715140106,None,,,,,,,,,,,,,,,,,,,24175,2019_Oct_07_1724,Mmi_3levels,3.1.5,59.993165895262294,
,,,1,1,13.5,,,,,,,,,0,0,0,0,0,10,10,15,,,,,,,,,,,,,,,,,,,,,,,,,,,,,,,,,,,,,,,,,,,,,,,,,,,,,,,,,,,True,False,True,0.6,-0.4,-4.15,-1.7458333333333336,13.5,11.754166666666666,5.877083333333333,gamble,lose,11.754166666666666,80.9275,184.27533817620133,None,184.27533817620133,None,184.27533817620133,None,184.27533817620133,None,184.27533817620133,None,184.27533817620133,None,184.27533817620133,None,1,0.8339626372617204,184.27533817620133,None,185.14240006706677,None,185.14240006706677,None,185.14240006706677,None,185.14240006706677,None,185.14240006706677,None,185.14240006706677,None,185.14240006706677,None,189.12721869634697,None,189.12721869634697,None,189.12721869634697,None,189.12721869634697,None,189.12721869634697,None,189.12721869634697,None,189.12721869634697,None,190.127658675774,None,,,,,,,,,,,,,,,,,,,,,,,,,,,,,,24175,2019_Oct_07_1724,Mmi_3levels,3.1.5,59.993165895262294,
,,,1,1,-1.1,,,,,,,,,0,0,0,0,0,11,11,20,,,,,,,,,,,,,,,,,,,,,,,,,,,,,,,,,,,,,,,,,,,,,,,,,,,,,,,,,,,True,False,True,0.6,-0.4,-4.550000000000001,-1.7791666666666668,-1.1,-2.879166666666667,-1.9895833333333335,certain,certain,-1.9895833333333335,78.93791666666667,192.14511162039707,None,192.14511162039707,None,192.14511162039707,None,192.14511162039707,None,192.14511162039707,None,192.14511162039707,None,192.14511162039707,None,3,2.3011366508726496,192.14511162039707,None,194.4793529646413,None,194.4793529646413,None,194.4793529646413,None,194.4793529646413,None,194.4793529646413,None,194.4793529646413,None,194.4793529646413,None,198.4808626541053,None,198.4808626541053,None,198.4808626541053,None,198.4808626541053,None,198.4808626541053,None,198.4808626541053,None,198.4808626541053,None,207.96790325955953,None,199.46461701308726,None,200.46495075750863,None,0.5,7.502836987463525,203.46615166138508,None,None,203.46615166138508,None,,,,,,,,,,,,,,,,,,,24175,2019_Oct_07_1724,Mmi_3levels,3.1.5,59.993165895262294,
,,,1,1,7.3,,,,,,,,,0,0,0,0,0,12,12,0,,,,,,,,,,,,,,,,,,,,,,,,,,,,,,,,,,,,,,,,,,,,,,,,,,,,,,,,,,,True,True,False,0.5,-0.5,-5.050000000000001,12.05,7.3,-4.750000000000001,1.2749999999999995,gamble,win,7.3,86.23791666666666,209.98533860497992,None,209.98533860497992,None,209.98533860497992,None,209.98533860497992,None,209.98533860497992,None,209.98533860497992,None,209.98533860497992,None,None,,209.98533860497992,None,212.98653502907837,None,212.98653502907837,None,212.98653502907837,None,212.98653502907837,None,212.98653502907837,None,212.98653502907837,None,212.98653502907837,None,216.98801527993055,None,216.98801527993055,None,216.98801527993055,None,216.98801527993055,None,216.98801527993055,None,216.98801527993055,None,216.98801527993055,None,217.97174564003944,None,,,,,,,,,,,,,,,,,,,,,,,,,,,,,,24175,2019_Oct_07_1724,Mmi_3levels,3.1.5,59.993165895262294,
,,,1,1,4.1,,,,,,,,,0,0,0,0,0,13,13,2,,,,,,,,,,,,,,,,,,,,,,,,,,,,,,,,,,,,,,,,,,,,,,,,,,,,,,,,,,,True,True,True,0.5,-0.5,-5.550000000000001,12.55,4.1,-8.450000000000001,-2.1750000000000007,gamble,win,4.1,90.33791666666666,219.98919698470854,None,219.98919698470854,None,219.98919698470854,None,219.98919698470854,None,219.98919698470854,None,219.98919698470854,None,219.98919698470854,None,1,2.2511037884105463,219.98919698470854,None,222.27339458701317,None,222.27339458701317,None,222.27339458701317,None,222.27339458701317,None,222.27339458701317,None,222.27339458701317,None,222.27339458701317,None,226.27502395087504,None,226.27502395087504,None,226.27502395087504,None,226.27502395087504,None,226.27502395087504,None,226.27502395087504,None,226.27502395087504,None,227.2586957537278,None,,,,,,,,,,,,,,,,,,,,,,,,,,,,,,24175,2019_Oct_07_1724,Mmi_3levels,3.1.5,59.993165895262294,
,,,1,1,11.3,,,,,,,,,0,0,0,0,0,14,14,24,,,,,,,,,,,,,,,,,,,,,,,,,,,,,,,,,,,,,,,,,,,,,,,,,,,,,,,,,,,True,True,True,0.5,-0.5,-6.050000000000001,13.05,11.3,-1.75,-0.875,gamble,win,11.3,101.63791666666665,229.27612117963145,None,229.27612117963145,None,229.27612117963145,None,229.27612117963145,None,229.27612117963145,None,229.27612117963145,None,229.27612117963145,None,1,1.4007723159447778,229.27612117963145,None,230.7099693902419,None,230.7099693902419,None,230.7099693902419,None,230.7099693902419,None,230.7099693902419,None,230.7099693902419,None,230.7099693902419,None,234.7115949142899,None,234.7115949142899,None,234.7115949142899,None,234.7115949142899,None,234.7115949142899,None,234.7115949142899,None,234.7115949142899,None,244.19859808150795,None,235.69531311496394,None,236.69567053826177,None,0.57,7.502869625925086,239.696852883033,None,None,239.696852883033,None,,,,,,,,,,,,,,,,,,,24175,2019_Oct_07_1724,Mmi_3levels,3.1.5,59.993165895262294,
,,,1,1,7.5,,,,,,,,,0,0,0,0,0,15,15,1,,,,,,,,,,,,,,,,,,,,,,,,,,,,,,,,,,,,,,,,,,,,,,,,,,,,,,,,,,,True,True,True,0.57,-0.43000000000000005,-6.48,12.5,7.5,-5.0,1.25,certain,certain,1.25,102.88791666666665,246.2160926241486,None,246.2160926241486,None,246.2160926241486,None,246.2160926241486,None,246.2160926241486,None,246.2160926241486,None,246.2160926241486,None,3,2.067695397272473,246.2160926241486,None,248.31688823498553,None,248.31688823498553,None,248.31688823498553,None,248.31688823498553,None,248.31688823498553,None,248.31688823498553,None,248.31688823498553,None,252.3017599817831,None,252.3017599817831,None,252.3017599817831,None,252.3017599817831,None,252.3017599817831,None,252.3017599817831,None,252.3017599817831,None,253.302094046172,None,,,,,,,,,,,,,,,,,,,,,,,,,,,,,,24175,2019_Oct_07_1724,Mmi_3levels,3.1.5,59.993165895262294,
,,,1,1,9.1,,,,,,,,,0,0,0,0,0,16,16,25,,,,,,,,,,,,,,,,,,,,,,,,,,,,,,,,,,,,,,,,,,,,,,,,,,,,,,,,,,,True,False,False,0.57,-0.43000000000000005,-6.91,-2.0808333333333335,9.1,7.019166666666666,3.509583333333333,gamble,lose,7.019166666666666,109.90708333333332,255.31960042827995,None,255.31960042827995,None,255.31960042827995,None,255.31960042827995,None,255.31960042827995,None,255.31960042827995,None,255.31960042827995,None,1,0.8672375626629218,255.31960042827995,None,256.2199238051544,None,256.2199238051544,None,256.2199238051544,None,256.2199238051544,None,256.2199238051544,None,256.2199238051544,None,256.2199238051544,None,260.20480003173,None,260.20480003173,None,260.20480003173,None,260.20480003173,None,260.20480003173,None,260.20480003173,None,260.20480003173,None,269.70848593953997,None,261.20519201343996,None,262.2055833551567,None,0.55,7.502823868067935,265.206753540464,None,None,265.206753540464,None,,,,,,,,,,,,,,,,,,,24175,2019_Oct_07_1724,Mmi_3levels,3.1.5,59.993165895262294,
,,,1,1,9.5,,,,,,,,,0,0,0,0,0,17,17,9,,,,,,,,,,,,,,,,,,,,,,,,,,,,,,,,,,,,,,,,,,,,,,,,,,,,,,,,,,,True,False,False,0.55,-0.44999999999999996,-7.36,-2.188333333333333,9.5,7.311666666666667,3.6558333333333337,gamble,lose,7.311666666666667,117.21874999999999,271.72593728420907,None,271.72593728420907,None,271.72593728420907,None,271.72593728420907,None,271.72593728420907,None,271.72593728420907,None,271.72593728420907,None,1,0.8670817299571354,271.72593728420907,None,272.6262667408155,None,272.6262667408155,None,272.6262667408155,None,272.6262667408155,None,272.6262667408155,None,272.6262667408155,None,272.6262667408155,None,276.61117592584924,None,276.61117592584924,None,276.61117592584924,None,276.61117592584924,None,276.61117592584924,None,276.61117592584924,None,276.61117592584924,None,277.61152662948007,None,,,,,,,,,,,,,,,,,,,,,,,,,,,,,,24175,2019_Oct_07_1724,Mmi_3levels,3.1.5,59.993165895262294,
,,,1,1,2.5,,,,,,,,,0,0,0,0,0,18,18,18,,,,,,,,,,,,,,,,,,,,,,,,,,,,,,,,,,,,,,,,,,,,,,,,,,,,,,,,,,,True,True,False,0.55,-0.44999999999999996,-7.8100000000000005,14.11,2.5,-11.61,-4.555,gamble,win,2.5,119.71874999999999,279.62900197302224,None,279.62900197302224,None,279.62900197302224,None,279.62900197302224,None,279.62900197302224,None,279.62900197302224,None,279.62900197302224,None,None,,279.62900197302224,None,282.63016799854813,None,282.63016799854813,None,282.63016799854813,None,282.63016799854813,None,282.63016799854813,None,282.63016799854813,None,282.63016799854813,None,286.63173848518636,None,286.63173848518636,None,286.63173848518636,None,286.63173848518636,None,286.63173848518636,None,286.63173848518636,None,286.63173848518636,None,287.6154387666902,None,,,,,,,,,,,,,,,,,,,,,,,,,,,,,,24175,2019_Oct_07_1724,Mmi_3levels,3.1.5,59.993165895262294,
,,,1,1,3.9,,,,,,,,,0,0,0,0,0,19,19,13,,,,,,,,,,,,,,,,,,,,,,,,,,,,,,,,,,,,,,,,,,,,,,,,,,,,,,,,,,,True,True,False,0.55,-0.44999999999999996,-8.26,14.559999999999999,3.9,-10.659999999999998,-3.379999999999999,certain,certain,-3.379999999999999,116.33874999999999,289.6329617880401,None,289.6329617880401,None,289.6329617880401,None,289.6329617880401,None,289.6329617880401,None,289.6329617880401,None,289.6329617880401,None,3,1.984273374750046,289.6329617880401,None,291.6503702547052,None,291.6503702547052,None,291.6503702547052,None,291.6503702547052,None,291.6503702547052,None,291.6503702547052,None,291.6503702547052,None,295.65191418258473,None,295.65191418258473,None,295.65191418258473,None,295.65191418258473,None,295.65191418258473,None,295.65191418258473,None,295.65191418258473,None,305.1389000705967,None,296.63568966058665,None,297.6359942863346,None,0.48,7.5027531513769645,300.63709919471876,None,None,300.63709919471876,None,,,,,,,,,,,,,,,,,,,24175,2019_Oct_07_1724,Mmi_3levels,3.1.5,59.993165895262294,
,,,1,1,-1.5,,,,,,,,,0,0,0,0,0,20,20,26,,,,,,,,,,,,,,,,,,,,,,,,,,,,,,,,,,,,,,,,,,,,,,,,,,,,,,,,,,,True,True,False,0.48,-0.52,-8.78,16.06,-1.5,-17.56,-9.53,gamble,win,-1.5,114.83874999999999,307.1563824538025,None,307.1563824538025,None,307.1563824538025,None,307.1563824538025,None,307.1563824538025,None,307.1563824538025,None,307.1563824538025,None,None,,307.1563824538025,None,310.1575439995504,None,310.1575439995504,None,310.1575439995504,None,310.1575439995504,None,310.1575439995504,None,310.1575439995504,None,310.1575439995504,None,314.1590581687924,None,314.1590581687924,None,314.1590581687924,None,314.1590581687924,None,314.1590581687924,None,314.1590581687924,None,314.1590581687924,None,315.1427843691199,None,,,,,,,,,,,,,,,,,,,,,,,,,,,,,,24175,2019_Oct_07_1724,Mmi_3levels,3.1.5,59.993165895262294,
,,,1,1,6.7,,,,,,,,,0,0,0,0,0,21,21,8,,,,,,,,,,,,,,,,,,,,,,,,,,,,,,,,,,,,,,,,,,,,,,,,,,,,,,,,,,,True,True,True,0.48,-0.52,-9.299999999999999,16.58,6.7,-9.879999999999999,-1.5899999999999994,gamble,win,6.7,121.53875,317.16022515427903,None,317.16022515427903,None,317.16022515427903,None,317.16022515427903,None,317.16022515427903,None,317.16022515427903,None,317.16022515427903,None,1,2.167759202304296,317.16022515427903,None,319.36107945037656,None,319.36107945037656,None,319.36107945037656,None,319.36107945037656,None,319.36107945037656,None,319.36107945037656,None,319.36107945037656,None,323.3460177540546,None,323.3460177540546,None,323.3460177540546,None,323.3460177540546,None,323.3460177540546,None,323.3460177540546,None,323.3460177540546,None,332.8496588639391,None,324.3463543783291,None,325.3467732387653,None,0.51,7.502550920820795,328.34792230508174,None,None,328.34792230508174,None,,,,,,,,,,,,,,,,,,,24175,2019_Oct_07_1724,Mmi_3levels,3.1.5,59.993165895262294,
,,,1,1,-0.5,,,,,,,,,0,0,0,0,0,22,22,16,,,,,,,,,,,,,,,,,,,,,,,,,,,,,,,,,,,,,,,,,,,,,,,,,,,,,,,,,,,True,True,False,0.51,-0.49,-9.79,16.65,-0.5,-17.15,-8.825,gamble,win,-0.5,121.03875,334.867156286462,None,334.867156286462,None,334.867156286462,None,334.867156286462,None,334.867156286462,None,334.867156286462,None,334.867156286462,None,None,,334.867156286462,None,337.8682541551534,None,337.8682541551534,None,337.8682541551534,None,337.8682541551534,None,337.8682541551534,None,337.8682541551534,None,337.8682541551534,None,341.86987423946266,None,341.86987423946266,None,341.86987423946266,None,341.86987423946266,None,341.86987423946266,None,341.86987423946266,None,341.86987423946266,None,342.85351980355335,None,,,,,,,,,,,,,,,,,,,,,,,,,,,,,,24175,2019_Oct_07_1724,Mmi_3levels,3.1.5,59.993165895262294,
,,,1,1,10.5,,,,,,,,,0,0,0,0,0,23,23,23,,,,,,,,,,,,,,,,,,,,,,,,,,,,,,,,,,,,,,,,,,,,,,,,,,,,,,,,,,,True,True,True,0.51,-0.49,-10.28,17.14,10.5,-6.640000000000001,1.9299999999999997,gamble,win,10.5,131.53875,344.8709631485981,None,344.8709631485981,None,344.8709631485981,None,344.8709631485981,None,344.8709631485981,None,344.8709631485981,None,344.8709631485981,None,1,2.7346920752024744,344.8709631485981,None,347.63870007992955,None,347.63870007992955,None,347.63870007992955,None,347.63870007992955,None,347.63870007992955,None,347.63870007992955,None,347.63870007992955,None,351.64026128698606,None,351.64026128698606,None,351.64026128698606,None,351.64026128698606,None,351.64026128698606,None,351.64026128698606,None,351.64026128698606,None,361.12729581273743,None,352.6240444446448,None,353.6244092276029,None,0.49,7.502702593716094,356.62550773628755,None,None,356.62550773628755,None,,,,,,,,,,,,,,,,,,,24175,2019_Oct_07_1724,Mmi_3levels,3.1.5,59.993165895262294,
,,,1,1,4.7,,,,,,,,,0,0,0,0,0,24,24,7,,,,,,,,,,,,,,,,,,,,,,,,,,,,,,,,,,,,,,,,,,,,,,,,,,,,,,,,,,,True,False,True,0.49,-0.51,-10.79,-2.6841666666666666,4.7,2.0158333333333336,1.0079166666666668,gamble,lose,2.0158333333333336,133.55458333333334,363.1446975597355,None,363.1446975597355,None,363.1446975597355,None,363.1446975597355,None,363.1446975597355,None,363.1446975597355,None,363.1446975597355,None,1,0.8173080553533509,363.1446975597355,None,363.99508822947973,None,363.99508822947973,None,363.99508822947973,None,363.99508822947973,None,363.99508822947973,None,363.99508822947973,None,363.99508822947973,None,367.97998493511113,None,367.97998493511113,None,367.97998493511113,None,367.97998493511113,None,367.97998493511113,None,367.97998493511113,None,367.97998493511113,None,368.98036699724616,None,,,,,,,,,,,,,,,,,,,,,,,,,,,,,,24175,2019_Oct_07_1724,Mmi_3levels,3.1.5,59.993165895262294,
,,,1,1,11.7,,,,,,,,,0,0,0,0,0,25,25,5,,,,,,,,,,,,,,,,,,,,,,,,,,,,,,,,,,,,,,,,,,,,,,,,,,,,,,,,,,,True,True,False,0.49,-0.51,-11.299999999999999,18.439999999999998,11.7,-6.739999999999998,-3.369999999999999,gamble,win,11.7,145.25458333333333,370.99780426258803,None,370.99780426258803,None,370.99780426258803,None,370.99780426258803,None,370.99780426258803,None,370.99780426258803,None,370.99780426258803,None,1,1.3007833874144126,370.99780426258803,None,372.3316725042532,None,372.3316725042532,None,372.3316725042532,None,372.3316725042532,None,372.3316725042532,None,372.3316725042532,None,372.3316725042532,None,376.3331949931453,None,376.3331949931453,None,376.3331949931453,None,376.3331949931453,None,376.3331949931453,None,376.3331949931453,None,376.3331949931453,None,377.3169967099093,None,,,,,,,,,,,,,,,,,,,,,,,,,,,,,,24175,2019_Oct_07_1724,Mmi_3levels,3.1.5,59.993165895262294,
,,,1,1,1.5,,,,,,,,,0,0,0,0,0,26,26,6,,,,,,,,,,,,,,,,,,,,,,,,,,,,,,,,,,,,,,,,,,,,,,,,,,,,,,,,,,,True,True,False,0.49,-0.51,-11.809999999999999,18.95,1.5,-17.45,-7.975,gamble,win,1.5,146.75458333333333,379.33439173721126,None,379.33439173721126,None,379.33439173721126,None,379.33439173721126,None,379.33439173721126,None,379.33439173721126,None,379.33439173721126,None,None,,379.33439173721126,None,382.33552672420046,None,382.33552672420046,None,382.33552672420046,None,382.33552672420046,None,382.33552672420046,None,382.33552672420046,None,382.33552672420046,None,386.33707353193313,None,386.33707353193313,None,386.33707353193313,None,386.33707353193313,None,386.33707353193313,None,386.33707353193313,None,386.33707353193313,None,395.82409589824965,None,387.3207763733226,None,388.3212221125141,None,0.46,7.502820988214808,391.3223017420678,None,None,391.3223017420678,None,,,,,,,,,,,,,,,,,,,24175,2019_Oct_07_1724,Mmi_3levels,3.1.5,59.993165895262294,
,,,2,0,3.5,,,,,,,,,0,1,1,1,0,0,0,3,,,,,,,,,,,,,,,,,,,,,,,,,,,,,,,,,,,,,,,,,,,,,,,,400.44253356484114,None,0.47,7.50168408130412,403.46039961013594,None,None,403.46039961013594,None,407.9454713475716,None,False,False,False,0.47,0.47,0.47,1.6841666666666666,0.875,-0.8091666666666666,0.032916666666666705,gamble,win,0.875,147.62958333333333,410.9632705159893,None,410.9632705159893,None,410.9632705159893,None,410.9632705159893,None,410.9632705159893,None,410.9632705159893,None,410.9632705159893,None,1,2.301191368344007,410.9632705159893,None,413.2975390589854,None,413.2975390589854,None,413.2975390589854,None,413.2975390589854,None,413.2975390589854,None,413.2975390589854,None,413.2975390589854,None,417.28242936488823,None,417.28242936488823,None,417.28242936488823,None,417.28242936488823,None,417.28242936488823,None,417.28242936488823,None,417.28242936488823,None,418.2828229465231,None,,,,,,,,,,,,397.82486258243443,None,4,2.6013779836066533,397.82486258243443,None,,,,,,,,,,,,,24175,2019_Oct_07_1724,Mmi_3levels,3.1.5,59.993165895262294,
,,,2,0,1.7,,,,,,,,,0,1,1,1,0,1,1,12,,,,,,,,,,,,,,,,,,,,,,,,,,,,,,,,,,,,,,,,,,,,,,,,,,,,,,,,,,,False,False,True,0.47,0.47,0.94,1.7233333333333334,0.425,-1.2983333333333333,-0.43666666666666665,gamble,win,0.425,148.05458333333334,420.3002877305553,None,420.3002877305553,None,420.3002877305553,None,420.3002877305553,None,420.3002877305553,None,420.3002877305553,None,420.3002877305553,None,1,1.1506608011259232,420.3002877305553,None,421.4840356258501,None,421.4840356258501,None,421.4840356258501,None,421.4840356258501,None,421.4840356258501,None,421.4840356258501,None,421.4840356258501,None,425.468925931782,None,425.468925931782,None,425.468925931782,None,425.468925931782,None,425.468925931782,None,425.468925931782,None,425.468925931782,None,434.9726995154924,None,426.46929071474005,None,427.46967373683583,None,0.58,7.5028376274276525,430.4708528817573,None,None,430.4708528817573,None,,,,,,,,,,,,,,,,,,,24175,2019_Oct_07_1724,Mmi_3levels,3.1.5,59.993165895262294,
,,,2,0,12.9,,,,,,,,,0,1,1,1,0,2,2,21,,,,,,,,,,,,,,,,,,,,,,,,,,,,,,,,,,,,,,,,,,,,,,,,,,,,,,,,,,,False,True,False,0.58,0.58,1.52,-9.639999999999999,12.9,3.2600000000000016,1.6300000000000008,gamble,lose,3.2600000000000016,151.31458333333333,436.99006670407834,None,436.99006670407834,None,436.99006670407834,None,436.99006670407834,None,436.99006670407834,None,436.99006670407834,None,436.99006670407834,None,1,0.8507228142407257,436.99006670407834,None,437.8737412588089,None,437.8737412588089,None,437.8737412588089,None,437.8737412588089,None,437.8737412588089,None,437.8737412588089,None,437.8737412588089,None,441.8752695074072,None,441.8752695074072,None,441.8752695074072,None,441.8752695074072,None,441.8752695074072,None,441.8752695074072,None,441.8752695074072,None,442.85903410593164,None,,,,,,,,,,,,,,,,,,,,,,,,,,,,,,24175,2019_Oct_07_1724,Mmi_3levels,3.1.5,59.993165895262294,
,,,2,0,9.9,,,,,,,,,0,1,1,1,0,3,3,9,,,,,,,,,,,,,,,,,,,,,,,,,,,,,,,,,,,,,,,,,,,,,,,,,,,,,,,,,,,False,True,False,0.58,0.58,2.1,-10.219999999999999,9.9,-0.3199999999999985,-0.15999999999999925,gamble,lose,-0.3199999999999985,150.99458333333334,444.8764572919172,None,444.8764572919172,None,444.8764572919172,None,444.8764572919172,None,444.8764572919172,None,444.8764572919172,None,444.8764572919172,None,1,1.0006716486241203,444.8764572919172,None,445.91022211441305,None,445.91022211441305,None,445.91022211441305,None,445.91022211441305,None,445.91022211441305,None,445.91022211441305,None,445.91022211441305,None,449.91173852357315,None,449.91173852357315,None,449.91173852357315,None,449.91173852357315,None,449.91173852357315,None,449.91173852357315,None,449.91173852357315,None,459.3987842487986,None,450.8954160861613,None,451.8958247070841,None,0.61,7.502868345967727,454.8970272108854,None,None,454.8970272108854,None,,,,,,,,,,,,,,,,,,,24175,2019_Oct_07_1724,Mmi_3levels,3.1.5,59.993165895262294,
,,,2,0,10.3,,,,,,,,,0,1,1,1,0,4,4,1,,,,,,,,,,,,,,,,,,,,,,,,,,,,,,,,,,,,,,,,,,,,,,,,,,,,,,,,,,,False,False,False,0.61,0.61,2.71,2.360833333333333,2.575,0.21416666666666728,1.3945833333333337,gamble,win,2.575,153.56958333333333,461.4162355934677,None,461.4162355934677,None,461.4162355934677,None,461.4162355934677,None,461.4162355934677,None,461.4162355934677,None,461.4162355934677,None,1,0.6838256516784895,461.4162355934677,None,462.13315441901796,None,462.13315441901796,None,462.13315441901796,None,462.13315441901796,None,462.13315441901796,None,462.13315441901796,None,462.13315441901796,None,466.11814232039615,None,466.11814232039615,None,466.11814232039615,None,466.11814232039615,None,466.11814232039615,None,466.11814232039615,None,466.11814232039615,None,467.11840086831944,None,,,,,,,,,,,,,,,,,,,,,,,,,,,,,,24175,2019_Oct_07_1724,Mmi_3levels,3.1.5,59.993165895262294,
,,,2,0,10.7,,,,,,,,,0,1,1,1,0,5,5,26,,,,,,,,,,,,,,,,,,,,,,,,,,,,,,,,,,,,,,,,,,,,,,,,,,,,,,,,,,,False,True,False,0.61,0.61,3.32,-11.86,10.7,-1.1600000000000001,-0.5800000000000001,gamble,lose,-1.1600000000000001,152.40958333333333,469.1358698121621,None,469.1358698121621,None,469.1358698121621,None,469.1358698121621,None,469.1358698121621,None,469.1358698121621,None,469.1358698121621,None,1,1.1673691405158024,469.1358698121621,None,470.33634684587014,None,470.33634684587014,None,470.33634684587014,None,470.33634684587014,None,470.33634684587014,None,470.33634684587014,None,470.33634684587014,None,474.3379109328089,None,474.3379109328089,None,474.3379109328089,None,474.3379109328089,None,474.3379109328089,None,474.3379109328089,None,474.3379109328089,None,475.3216089744237,None,,,,,,,,,,,,,,,,,,,,,,,,,,,,,,24175,2019_Oct_07_1724,Mmi_3levels,3.1.5,59.993165895262294,
,,,2,0,4.5,,,,,,,,,0,1,1,1,0,6,6,24,,,,,,,,,,,,,,,,,,,,,,,,,,,,,,,,,,,,,,,,,,,,,,,,,,,,,,,,,,,False,True,False,0.61,0.61,3.9299999999999997,-12.469999999999999,4.5,-7.969999999999999,-1.7349999999999994,gamble,lose,-7.969999999999999,144.43958333333333,477.33902704066713,None,477.33902704066713,None,477.33902704066713,None,477.33902704066713,None,477.33902704066713,None,477.33902704066713,None,477.33902704066713,None,None,,477.33902704066713,None,480.3402909816068,None,480.3402909816068,None,480.3402909816068,None,480.3402909816068,None,480.3402909816068,None,480.3402909816068,None,480.3402909816068,None,484.3417696325341,None,484.3417696325341,None,484.3417696325341,None,484.3417696325341,None,484.3417696325341,None,484.3417696325341,None,484.3417696325341,None,493.8287865590828,None,485.32547887362307,None,486.3258702153398,None,0.6,7.5026219575083815,489.3270250413916,None,None,489.3270250413916,None,,,,,,,,,,,,,,,,,,,24175,2019_Oct_07_1724,Mmi_3levels,3.1.5,59.993165895262294,
,,,2,0,13.7,,,,,,,,,0,1,1,1,0,7,7,6,,,,,,,,,,,,,,,,,,,,,,,,,,,,,,,,,,,,,,,,,,,,,,,,,,,,,,,,,,,False,True,False,0.6,0.6,4.529999999999999,-12.93,13.7,0.7699999999999996,0.3849999999999998,gamble,lose,0.7699999999999996,145.20958333333334,495.8462161447969,None,495.8462161447969,None,495.8462161447969,None,495.8462161447969,None,495.8462161447969,None,495.8462161447969,None,495.8462161447969,None,1,0.5671171842841431,495.8462161447969,None,496.42976328145596,None,496.42976328145596,None,496.42976328145596,None,496.42976328145596,None,496.42976328145596,None,496.42976328145596,None,496.42976328145596,None,500.4313385678688,None,500.4313385678688,None,500.4313385678688,None,500.4313385678688,None,500.4313385678688,None,500.4313385678688,None,500.4313385678688,None,501.43170943052974,None,,,,,,,,,,,,,,,,,,,,,,,,,,,,,,24175,2019_Oct_07_1724,Mmi_3levels,3.1.5,59.993165895262294,
,,,2,0,3.9,,,,,,,,,0,1,1,1,0,8,8,20,,,,,,,,,,,,,,,,,,,,,,,,,,,,,,,,,,,,,,,,,,,,,,,,,,,,,,,,,,,False,False,False,0.6,0.6,5.129999999999999,2.5275,0.975,-1.5524999999999998,-0.2887499999999999,gamble,win,0.975,146.18458333333334,503.44916141519207,None,503.44916141519207,None,503.44916141519207,None,503.44916141519207,None,503.44916141519207,None,503.44916141519207,None,503.44916141519207,None,1,1.3508540081093088,503.44916141519207,None,504.83307083894033,None,504.83307083894033,None,504.83307083894033,None,504.83307083894033,None,504.83307083894033,None,504.83307083894033,None,504.83307083894033,None,508.8179352260777,None,508.8179352260777,None,508.8179352260777,None,508.8179352260777,None,508.8179352260777,None,508.8179352260777,None,508.8179352260777,None,518.3383547520789,None,509.8183326474973,None,510.8187092698936,None,0.56,7.519419892691076,513.8198599361349,None,None,513.8198599361349,None,,,,,,,,,,,,,,,,,,,24175,2019_Oct_07_1724,Mmi_3levels,3.1.5,59.993165895262294,
,,,2,0,13.5,,,,,,,,,0,1,1,1,0,9,9,0,,,,,,,,,,,,,,,,,,,,,,,,,,,,,,,,,,,,,,,,,,,,,,,,,,,,,,,,,,,False,True,False,0.56,0.56,5.6899999999999995,-13.530000000000001,13.5,-0.030000000000001137,-0.015000000000000568,gamble,lose,-0.030000000000001137,146.15458333333333,520.355760978855,None,520.355760978855,None,520.355760978855,None,520.355760978855,None,520.355760978855,None,520.355760978855,None,520.355760978855,None,1,1.1340218984987587,520.355760978855,None,521.5228558921663,None,521.5228558921663,None,521.5228558921663,None,521.5228558921663,None,521.5228558921663,None,521.5228558921663,None,521.5228558921663,None,525.5243934203463,None,525.5243934203463,None,525.5243934203463,None,525.5243934203463,None,525.5243934203463,None,525.5243934203463,None,525.5243934203463,None,526.5081087411672,None,,,,,,,,,,,,,,,,,,,,,,,,,,,,,,24175,2019_Oct_07_1724,Mmi_3levels,3.1.5,59.993165895262294,
,,,2,0,0.9,,,,,,,,,0,1,1,1,0,10,10,4,,,,,,,,,,,,,,,,,,,,,,,,,,,,,,,,,,,,,,,,,,,,,,,,,,,,,,,,,,,False,True,True,0.56,0.56,6.25,-14.09,0.9,-13.19,-6.145,gamble,lose,-13.19,132.96458333333334,528.5255600858363,None,528.5255600858363,None,528.5255600858363,None,528.5255600858363,None,528.5255600858363,None,528.5255600858363,None,528.5255600858363,None,None,,528.5255600858363,None,531.5267251514015,None,531.5267251514015,None,531.5267251514015,None,531.5267251514015,None,531.5267251514015,None,531.5267251514015,None,531.5267251514015,None,535.5115812189179,None,535.5115812189179,None,535.5115812189179,None,535.5115812189179,None,535.5115812189179,None,535.5115812189179,None,535.5115812189179,None,536.5119815202197,None,,,,,,,,,,,,,,,,,,,,,,,,,,,,,,24175,2019_Oct_07_1724,Mmi_3levels,3.1.5,59.993165895262294,
,,,2,0,2.5,,,,,,,,,0,1,1,1,0,11,11,16,,,,,,,,,,,,,,,,,,,,,,,,,,,,,,,,,,,,,,,,,,,,,,,,,,,,,,,,,,,False,False,False,0.56,0.56,6.8100000000000005,2.5275000000000003,0.625,-1.9025000000000003,-0.6387500000000002,certain,certain,-0.6387500000000002,132.32583333333335,538.5294607036049,None,538.5294607036049,None,538.5294607036049,None,538.5294607036049,None,538.5294607036049,None,538.5294607036049,None,538.5294607036049,None,3,1.9676917494507506,538.5294607036049,None,540.5302251478715,None,540.5302251478715,None,540.5302251478715,None,540.5302251478715,None,540.5302251478715,None,540.5302251478715,None,540.5302251478715,None,544.5150946547801,None,544.5150946547801,None,544.5150946547801,None,544.5150946547801,None,544.5150946547801,None,544.5150946547801,None,544.5150946547801,None,554.0188368799281,None,545.5154818366864,None,546.5158978172694,None,0.51,7.502812988590449,549.5170558431419,None,None,549.5170558431419,None,,,,,,,,,,,,,,,,,,,24175,2019_Oct_07_1724,Mmi_3levels,3.1.5,59.993165895262294,
,,,2,0,1.5,,,,,,,,,0,1,1,1,0,12,12,11,,,,,,,,,,,,,,,,,,,,,,,,,,,,,,,,,,,,,,,,,,,,,,,,,,,,,,,,,,,False,False,True,0.51,0.51,7.32,2.395,0.375,-2.02,-0.8225,gamble,win,0.375,132.70083333333335,556.0362495064328,None,556.0362495064328,None,556.0362495064328,None,556.0362495064328,None,556.0362495064328,None,556.0362495064328,None,556.0362495064328,None,None,,556.0362495064328,None,559.0374238515506,None,559.0374238515506,None,559.0374238515506,None,559.0374238515506,None,559.0374238515506,None,559.0374238515506,None,559.0374238515506,None,563.0222741593607,None,563.0222741593607,None,563.0222741593607,None,563.0222741593607,None,563.0222741593607,None,563.0222741593607,None,563.0222741593607,None,564.0226837402151,None,,,,,,,,,,,,,,,,,,,,,,,,,,,,,,24175,2019_Oct_07_1724,Mmi_3levels,3.1.5,59.993165895262294,
,,,2,0,6.7,,,,,,,,,0,1,1,1,0,13,13,2,,,,,,,,,,,,,,,,,,,,,,,,,,,,,,,,,,,,,,,,,,,,,,,,,,,,,,,,,,,False,False,False,0.51,0.51,7.83,2.4375,1.675,-0.7625,0.45625000000000004,gamble,win,1.675,134.37583333333336,566.040114925825,None,566.040114925825,None,566.040114925825,None,566.040114925825,None,566.040114925825,None,566.040114925825,None,566.040114925825,None,1,2.7513488969707396,566.040114925825,None,568.8245470771508,None,568.8245470771508,None,568.8245470771508,None,568.8245470771508,None,568.8245470771508,None,568.8245470771508,None,568.8245470771508,None,572.8260721258994,None,572.8260721258994,None,572.8260721258994,None,572.8260721258994,None,572.8260721258994,None,572.8260721258994,None,572.8260721258994,None,582.3131444098835,None,573.8098069658154,None,574.8101784684695,None,0.61,7.502824508032063,577.811379372346,None,None,577.811379372346,None,,,,,,,,,,,,,,,,,,,24175,2019_Oct_07_1724,Mmi_3levels,3.1.5,59.993165895262294,
,,,2,0,12.3,,,,,,,,,0,1,1,1,0,14,14,8,,,,,,,,,,,,,,,,,,,,,,,,,,,,,,,,,,,,,,,,,,,,,,,,,,,,,,,,,,,False,True,True,0.61,0.61,8.44,-16.979999999999997,12.3,-4.679999999999996,-2.339999999999998,gamble,lose,-4.679999999999996,129.69583333333335,584.3305682358623,None,584.3305682358623,None,584.3305682358623,None,584.3305682358623,None,584.3305682358623,None,584.3305682358623,None,584.3305682358623,None,1,1.7009269326808862,584.3305682358623,None,586.0646005018789,None,586.0646005018789,None,586.0646005018789,None,586.0646005018789,None,586.0646005018789,None,586.0646005018789,None,586.0646005018789,None,590.0661201108596,None,590.0661201108596,None,590.0661201108596,None,590.0661201108596,None,590.0661201108596,None,590.0661201108596,None,590.0661201108596,None,591.0498117528041,None,,,,,,,,,,,,,,,,,,,,,,,,,,,,,,24175,2019_Oct_07_1724,Mmi_3levels,3.1.5,59.993165895262294,
,,,2,0,12.1,,,,,,,,,0,1,1,1,0,15,15,13,,,,,,,,,,,,,,,,,,,,,,,,,,,,,,,,,,,,,,,,,,,,,,,,,,,,,,,,,,,False,False,False,0.61,0.61,9.049999999999999,2.889166666666666,3.025,0.1358333333333337,1.5804166666666668,gamble,win,3.025,132.72083333333336,593.0673392539029,None,593.0673392539029,None,593.0673392539029,None,593.0673392539029,None,593.0673392539029,None,593.0673392539029,None,593.0673392539029,None,1,1.1173548371880315,593.0673392539029,None,594.2177747855603,None,594.2177747855603,None,594.2177747855603,None,594.2177747855603,None,594.2177747855603,None,594.2177747855603,None,594.2177747855603,None,598.2025978946185,None,598.2025978946185,None,598.2025978946185,None,598.2025978946185,None,598.2025978946185,None,598.2025978946185,None,598.2025978946185,None,607.7229822222725,None,599.2029997958452,None,600.2034160963958,None,0.61,7.519551086588763,603.2045133251522,None,None,603.2045133251522,None,,,,,,,,,,,,,,,,,,,24175,2019_Oct_07_1724,Mmi_3levels,3.1.5,59.993165895262294,
,,,2,0,8.9,,,,,,,,,0,1,1,1,0,16,16,14,,,,,,,,,,,,,,,,,,,,,,,,,,,,,,,,,,,,,,,,,,,,,,,,,,,,,,,,,,,False,True,True,0.61,0.61,9.659999999999998,-18.199999999999996,8.9,-9.299999999999995,-0.1999999999999975,certain,certain,-0.1999999999999975,132.52083333333337,609.7404546859616,None,609.7404546859616,None,609.7404546859616,None,609.7404546859616,None,609.7404546859616,None,609.7404546859616,None,609.7404546859616,None,3,2.6512578932452016,609.7404546859616,None,612.4247839940945,None,612.4247839940945,None,612.4247839940945,None,612.4247839940945,None,612.4247839940945,None,612.4247839940945,None,612.4247839940945,None,616.4263807194948,None,616.4263807194948,None,616.4263807194948,None,616.4263807194948,None,616.4263807194948,None,616.4263807194948,None,616.4263807194948,None,617.4100861207698,None,,,,,,,,,,,,,,,,,,,,,,,,,,,,,,24175,2019_Oct_07_1724,Mmi_3levels,3.1.5,59.993165895262294,
,,,2,0,11.9,,,,,,,,,0,1,1,1,0,17,17,10,,,,,,,,,,,,,,,,,,,,,,,,,,,,,,,,,,,,,,,,,,,,,,,,,,,,,,,,,,,False,True,False,0.61,0.61,10.269999999999998,-18.809999999999995,11.9,-6.909999999999995,-3.4549999999999974,gamble,lose,-6.909999999999995,125.61083333333337,619.4275016271276,None,619.4275016271276,None,619.4275016271276,None,619.4275016271276,None,619.4275016271276,None,619.4275016271276,None,619.4275016271276,None,1,1.3007424293027725,619.4275016271276,None,620.7613468298805,None,620.7613468298805,None,620.7613468298805,None,620.7613468298805,None,620.7613468298805,None,620.7613468298805,None,620.7613468298805,None,624.7629237162182,None,624.7629237162182,None,624.7629237162182,None,624.7629237162182,None,624.7629237162182,None,624.7629237162182,None,624.7629237162182,None,625.746685754857,None,,,,,,,,,,,,,,,,,,,,,,,,,,,,,,24175,2019_Oct_07_1724,Mmi_3levels,3.1.5,59.993165895262294,
,,,2,0,5.9,,,,,,,,,0,1,1,1,0,18,18,25,,,,,,,,,,,,,,,,,,,,,,,,,,,,,,,,,,,,,,,,,,,,,,,,,,,,,,,,,,,False,True,False,0.61,0.61,10.879999999999997,-19.419999999999995,5.9,-13.519999999999994,-3.809999999999997,gamble,lose,-13.519999999999994,112.09083333333338,627.7640823820839,None,627.7640823820839,None,627.7640823820839,None,627.7640823820839,None,627.7640823820839,None,627.7640823820839,None,627.7640823820839,None,None,,627.7640823820839,None,630.7652727264503,None,630.7652727264503,None,630.7652727264503,None,630.7652727264503,None,630.7652727264503,None,630.7652727264503,None,630.7652727264503,None,634.7667756962474,None,634.7667756962474,None,634.7667756962474,None,634.7667756962474,None,634.7667756962474,None,634.7667756962474,None,634.7667756962474,None,644.2704696036526,None,635.7505402947718,None,636.7509015578835,None,0.57,7.519386934262002,639.7520938221714,None,None,639.7520938221714,None,,,,,,,,,,,,,,,,,,,24175,2019_Oct_07_1724,Mmi_3levels,3.1.5,59.993165895262294,
,,,2,0,3.3,,,,,,,,,0,1,1,1,0,19,19,19,,,,,,,,,,,,,,,,,,,,,,,,,,,,,,,,,,,,,,,,,,,,,,,,,,,,,,,,,,,False,False,True,0.57,0.57,11.449999999999998,2.9491666666666663,0.825,-2.1241666666666665,-0.6495833333333333,gamble,win,0.825,112.91583333333338,646.287958386587,None,646.287958386587,None,646.287958386587,None,646.287958386587,None,646.287958386587,None,646.287958386587,None,646.287958386587,None,1,1.9176659266231582,646.287958386587,None,648.2387283666176,None,648.2387283666176,None,648.2387283666176,None,648.2387283666176,None,648.2387283666176,None,648.2387283666176,None,648.2387283666176,None,652.2236010733468,None,652.2236010733468,None,652.2236010733468,None,652.2236010733468,None,652.2236010733468,None,652.2236010733468,None,652.2236010733468,None,653.2239348177682,None,,,,,,,,,,,,,,,,,,,,,,,,,,,,,,24175,2019_Oct_07_1724,Mmi_3levels,3.1.5,59.993165895262294,
,,,2,0,8.5,,,,,,,,,0,1,1,1,0,20,20,23,,,,,,,,,,,,,,,,,,,,,,,,,,,,,,,,,,,,,,,,,,,,,,,,,,,,,,,,,,,False,True,False,0.57,0.57,12.019999999999998,-19.999999999999996,8.5,-11.499999999999996,-1.4999999999999982,certain,certain,-1.4999999999999982,111.41583333333338,655.2414360801049,None,655.2414360801049,None,655.2414360801049,None,655.2414360801049,None,655.2414360801049,None,655.2414360801049,None,655.2414360801049,None,3,2.9013214102596976,655.2414360801049,None,658.1759012218972,None,658.1759012218972,None,658.1759012218972,None,658.1759012218972,None,658.1759012218972,None,658.1759012218972,None,658.1759012218972,None,662.1774643488752,None,662.1774643488752,None,662.1774643488752,None,662.1774643488752,None,662.1774643488752,None,662.1774643488752,None,662.1774643488752,None,671.6811224179692,None,663.1611275121104,None,664.1615399728471,None,0.53,7.519511408434482,667.1627197577327,None,None,667.1627197577327,None,,,,,,,,,,,,,,,,,,,24175,2019_Oct_07_1724,Mmi_3levels,3.1.5,59.993165895262294,
,,,2,0,2.1,,,,,,,,,0,1,1,1,0,21,21,15,,,,,,,,,,,,,,,,,,,,,,,,,,,,,,,,,,,,,,,,,,,,,,,,,,,,,,,,,,,False,True,True,0.53,0.53,12.549999999999997,-19.97,2.1,-17.869999999999997,-7.884999999999999,gamble,lose,-17.869999999999997,93.54583333333338,673.698602561286,None,673.698602561286,None,673.698602561286,None,673.698602561286,None,673.698602561286,None,673.698602561286,None,673.698602561286,None,1,2.4678667812841013,673.698602561286,None,676.1995701960695,None,676.1995701960695,None,676.1995701960695,None,676.1995701960695,None,676.1995701960695,None,676.1995701960695,None,676.1995701960695,None,680.1844176239974,None,680.1844176239974,None,680.1844176239974,None,680.1844176239974,None,680.1844176239974,None,680.1844176239974,None,680.1844176239974,None,681.18484000428,None,,,,,,,,,,,,,,,,,,,,,,,,,,,,,,24175,2019_Oct_07_1724,Mmi_3levels,3.1.5,59.993165895262294,
,,,2,0,-1.1,,,,,,,,,0,1,1,1,0,22,22,22,,,,,,,,,,,,,,,,,,,,,,,,,,,,,,,,,,,,,,,,,,,,,,,,,,,,,,,,,,,False,True,False,0.53,0.53,13.079999999999997,-20.499999999999996,-1.1,-21.599999999999998,-11.35,gamble,lose,-21.599999999999998,71.94583333333338,683.2022331116605,None,683.2022331116605,None,683.2022331116605,None,683.2022331116605,None,683.2022331116605,None,683.2022331116605,None,683.2022331116605,None,None,,683.2022331116605,None,686.203455134586,None,686.203455134586,None,686.203455134586,None,686.203455134586,None,686.203455134586,None,686.203455134586,None,686.203455134586,None,690.2049629041285,None,690.2049629041285,None,690.2049629041285,None,690.2049629041285,None,690.2049629041285,None,690.2049629041285,None,690.2049629041285,None,699.6920025496511,None,691.1886862245738,None,692.1890567672672,None,0.5,7.502887225098675,695.1902266326069,None,None,695.1902266326069,None,,,,,,,,,,,,,,,,,,,24175,2019_Oct_07_1724,Mmi_3levels,3.1.5,59.993165895262294,
,,,2,0,10.5,,,,,,,,,0,1,1,1,0,23,23,5,,,,,,,,,,,,,,,,,,,,,,,,,,,,,,,,,,,,,,,,,,,,,,,,,,,,,,,,,,,False,True,True,0.5,0.5,13.579999999999997,-20.58,10.5,-10.079999999999998,0.21000000000000085,gamble,lose,-10.079999999999998,61.865833333333384,701.7093988568813,None,701.7093988568813,None,701.7093988568813,None,701.7093988568813,None,701.7093988568813,None,701.7093988568813,None,701.7093988568813,None,1,2.6179925673932303,701.7093988568813,None,704.3604644391162,None,704.3604644391162,None,704.3604644391162,None,704.3604644391162,None,704.3604644391162,None,704.3604644391162,None,704.3604644391162,None,708.345348025352,None,708.345348025352,None,708.345348025352,None,708.345348025352,None,708.345348025352,None,708.345348025352,None,708.345348025352,None,709.3457364871865,None,,,,,,,,,,,,,,,,,,,,,,,,,,,,,,24175,2019_Oct_07_1724,Mmi_3levels,3.1.5,59.993165895262294,
,,,2,0,11.5,,,,,,,,,0,1,1,1,0,24,24,18,,,,,,,,,,,,,,,,,,,,,,,,,,,,,,,,,,,,,,,,,,,,,,,,,,,,,,,,,,,False,True,True,0.5,0.5,14.079999999999997,-21.08,11.5,-9.579999999999998,0.9600000000000009,certain,certain,0.9600000000000009,62.825833333333385,711.3631865519274,None,711.3631865519274,None,711.3631865519274,None,711.3631865519274,None,711.3631865519274,None,711.3631865519274,None,711.3631865519274,None,3,2.6679579129850026,711.3631865519274,None,714.0642133199435,None,714.0642133199435,None,714.0642133199435,None,714.0642133199435,None,714.0642133199435,None,714.0642133199435,None,714.0642133199435,None,718.0657866864349,None,718.0657866864349,None,718.0657866864349,None,718.0657866864349,None,718.0657866864349,None,718.0657866864349,None,718.0657866864349,None,719.0494556094345,None,,,,,,,,,,,,,,,,,,,,,,,,,,,,,,24175,2019_Oct_07_1724,Mmi_3levels,3.1.5,59.993165895262294,
,,,2,0,4.7,,,,,,,,,0,1,1,1,0,25,25,7,,,,,,,,,,,,,,,,,,,,,,,,,,,,,,,,,,,,,,,,,,,,,,,,,,,,,,,,,,,False,False,True,0.5,0.5,14.579999999999997,2.965,1.175,-1.7899999999999998,-0.3074999999999999,gamble,win,1.175,64.00083333333339,721.0669818306051,None,721.0669818306051,None,721.0669818306051,None,721.0669818306051,None,721.0669818306051,None,721.0669818306051,None,721.0669818306051,None,None,,721.0669818306051,None,724.068116177601,None,724.068116177601,None,724.068116177601,None,724.068116177601,None,724.068116177601,None,724.068116177601,None,724.068116177601,None,728.069695943821,None,728.069695943821,None,728.069695943821,None,728.069695943821,None,728.069695943821,None,728.069695943821,None,728.069695943821,None,737.5567083905917,None,729.053379586112,None,730.0537866070808,None,0.59,7.502892344869906,733.0550054301566,None,None,733.0550054301566,None,,,,,,,,,,,,,,,,,,,24175,2019_Oct_07_1724,Mmi_3levels,3.1.5,59.993165895262294,
,,,2,0,4.3,,,,,,,,,0,1,1,1,0,26,26,17,,,,,,,,,,,,,,,,,,,,,,,,,,,,,,,,,,,,,,,,,,,,,,,,,,,,,,,,,,,False,True,True,0.59,0.59,15.169999999999996,-23.429999999999996,4.3,-19.129999999999995,-7.414999999999997,gamble,lose,-19.129999999999995,44.870833333333394,739.5742042131897,None,739.5742042131897,None,739.5742042131897,None,739.5742042131897,None,739.5742042131897,None,739.5742042131897,None,739.5742042131897,None,None,,739.5742042131897,None,742.5752982420672,None,742.5752982420672,None,742.5752982420672,None,742.5752982420672,None,742.5752982420672,None,742.5752982420672,None,742.5752982420672,None,746.5768735284801,None,746.5768735284801,None,746.5768735284801,None,746.5768735284801,None,746.5768735284801,None,746.5768735284801,None,746.5768735284801,None,747.5605389316333,None,,,,,,,,,,,,,,,,,,,,,,,,,,,,,,24175,2019_Oct_07_1724,Mmi_3levels,3.1.5,59.993165895262294,
,,,3,1,13.9,,,,,,,,,0,2,2,2,0,0,0,23,,,,,,,,,,,,,,,,,,,,,,,,,,,,,,,,,,,,,,,,,,,,,,,,762.6163836825581,None,0.49,7.502105181629304,765.6175916261273,None,None,765.6175916261273,None,770.1193192253995,None,True,True,False,0.49,-0.51,-0.51,7.65,13.9,6.25,3.125,gamble,win,13.9,58.77083333333339,773.1538296130893,None,773.1538296130893,None,773.1538296130893,None,773.1538296130893,None,773.1538296130893,None,773.1538296130893,None,773.1538296130893,None,1,0.9839588294562418,773.1538296130893,None,774.1708720168681,None,774.1708720168681,None,774.1708720168681,None,774.1708720168681,None,774.1708720168681,None,774.1708720168681,None,774.1708720168681,None,778.155758482957,None,778.155758482957,None,778.155758482957,None,778.155758482957,None,778.155758482957,None,778.155758482957,None,778.155758482957,None,787.6594776691927,None,779.1561786233215,None,780.1565443662403,None,0.42,7.502928503177827,783.1576892727462,None,None,783.1576892727462,None,749.5613561734499,None,4,13.038579317595577,749.5613561734499,None,,,,,,,,,,,,,24175,2019_Oct_07_1724,Mmi_3levels,3.1.5,59.993165895262294,
,,,3,1,4.3,,,,,,,,,0,2,2,2,0,1,1,0,,,,,,,,,,,,,,,,,,,,,,,,,,,,,,,,,,,,,,,,,,,,,,,,,,,,,,,,,,,True,True,False,0.42,-0.5800000000000001,-1.09,9.21,4.3,-4.910000000000001,-0.3050000000000006,certain,certain,-0.3050000000000006,58.46583333333339,789.67688901574,None,789.67688901574,None,789.67688901574,None,789.67688901574,None,789.67688901574,None,789.67688901574,None,789.67688901574,None,3,2.1678065600863192,789.67688901574,None,791.8778447470977,None,791.8778447470977,None,791.8778447470977,None,791.8778447470977,None,791.8778447470977,None,791.8778447470977,None,791.8778447470977,None,795.8793451570091,None,795.8793451570091,None,795.8793451570091,None,795.8793451570091,None,795.8793451570091,None,795.8793451570091,None,795.8793451570091,None,796.8630003206199,None,,,,,,,,,,,,,,,,,,,,,,,,,,,,,,24175,2019_Oct_07_1724,Mmi_3levels,3.1.5,59.993165895262294,
,,,3,1,11.5,,,,,,,,,0,2,2,2,0,2,2,5,,,,,,,,,,,,,,,,,,,,,,,,,,,,,,,,,,,,,,,,,,,,,,,,,,,,,,,,,,,True,True,False,0.42,-0.5800000000000001,-1.6700000000000002,9.790000000000001,11.5,1.709999999999999,0.8549999999999995,gamble,win,11.5,69.96583333333339,798.8805063827313,None,798.8805063827313,None,798.8805063827313,None,798.8805063827313,None,798.8805063827313,None,798.8805063827313,None,798.8805063827313,None,1,2.1843782658688724,798.8805063827313,None,801.0979535036022,None,801.0979535036022,None,801.0979535036022,None,801.0979535036022,None,801.0979535036022,None,801.0979535036022,None,801.0979535036022,None,805.0995812675683,None,805.0995812675683,None,805.0995812675683,None,805.0995812675683,None,805.0995812675683,None,805.0995812675683,None,805.0995812675683,None,806.0832959484251,None,,,,,,,,,,,,,,,,,,,,,,,,,,,,,,24175,2019_Oct_07_1724,Mmi_3levels,3.1.5,59.993165895262294,
,,,3,1,8.9,,,,,,,,,0,2,2,2,0,3,3,22,,,,,,,,,,,,,,,,,,,,,,,,,,,,,,,,,,,,,,,,,,,,,,,,,,,,,,,,,,,True,True,False,0.42,-0.5800000000000001,-2.25,10.370000000000001,8.9,-1.4700000000000006,-0.7350000000000003,gamble,win,8.9,78.8658333333334,808.1007162545284,None,808.1007162545284,None,808.1007162545284,None,808.1007162545284,None,808.1007162545284,None,808.1007162545284,None,808.1007162545284,None,1,1.4341518764267676,808.1007162545284,None,809.5679085073061,None,809.5679085073061,None,809.5679085073061,None,809.5679085073061,None,809.5679085073061,None,809.5679085073061,None,809.5679085073061,None,813.5694946731965,None,813.5694946731965,None,813.5694946731965,None,813.5694946731965,None,813.5694946731965,None,813.5694946731965,None,813.5694946731965,None,823.0731994601083,None,814.5533098293527,None,815.5536227747507,None,0.48,7.519609323848272,818.5547939200187,None,None,818.5547939200187,None,,,,,,,,,,,,,,,,,,,24175,2019_Oct_07_1724,Mmi_3levels,3.1.5,59.993165895262294,
,,,3,1,13.3,,,,,,,,,0,2,2,2,0,4,4,18,,,,,,,,,,,,,,,,,,,,,,,,,,,,,,,,,,,,,,,,,,,,,,,,,,,,,,,,,,,True,True,False,0.48,-0.52,-2.77,10.05,13.3,3.25,1.625,gamble,win,13.3,92.1658333333334,825.090670003905,None,825.090670003905,None,825.090670003905,None,825.090670003905,None,825.090670003905,None,825.090670003905,None,825.090670003905,None,1,1.3340672723716125,825.090670003905,None,826.4578730081848,None,826.4578730081848,None,826.4578730081848,None,826.4578730081848,None,826.4578730081848,None,826.4578730081848,None,826.4578730081848,None,830.4593663784035,None,830.4593663784035,None,830.4593663784035,None,830.4593663784035,None,830.4593663784035,None,830.4593663784035,None,830.4593663784035,None,831.44308425911,None,,,,,,,,,,,,,,,,,,,,,,,,,,,,,,24175,2019_Oct_07_1724,Mmi_3levels,3.1.5,59.993165895262294,
,,,3,1,7.1,,,,,,,,,0,2,2,2,0,5,5,26,,,,,,,,,,,,,,,,,,,,,,,,,,,,,,,,,,,,,,,,,,,,,,,,,,,,,,,,,,,True,False,True,0.48,-0.52,-3.29,-2.0941666666666667,7.1,5.005833333333333,2.5029166666666667,gamble,lose,5.005833333333333,97.17166666666672,833.4605858414434,None,833.4605858414434,None,833.4605858414434,None,833.4605858414434,None,833.4605858414434,None,833.4605858414434,None,833.4605858414434,None,1,0.9839524297276512,833.4605858414434,None,834.4776452044316,None,834.4776452044316,None,834.4776452044316,None,834.4776452044316,None,834.4776452044316,None,834.4776452044316,None,834.4776452044316,None,838.4625233508996,None,838.4625233508996,None,838.4625233508996,None,838.4625233508996,None,838.4625233508996,None,838.4625233508996,None,838.4625233508996,None,847.982855520997,None,839.4628906937432,None,840.4633002746268,None,0.57,7.519495729182381,843.4644224621879,None,None,843.4644224621879,None,,,,,,,,,,,,,,,,,,,24175,2019_Oct_07_1724,Mmi_3levels,3.1.5,59.993165895262294,
,,,3,1,0.5,,,,,,,,,0,2,2,2,0,6,6,10,,,,,,,,,,,,,,,,,,,,,,,,,,,,,,,,,,,,,,,,,,,,,,,,,,,,,,,,,,,True,True,True,0.57,-0.43000000000000005,-3.72,9.74,0.5,-9.24,-4.37,gamble,win,0.5,97.67166666666672,850.0003055857378,None,850.0003055857378,None,850.0003055857378,None,850.0003055857378,None,850.0003055857378,None,850.0003055857378,None,850.0003055857378,None,1,2.684659212740371,850.0003055857378,None,852.7180502926931,None,852.7180502926931,None,852.7180502926931,None,852.7180502926931,None,852.7180502926931,None,852.7180502926931,None,852.7180502926931,None,856.7195804612129,None,856.7195804612129,None,856.7195804612129,None,856.7195804612129,None,856.7195804612129,None,856.7195804612129,None,856.7195804612129,None,857.7032961020013,None,,,,,,,,,,,,,,,,,,,,,,,,,,,,,,24175,2019_Oct_07_1724,Mmi_3levels,3.1.5,59.993165895262294,
,,,3,1,9.9,,,,,,,,,0,2,2,2,0,7,7,2,,,,,,,,,,,,,,,,,,,,,,,,,,,,,,,,,,,,,,,,,,,,,,,,,,,,,,,,,,,True,True,False,0.57,-0.43000000000000005,-4.15,10.170000000000002,9.9,-0.27000000000000135,-0.13500000000000068,gamble,win,9.9,107.57166666666673,859.7206924092607,None,859.7206924092607,None,859.7206924092607,None,859.7206924092607,None,859.7206924092607,None,859.7206924092607,None,859.7206924092607,None,1,1.2841582441178616,859.7206924092607,None,861.0379044690926,None,861.0379044690926,None,861.0379044690926,None,861.0379044690926,None,861.0379044690926,None,861.0379044690926,None,861.0379044690926,None,865.0394771956198,None,865.0394771956198,None,865.0394771956198,None,865.0394771956198,None,865.0394771956198,None,865.0394771956198,None,865.0394771956198,None,874.5264864425408,None,866.0232219550817,None,867.0236052971741,None,0.48,7.502734592242632,870.0247575633402,None,None,870.0247575633402,None,,,,,,,,,,,,,,,,,,,24175,2019_Oct_07_1724,Mmi_3levels,3.1.5,59.993165895262294,
,,,3,1,10.9,,,,,,,,,0,2,2,2,0,8,8,21,,,,,,,,,,,,,,,,,,,,,,,,,,,,,,,,,,,,,,,,,,,,,,,,,,,,,,,,,,,True,True,False,0.48,-0.52,-4.67,11.95,10.9,-1.049999999999999,-0.5249999999999995,gamble,win,10.9,118.47166666666674,876.543894909235,None,876.543894909235,None,876.543894909235,None,876.543894909235,None,876.543894909235,None,876.543894909235,None,876.543894909235,None,1,1.7009925296297297,876.543894909235,None,878.2779236554052,None,878.2779236554052,None,878.2779236554052,None,878.2779236554052,None,878.2779236554052,None,878.2779236554052,None,878.2779236554052,None,882.2794458243006,None,882.2794458243006,None,882.2794458243006,None,882.2794458243006,None,882.2794458243006,None,882.2794458243006,None,882.2794458243006,None,883.263188663841,None,,,,,,,,,,,,,,,,,,,,,,,,,,,,,,24175,2019_Oct_07_1724,Mmi_3levels,3.1.5,59.993165895262294,
,,,3,1,10.1,,,,,,,,,0,2,2,2,0,9,9,24,,,,,,,,,,,,,,,,,,,,,,,,,,,,,,,,,,,,,,,,,,,,,,,,,,,,,,,,,,,True,True,False,0.48,-0.52,-5.1899999999999995,12.469999999999999,10.1,-2.369999999999999,-1.1849999999999996,gamble,win,10.1,128.57166666666674,885.2807043255016,None,885.2807043255016,None,885.2807043255016,None,885.2807043255016,None,885.2807043255016,None,885.2807043255016,None,885.2807043255016,None,1,0.8671985244727693,885.2807043255016,None,886.1810078633134,None,886.1810078633134,None,886.1810078633134,None,886.1810078633134,None,886.1810078633134,None,886.1810078633134,None,886.1810078633134,None,890.1825937092362,None,890.1825937092362,None,890.1825937092362,None,890.1825937092362,None,890.1825937092362,None,890.1825937092362,None,890.1825937092362,None,891.1662882310047,None,,,,,,,,,,,,,,,,,,,,,,,,,,,,,,24175,2019_Oct_07_1724,Mmi_3levels,3.1.5,59.993165895262294,
,,,3,1,1.5,,,,,,,,,0,2,2,2,0,10,10,4,,,,,,,,,,,,,,,,,,,,,,,,,,,,,,,,,,,,,,,,,,,,,,,,,,,,,,,,,,,True,False,False,0.48,-0.52,-5.709999999999999,-2.2958333333333334,1.5,-0.7958333333333334,0.3520833333333333,gamble,lose,-0.7958333333333334,127.77583333333341,893.183722936461,None,893.183722936461,None,893.183722936461,None,893.183722936461,None,893.183722936461,None,893.183722936461,None,893.183722936461,None,1,1.884319644595962,893.183722936461,None,895.1011360749253,None,895.1011360749253,None,895.1011360749253,None,895.1011360749253,None,895.1011360749253,None,895.1011360749253,None,895.1011360749253,None,899.0860356604098,None,899.0860356604098,None,899.0860356604098,None,899.0860356604098,None,899.0860356604098,None,899.0860356604098,None,899.0860356604098,None,908.5897314877366,None,900.0864404414897,None,901.0867658662901,None,0.51,7.503119854227407,904.0879530108359,None,None,904.0879530108359,None,,,,,,,,,,,,,,,,,,,24175,2019_Oct_07_1724,Mmi_3levels,3.1.5,59.993165895262294,
,,,3,1,-1.3,,,,,,,,,0,2,2,2,0,11,11,15,,,,,,,,,,,,,,,,,,,,,,,,,,,,,,,,,,,,,,,,,,,,,,,,,,,,,,,,,,,True,False,False,0.51,-0.49,-6.199999999999999,-2.2316666666666665,-1.3,-3.5316666666666663,-2.415833333333333,gamble,lose,-3.5316666666666663,124.24416666666674,910.6071572336077,None,910.6071572336077,None,910.6071572336077,None,910.6071572336077,None,910.6071572336077,None,910.6071572336077,None,910.6071572336077,None,1,2.551254565361887,910.6071572336077,None,913.1915209721483,None,913.1915209721483,None,913.1915209721483,None,913.1915209721483,None,913.1915209721483,None,913.1915209721483,None,913.1915209721483,None,917.1930684198451,None,917.1930684198451,None,917.1930684198451,None,917.1930684198451,None,917.1930684198451,None,917.1930684198451,None,917.1930684198451,None,918.1767856605875,None,,,,,,,,,,,,,,,,,,,,,,,,,,,,,,24175,2019_Oct_07_1724,Mmi_3levels,3.1.5,59.993165895262294,
,,,3,1,-0.3,,,,,,,,,0,2,2,2,0,12,12,3,,,,,,,,,,,,,,,,,,,,,,,,,,,,,,,,,,,,,,,,,,,,,,,,,,,,,,,,,,,True,False,True,0.51,-0.49,-6.6899999999999995,-2.2725,-0.3,-2.5725,-1.4362499999999998,gamble,lose,-2.5725,121.67166666666674,920.1942053267267,None,920.1942053267267,None,920.1942053267267,None,920.1942053267267,None,920.1942053267267,None,920.1942053267267,None,920.1942053267267,None,None,,920.1942053267267,None,923.1953652725497,None,923.1953652725497,None,923.1953652725497,None,923.1953652725497,None,923.1953652725497,None,923.1953652725497,None,923.1953652725497,None,927.1969248796813,None,927.1969248796813,None,927.1969248796813,None,927.1969248796813,None,927.1969248796813,None,927.1969248796813,None,927.1969248796813,None,936.6839235670923,None,928.1806648393394,None,929.1810129830847,None,0.66,7.502715073147556,932.1822346859844,None,None,932.1822346859844,None,,,,,,,,,,,,,,,,,,,24175,2019_Oct_07_1724,Mmi_3levels,3.1.5,59.993165895262294,
,,,3,1,5.9,,,,,,,,,0,2,2,2,0,13,13,17,,,,,,,,,,,,,,,,,,,,,,,,,,,,,,,,,,,,,,,,,,,,,,,,,,,,,,,,,,,True,True,True,0.66,-0.33999999999999997,-7.029999999999999,11.79,5.9,-5.889999999999999,0.005000000000000782,gamble,win,5.9,127.57166666666674,938.7014053103339,None,938.7014053103339,None,938.7014053103339,None,938.7014053103339,None,938.7014053103339,None,938.7014053103339,None,938.7014053103339,None,None,,938.7014053103339,None,941.7025329376629,None,941.7025329376629,None,941.7025329376629,None,941.7025329376629,None,941.7025329376629,None,941.7025329376629,None,941.7025329376629,None,945.6874610018276,None,945.6874610018276,None,945.6874610018276,None,945.6874610018276,None,945.6874610018276,None,945.6874610018276,None,945.6874610018276,None,946.6878440239234,None,,,,,,,,,,,,,,,,,,,,,,,,,,,,,,24175,2019_Oct_07_1724,Mmi_3levels,3.1.5,59.993165895262294,
,,,3,1,12.9,,,,,,,,,0,2,2,2,0,14,14,14,,,,,,,,,,,,,,,,,,,,,,,,,,,,,,,,,,,,,,,,,,,,,,,,,,,,,,,,,,,True,True,False,0.66,-0.33999999999999997,-7.369999999999999,12.129999999999999,12.9,0.7700000000000014,0.3850000000000007,gamble,win,12.9,140.47166666666675,948.7053564857342,None,948.7053564857342,None,948.7053564857342,None,948.7053564857342,None,948.7053564857342,None,948.7053564857342,None,948.7053564857342,None,1,0.6170684505777899,948.7053564857342,None,949.355551068642,None,949.355551068642,None,949.355551068642,None,949.355551068642,None,949.355551068642,None,949.355551068642,None,949.355551068642,None,953.3403994565306,None,953.3403994565306,None,953.3403994565306,None,953.3403994565306,None,953.3403994565306,None,953.3403994565306,None,953.3403994565306,None,954.3408176770026,None,,,,,,,,,,,,,,,,,,,,,,,,,,,,,,24175,2019_Oct_07_1724,Mmi_3levels,3.1.5,59.993165895262294,
,,,3,1,-0.7,,,,,,,,,0,2,2,2,0,15,15,6,,,,,,,,,,,,,,,,,,,,,,,,,,,,,,,,,,,,,,,,,,,,,,,,,,,,,,,,,,,True,True,True,0.66,-0.33999999999999997,-7.709999999999999,12.469999999999999,-0.7,-13.169999999999998,-6.934999999999999,certain,certain,-6.934999999999999,133.53666666666675,956.3582325433672,None,956.3582325433672,None,956.3582325433672,None,956.3582325433672,None,956.3582325433672,None,956.3582325433672,None,956.3582325433672,None,3,2.5179233226226643,956.3582325433672,None,958.9092186413181,None,958.9092186413181,None,958.9092186413181,None,958.9092186413181,None,958.9092186413181,None,958.9092186413181,None,958.9092186413181,None,962.9108076870616,None,962.9108076870616,None,962.9108076870616,None,962.9108076870616,None,962.9108076870616,None,962.9108076870616,None,962.9108076870616,None,972.397821093793,None,963.8945287676179,None,964.894885230955,None,0.49,7.502888825052651,967.8960144582088,None,None,967.8960144582088,None,,,,,,,,,,,,,,,,,,,24175,2019_Oct_07_1724,Mmi_3levels,3.1.5,59.993165895262294,
,,,3,1,1.9,,,,,,,,,0,2,2,2,0,16,16,16,,,,,,,,,,,,,,,,,,,,,,,,,,,,,,,,,,,,,,,,,,,,,,,,,,,,,,,,,,,True,True,False,0.49,-0.51,-8.219999999999999,15.36,1.9,-13.459999999999999,-5.779999999999999,gamble,win,1.9,135.43666666666675,974.4152676386875,None,974.4152676386875,None,974.4152676386875,None,974.4152676386875,None,974.4152676386875,None,974.4152676386875,None,974.4152676386875,None,None,,974.4152676386875,None,977.4164058255265,None,977.4164058255265,None,977.4164058255265,None,977.4164058255265,None,977.4164058255265,None,977.4164058255265,None,977.4164058255265,None,981.4179881516029,None,981.4179881516029,None,981.4179881516029,None,981.4179881516029,None,981.4179881516029,None,981.4179881516029,None,981.4179881516029,None,982.401652914763,None,,,,,,,,,,,,,,,,,,,,,,,,,,,,,,24175,2019_Oct_07_1724,Mmi_3levels,3.1.5,59.993165895262294,
,,,3,1,0.1,,,,,,,,,0,2,2,2,0,17,17,7,,,,,,,,,,,,,,,,,,,,,,,,,,,,,,,,,,,,,,,,,,,,,,,,,,,,,,,,,,,True,True,True,0.49,-0.51,-8.729999999999999,15.87,0.1,-15.77,-7.835,gamble,win,0.1,135.53666666666675,984.4191551370604,None,984.4191551370604,None,984.4191551370604,None,984.4191551370604,None,984.4191551370604,None,984.4191551370604,None,984.4191551370604,None,None,,984.4191551370604,None,987.4203150828835,None,987.4203150828835,None,987.4203150828835,None,987.4203150828835,None,987.4203150828835,None,987.4203150828835,None,987.4203150828835,None,991.4052172282536,None,991.4052172282536,None,991.4052172282536,None,991.4052172282536,None,991.4052172282536,None,991.4052172282536,None,991.4052172282536,None,1000.9088868168183,None,992.4055586523027,None,993.4059496740228,None,0.53,7.502926263259724,996.4070942605613,None,None,996.4070942605613,None,,,,,,,,,,,,,,,,,,,24175,2019_Oct_07_1724,Mmi_3levels,3.1.5,59.993165895262294,
,,,3,1,9.5,,,,,,,,,0,2,2,2,0,18,18,25,,,,,,,,,,,,,,,,,,,,,,,,,,,,,,,,,,,,,,,,,,,,,,,,,,,,,,,,,,,True,True,False,0.53,-0.47,-9.2,15.78,9.5,-6.279999999999999,1.6100000000000003,gamble,win,9.5,145.03666666666675,1002.9263061629899,None,1002.9263061629899,None,1002.9263061629899,None,1002.9263061629899,None,1002.9263061629899,None,1002.9263061629899,None,1002.9263061629899,None,1,1.9343496272049379,1002.9263061629899,None,1004.89376976309,None,1004.89376976309,None,1004.89376976309,None,1004.89376976309,None,1004.89376976309,None,1004.89376976309,None,1004.89376976309,None,1008.8952999315807,None,1008.8952999315807,None,1008.8952999315807,None,1008.8952999315807,None,1008.8952999315807,None,1008.8952999315807,None,1008.8952999315807,None,1009.8790120525518,None,,,,,,,,,,,,,,,,,,,,,,,,,,,,,,24175,2019_Oct_07_1724,Mmi_3levels,3.1.5,59.993165895262294,
,,,3,1,3.7,,,,,,,,,0,2,2,2,0,19,19,1,,,,,,,,,,,,,,,,,,,,,,,,,,,,,,,,,,,,,,,,,,,,,,,,,,,,,,,,,,,True,False,False,0.53,-0.47,-9.67,-2.450833333333333,3.7,1.249166666666667,0.6245833333333335,gamble,lose,1.249166666666667,146.28583333333341,1011.8964822763519,None,1011.8964822763519,None,1011.8964822763519,None,1011.8964822763519,None,1011.8964822763519,None,1011.8964822763519,None,1011.8964822763519,None,None,,1011.8964822763519,None,1014.8976761405647,None,1014.8976761405647,None,1014.8976761405647,None,1014.8976761405647,None,1014.8976761405647,None,1014.8976761405647,None,1014.8976761405647,None,1018.8825936452195,None,1018.8825936452195,None,1018.8825936452195,None,1018.8825936452195,None,1018.8825936452195,None,1018.8825936452195,None,1018.8825936452195,None,1028.386197956832,None,1019.8828560329566,None,1020.8832694536541,None,0.5,7.502837947424268,1023.8844229997485,None,None,1023.8844229997485,None,,,,,,,,,,,,,,,,,,,24175,2019_Oct_07_1724,Mmi_3levels,3.1.5,59.993165895262294,
,,,3,1,0.3,,,,,,,,,0,2,2,2,0,20,20,19,,,,,,,,,,,,,,,,,,,,,,,,,,,,,,,,,,,,,,,,,,,,,,,,,,,,,,,,,,,True,True,True,0.5,-0.5,-10.17,17.17,0.3,-16.87,-8.285,gamble,win,0.3,146.58583333333343,1030.4036317023274,None,1030.4036317023274,None,1030.4036317023274,None,1030.4036317023274,None,1030.4036317023274,None,1030.4036317023274,None,1030.4036317023274,None,None,,1030.4036317023274,None,1033.404824926576,None,1033.404824926576,None,1033.404824926576,None,1033.404824926576,None,1033.404824926576,None,1033.404824926576,None,1033.404824926576,None,1037.3896502755524,None,1037.3896502755524,None,1037.3896502755524,None,1037.3896502755524,None,1037.3896502755524,None,1037.3896502755524,None,1037.3896502755524,None,1038.3900572965213,None,,,,,,,,,,,,,,,,,,,,,,,,,,,,,,24175,2019_Oct_07_1724,Mmi_3levels,3.1.5,59.993165895262294,
,,,3,1,2.7,,,,,,,,,0,2,2,2,0,21,21,9,,,,,,,,,,,,,,,,,,,,,,,,,,,,,,,,,,,,,,,,,,,,,,,,,,,,,,,,,,,True,False,False,0.5,-0.5,-10.67,-2.6391666666666667,2.7,0.06083333333333352,1.3804166666666668,gamble,lose,0.06083333333333352,146.64666666666676,1040.407484962314,None,1040.407484962314,None,1040.407484962314,None,1040.407484962314,None,1040.407484962314,None,1040.407484962314,None,1040.407484962314,None,1,0.9339912439172622,1040.407484962314,None,1041.3745876192697,None,1041.3745876192697,None,1041.3745876192697,None,1041.3745876192697,None,1041.3745876192697,None,1041.3745876192697,None,1041.3745876192697,None,1045.3593819296802,None,1045.3593819296802,None,1045.3593819296802,None,1045.3593819296802,None,1045.3593819296802,None,1045.3593819296802,None,1045.3593819296802,None,1046.3598263889144,None,,,,,,,,,,,,,,,,,,,,,,,,,,,,,,24175,2019_Oct_07_1724,Mmi_3levels,3.1.5,59.993165895262294,
,,,3,1,0.7,,,,,,,,,0,2,2,2,0,22,22,20,,,,,,,,,,,,,,,,,,,,,,,,,,,,,,,,,,,,,,,,,,,,,,,,,,,,,,,,,,,True,True,False,0.5,-0.5,-11.17,18.17,0.7,-17.470000000000002,-8.385000000000002,gamble,win,0.7,147.34666666666675,1048.3772738937696,None,1048.3772738937696,None,1048.3772738937696,None,1048.3772738937696,None,1048.3772738937696,None,1048.3772738937696,None,1048.3772738937696,None,None,,1048.3772738937696,None,1051.3784651980968,None,1051.3784651980968,None,1051.3784651980968,None,1051.3784651980968,None,1051.3784651980968,None,1051.3784651980968,None,1051.3784651980968,None,1055.3633158258745,None,1055.3633158258745,None,1055.3633158258745,None,1055.3633158258745,None,1055.3633158258745,None,1055.3633158258745,None,1055.3633158258745,None,1064.8670324522536,None,1056.3637097274768,None,1057.3640674707713,None,0.68,7.502921143517597,1060.3652552552812,None,None,1060.3652552552812,None,,,,,,,,,,,,,,,,,,,24175,2019_Oct_07_1724,Mmi_3levels,3.1.5,59.993165895262294,
,,,3,1,5.7,,,,,,,,,0,2,2,2,0,23,23,12,,,,,,,,,,,,,,,,,,,,,,,,,,,,,,,,,,,,,,,,,,,,,,,,,,,,,,,,,,,True,True,False,0.68,-0.31999999999999995,-11.49,15.969999999999999,5.7,-10.27,-2.2849999999999997,gamble,win,5.7,153.04666666666674,1066.8844351591833,None,1066.8844351591833,None,1066.8844351591833,None,1066.8844351591833,None,1066.8844351591833,None,1066.8844351591833,None,1066.8844351591833,None,None,,1066.8844351591833,None,1069.8856223037292,None,1069.8856223037292,None,1069.8856223037292,None,1069.8856223037292,None,1069.8856223037292,None,1069.8856223037292,None,1069.8856223037292,None,1073.8872167892405,None,1073.8872167892405,None,1073.8872167892405,None,1073.8872167892405,None,1073.8872167892405,None,1073.8872167892405,None,1073.8872167892405,None,1074.8708937118354,None,,,,,,,,,,,,,,,,,,,,,,,,,,,,,,24175,2019_Oct_07_1724,Mmi_3levels,3.1.5,59.993165895262294,
,,,3,1,-0.1,,,,,,,,,0,2,2,2,0,24,24,13,,,,,,,,,,,,,,,,,,,,,,,,,,,,,,,,,,,,,,,,,,,,,,,,,,,,,,,,,,,True,True,True,0.68,-0.31999999999999995,-11.81,16.29,-0.1,-16.39,-8.245000000000001,gamble,win,-0.1,152.94666666666674,1076.888329697249,None,1076.888329697249,None,1076.888329697249,None,1076.888329697249,None,1076.888329697249,None,1076.888329697249,None,1076.888329697249,None,1,2.2177869449951686,1076.888329697249,None,1079.1391928569064,None,1079.1391928569064,None,1079.1391928569064,None,1079.1391928569064,None,1079.1391928569064,None,1079.1391928569064,None,1079.1391928569064,None,1083.1407892623392,None,1083.1407892623392,None,1083.1407892623392,None,1083.1407892623392,None,1083.1407892623392,None,1083.1407892623392,None,1083.1407892623392,None,1092.627776110312,None,1084.124452745571,None,1085.1248652063077,None,0.51,7.502793149527861,1088.1260129926668,None,None,1088.1260129926668,None,,,,,,,,,,,,,,,,,,,24175,2019_Oct_07_1724,Mmi_3levels,3.1.5,59.993165895262294,
,,,3,1,4.1,,,,,,,,,0,2,2,2,0,25,25,8,,,,,,,,,,,,,,,,,,,,,,,,,,,,,,,,,,,,,,,,,,,,,,,,,,,,,,,,,,,True,True,True,0.51,-0.49,-12.3,19.16,4.1,-15.06,-5.48,gamble,win,4.1,157.04666666666674,1094.6452578535536,None,1094.6452578535536,None,1094.6452578535536,None,1094.6452578535536,None,1094.6452578535536,None,1094.6452578535536,None,1094.6452578535536,None,None,,1094.6452578535536,None,1097.6464171593834,None,1097.6464171593834,None,1097.6464171593834,None,1097.6464171593834,None,1097.6464171593834,None,1097.6464171593834,None,1097.6464171593834,None,1101.6479194892163,None,1101.6479194892163,None,1101.6479194892163,None,1101.6479194892163,None,1101.6479194892163,None,1101.6479194892163,None,1101.6479194892163,None,1102.6316357699689,None,,,,,,,,,,,,,,,,,,,,,,,,,,,,,,24175,2019_Oct_07_1724,Mmi_3levels,3.1.5,59.993165895262294,
,,,3,1,2.3,,,,,,,,,0,2,2,2,0,26,26,11,,,,,,,,,,,,,,,,,,,,,,,,,,,,,,,,,,,,,,,,,,,,,,,,,,,,,,,,,,,True,True,True,0.51,-0.49,-12.790000000000001,19.65,2.3,-17.349999999999998,-7.524999999999999,certain,certain,-7.524999999999999,149.52166666666673,1104.6491303126386,None,1104.6491303126386,None,1104.6491303126386,None,1104.6491303126386,None,1104.6491303126386,None,1104.6491303126386,None,1104.6491303126386,None,3,1.550823225552449,1104.6491303126386,None,1106.233037432481,None,1106.233037432481,None,1106.233037432481,None,1106.233037432481,None,1106.233037432481,None,1106.233037432481,None,1106.233037432481,None,1110.2346114389657,None,1110.2346114389657,None,1110.2346114389657,None,1110.2346114389657,None,1110.2346114389657,None,1110.2346114389657,None,1110.2346114389657,None,1119.7216069265269,None,1111.2182966811815,None,1112.2187245012028,None,0.57,7.502853306679754,1115.219857248274,None,None,1115.219857248274,None,,,,,,,,,,,,,,,,,,,24175,2019_Oct_07_1724,Mmi_3levels,3.1.5,59.993165895262294,
,,,,,,,,,,,,,,,,,,,,,,,,,,,,,,0,0,0,0,,,,,,,,,,,,,,,,,,,,,,,,,,,,,,,,,,,,,,,,,,,,,,,,,,,,,,,,,,,,,,,,,,,,,,,,,,,,,,,,,,,,,,,,,,,,,,,,,,,,,,,,,,,,,,,,,,,,,,,,1121.7224193685688,None,space,62.824748667742824,1121.7224193685688,None,149.52166666666673,4,1184.5800916181179,None,1184.5800916181179,None,1184.5800916181179,None,space,3.534970526176039,1184.5800916181179,None,24175,2019_Oct_07_1724,Mmi_3levels,3.1.5,59.993165895262294,
