currSlide,currImage,currText,blockNum,targetHappiness,highAmount,instructionLoop1.thisRepN,instructionLoop1.thisTrialN,instructionLoop1.thisN,instructionLoop1.thisIndex,instructionLoop2.thisRepN,instructionLoop2.thisTrialN,instructionLoop2.thisN,instructionLoop2.thisIndex,blockLoop.thisRepN,blockLoop.thisTrialN,blockLoop.thisN,blockLoop.thisIndex,trialLoop.thisRepN,trialLoop.thisTrialN,trialLoop.thisN,trialLoop.thisIndex,doRatingLoop.thisRepN,doRatingLoop.thisTrialN,doRatingLoop.thisN,doRatingLoop.thisIndex,trialHappyLoop.thisRepN,trialHappyLoop.thisTrialN,trialHappyLoop.thisN,trialHappyLoop.thisIndex,logWinningsLoop.thisRepN,logWinningsLoop.thisTrialN,logWinningsLoop.thisN,logWinningsLoop.thisIndex,instrImage.started,instrImage.stopped,instrText.started,instrText.stopped,instrContinueText.started,instrContinueText.stopped,instrKeyResp.keys,instrKeyResp.rt,instrKeyResp.started,instrKeyResp.stopped,lifeHappyText.started,lifeHappyText.stopped,lifeHappySlider.response,lifeHappySlider.rt,lifeHappySlider.started,lifeHappySlider.stopped,lifeHappyResp.keys,lifeHappyResp.rt,lifeHappyResp.started,lifeHappyResp.stopped,instrImage_2.started,instrImage_2.stopped,instrText_2.started,instrText_2.stopped,instrContinueText_2.started,instrContinueText_2.stopped,instrKeyResp_2.keys,instrKeyResp_2.rt,instrKeyResp_2.started,instrKeyResp_2.stopped,localizing.started,localizing.stopped,start_exp.keys,start_exp.rt,start_exp.started,start_exp.stopped,blockHappyText.started,blockHappyText.stopped,blockHappySlider.response,blockHappySlider.rt,blockHappySlider.started,blockHappySlider.stopped,blockHappyResp.keys,blockHappyResp.rt,blockHappyResp.started,blockHappyResp.stopped,blankText.started,blankText.stopped,isHappyBlock,isCongruent,isWinOnTop,lastHappyRating,diff,sumDiff,RPE,winAmount,loseAmount,certainAmount,choice,outcome,outcomeAmount,currentWinnings,fixCross.started,fixCross.stopped,certainBox.started,certainBox.stopped,outcome1Box.started,outcome1Box.stopped,outcome2Box.started,outcome2Box.stopped,certainText.started,certainText.stopped,outcome1Text.started,outcome1Text.stopped,outcome2Text.started,outcome2Text.stopped,choiceKey.keys,choiceKey.rt,choiceKey.started,choiceKey.stopped,fixCross_2.started,fixCross_2.stopped,certainBox_2.started,certainBox_2.stopped,outcome1Box_2.started,outcome1Box_2.stopped,outcome2Box_2.started,outcome2Box_2.stopped,certainText_2.started,certainText_2.stopped,outcome1Text_2.started,outcome1Text_2.stopped,outcome2Text_2.started,outcome2Text_2.stopped,fixCross_3.started,fixCross_3.stopped,certainBox_3.started,certainBox_3.stopped,outcome1Box_3.started,outcome1Box_3.stopped,outcome2Box_3.started,outcome2Box_3.stopped,certainText_3.started,certainText_3.stopped,outcome1Text_3.started,outcome1Text_3.stopped,outcome2Text_3.started,outcome2Text_3.stopped,fixCross_ITI.started,fixCross_ITI.stopped,fixCross_ISI.started,fixCross_ISI.stopped,happyText.started,happyText.stopped,happySlider.response,happySlider.rt,happySlider.started,happySlider.stopped,happyResp.keys,happyResp.started,happyResp.stopped,endOfBlockText.started,endOfBlockText.stopped,restKeyResp.keys,restKeyResp.rt,restKeyResp.started,restKeyResp.stopped,finalWinnings,cashBonus,goodbyeText.started,goodbyeText.stopped,finalWinningsText.started,finalWinningsText.stopped,spaceToContinue.started,spaceToContinue.stopped,goodbyeKeyResp_2.keys,goodbyeKeyResp_2.rt,goodbyeKeyResp_2.started,goodbyeKeyResp_2.stopped,participant,date,expName,psychopyVersion,frameRate,
1,black.png,"Welcome! You are about to play our gambling task.
This task has 3 blocks and takes about 15 minutes.",,,,0,0,0,0,,,,,,,,,,,,,,,,,,,,,,,,,7.493248998613126,None,7.493248998613126,None,7.493248998613126,None,space,0.3837376958508685,7.493248998613126,None,,,,,,,,,,,,,,,,,,,,,,,,,,,,,,,,,,,,,,,,,,,,,,,,,,,,,,,,,,,,,,,,,,,,,,,,,,,,,,,,,,,,,,,,,,,,,,,,,,,,,,,,,,,,,,,,,,,,,,,,,,,,,,,,,,23672,2020_Jan_21_1213,Mmi_3levels,3.1.5,59.98548908152774,
2,black.png,"In this game, you may win or lose points. Your goal is to get as many points as possible. These points will be converted to a cash bonus at the end.
Sometimes we will ask you to rate your mood.",,,,0,1,1,1,,,,,,,,,,,,,,,,,,,,,,,,,7.910102375361021,None,7.910102375361021,None,7.910102375361021,None,space,0.250281105069007,7.910102375361021,None,,,,,,,,,,,,,,,,,,,,,,,,,,,,,,,,,,,,,,,,,,,,,,,,,,,,,,,,,,,,,,,,,,,,,,,,,,,,,,,,,,,,,,,,,,,,,,,,,,,,,,,,,,,,,,,,,,,,,,,,,,,,,,,,,,23672,2020_Jan_21_1213,Mmi_3levels,3.1.5,59.98548908152774,
3,black.png,"On the next screen, please rate how you feel about your life these days. Use the LEFT (green) and RIGHT (blue) buttons to move the slider (you can press and hold them to slide gradually) and the TOP (red) button to lock in your response.
Make your rating as accurately and quickly as you can!",,,,0,2,2,2,,,,,,,,,,,,,,,,,,,,,,,,,8.210187234853947,None,8.210187234853947,None,8.210187234853947,None,space,0.2670280554666533,8.210187234853947,None,,,,,,,,,,,,,,,,,,,,,,,,,,,,,,,,,,,,,,,,,,,,,,,,,,,,,,,,,,,,,,,,,,,,,,,,,,,,,,,,,,,,,,,,,,,,,,,,,,,,,,,,,,,,,,,,,,,,,,,,,,,,,,,,,,23672,2020_Jan_21_1213,Mmi_3levels,3.1.5,59.98548908152774,
,,,,,,,,,,,,,,,,,,,,,,,,,,,,,,,,,,,,,,,,,,,,8.493717773711978,None,0.34,8.703754296573607,12.495216254112165,None,4,4.686596807976457,12.495216254112165,None,,,,,,,,,,,,,,,,,,,,,,,,,,,,,,,,,,,,,,,,,,,,,,,,,,,,,,,,,,,,,,,,,,,,,,,,,,,,,,,,,,,,,,,,,,,,,,,,,,,,,,,,,,,,,,,,,,,,,,,,23672,2020_Jan_21_1213,Mmi_3levels,3.1.5,59.98548908152774,
4,black.png,"In this game you can win money by earning points according to your choices. You will decide whether to gamble a number of points or stick with a guaranteed number of points. 
Make your choice by pressing the left or right arrow key once. An example of one trial is shown on the next screen.",,,,,,,,0,0,0,0,,,,,,,,,,,,,,,,,,,,,,,,,,,,,,,,,,,,,,,,,17.24819001614742,None,17.24819001614742,None,17.24819001614742,None,4,0.9005748814633989,17.24819001614742,None,,,,,,,,,,,,,,,,,,,,,,,,,,,,,,,,,,,,,,,,,,,,,,,,,,,,,,,,,,,,,,,,,,,,,,,,,,,,,,,,,,,,,,,,,,,,,,,,,,,,,,,,,,,,,,23672,2020_Jan_21_1213,Mmi_3levels,3.1.5,59.98548908152774,
5,example_start.png,"The GAMBLING OPTION will be shown on the RIGHT SIDE. 
Select this option using the RIGHT (blue) button on your keypad.",,,,,,,,0,1,1,1,,,,,,,,,,,,,,,,,,,,,,,,,,,,,,,,,,,,,,,,,18.215171610085235,None,18.215171610085235,None,18.215171610085235,None,4,1.3006953870608413,18.215171610085235,None,,,,,,,,,,,,,,,,,,,,,,,,,,,,,,,,,,,,,,,,,,,,,,,,,,,,,,,,,,,,,,,,,,,,,,,,,,,,,,,,,,,,,,,,,,,,,,,,,,,,,,,,,,,,,,23672,2020_Jan_21_1213,Mmi_3levels,3.1.5,59.98548908152774,
6,example_gamble.png,"Once you select the gambling choice, the choice you made will remain on the screen.",,,,,,,,0,2,2,2,,,,,,,,,,,,,,,,,,,,,,,,,,,,,,,,,,,,,,,,,19.549015636290278,None,19.549015636290278,None,19.549015636290278,None,4,0.7005493468168424,19.549015636290278,None,,,,,,,,,,,,,,,,,,,,,,,,,,,,,,,,,,,,,,,,,,,,,,,,,,,,,,,,,,,,,,,,,,,,,,,,,,,,,,,,,,,,,,,,,,,,,,,,,,,,,,,,,,,,,,23672,2020_Jan_21_1213,Mmi_3levels,3.1.5,59.98548908152774,
7,example_win.png,"The outcome you received will then be shown on the screen. In this example , you WON 10 points.",,,,,,,,0,3,3,3,,,,,,,,,,,,,,,,,,,,,,,,,,,,,,,,,,,,,,,,,20.299255463549343,None,20.299255463549343,None,20.299255463549343,None,4,0.6505731215547712,20.299255463549343,None,,,,,,,,,,,,,,,,,,,,,,,,,,,,,,,,,,,,,,,,,,,,,,,,,,,,,,,,,,,,,,,,,,,,,,,,,,,,,,,,,,,,,,,,,,,,,,,,,,,,,,,,,,,,,,23672,2020_Jan_21_1213,Mmi_3levels,3.1.5,59.98548908152774,
8,example_start.png,"The GUARANTEED OPTION will be shown on the LEFT SIDE. You are 100% guaranteed to gain or lose this amount. In this example, you have a 100% chance of winning 1 point. Select this option using the LEFT (green) button on your keyboard.",,,,,,,,0,4,4,4,,,,,,,,,,,,,,,,,,,,,,,,,,,,,,,,,,,,,,,,,20.999594901517412,None,20.999594901517412,None,20.999594901517412,None,4,1.0005068530772405,20.999594901517412,None,,,,,,,,,,,,,,,,,,,,,,,,,,,,,,,,,,,,,,,,,,,,,,,,,,,,,,,,,,,,,,,,,,,,,,,,,,,,,,,,,,,,,,,,,,,,,,,,,,,,,,,,,,,,,,23672,2020_Jan_21_1213,Mmi_3levels,3.1.5,59.98548908152774,
9,example_certain.png,"Once you select the guaranteed choice, your selection will remain on the screen.",,,,,,,,0,5,5,5,,,,,,,,,,,,,,,,,,,,,,,,,,,,,,,,,,,,,,,,,22.033291671545157,None,22.033291671545157,None,22.033291671545157,None,4,1.3007859422505135,22.033291671545157,None,,,,,,,,,,,,,,,,,,,,,,,,,,,,,,,,,,,,,,,,,,,,,,,,,,,,,,,,,,,,,,,,,,,,,,,,,,,,,,,,,,,,,,,,,,,,,,,,,,,,,,,,,,,,,,23672,2020_Jan_21_1213,Mmi_3levels,3.1.5,59.98548908152774,
10,black.png,"Please make your choices as fast as possible.
You will be given a break at the end of each block.
Let's play!",,,,,,,,0,6,6,6,,,,,,,,,,,,,,,,,,,,,,,,,,,,,,,,,,,,,,,,,23.367163216291374,None,23.367163216291374,None,23.367163216291374,None,4,1.7175644429771637,23.367163216291374,None,,,,,,,,,,,,,,,,,,,,,,,,,,,,,,,,,,,,,,,,,,,,,,,,,,,,,,,,,,,,,,,,,,,,,,,,,,,,,,,,,,,,,,,,,,,,,,,,,,,,,,,,,,,,,,23672,2020_Jan_21_1213,Mmi_3levels,3.1.5,59.98548908152774,
,,,,,,,,,,,,,,,,,,,,,,,,,,,,,,,,,,,,,,,,,,,,,,,,,,,,,,,,,,,,,,,,25.101174785595504,None,space,100.93878469175615,25.101174785595504,None,,,,,,,,,,,,,,,,,,,,,,,,,,,,,,,,,,,,,,,,,,,,,,,,,,,,,,,,,,,,,,,,,,,,,,,,,,,,,,,,,,,,,,,,,,,,,,,,,,,,,,,,23672,2020_Jan_21_1213,Mmi_3levels,3.1.5,59.98548908152774,
,,,1,1,10.5,,,,,,,,,0,0,0,0,0,0,0,20,,,,,,,,,,,,,,,,,,,,,,,,,,,,,,,,,,,,,,,,,,,,,,,,,126.05641236337397,None,0.53,5.059064702483738,129.07417046006594,None,4,2.034307617577724,129.07417046006594,None,131.12492072421082,None,True,True,True,0.53,-0.47,-0.47,7.05,10.5,3.45,1.725,gamble,win,10.5,10.5,134.15943057104596,None,134.15943057104596,None,134.15943057104596,None,134.15943057104596,None,134.15943057104596,None,134.15943057104596,None,134.15943057104596,None,1,1.9677108352007053,134.15943057104596,None,136.16024044802543,None,136.16024044802543,None,136.16024044802543,None,136.16024044802543,None,136.16024044802543,None,136.16024044802543,None,136.16024044802543,None,140.14504605515322,None,140.14504605515322,None,140.14504605515322,None,140.14504605515322,None,140.14504605515322,None,140.14504605515322,None,140.14504605515322,None,141.14543355456772,None,,,,,,,,,,,,,,,,,,,,,,,,,,,,,,23672,2020_Jan_21_1213,Mmi_3levels,3.1.5,59.98548908152774,
,,,1,1,4.7,,,,,,,,,0,0,0,0,0,1,1,9,,,,,,,,,,,,,,,,,,,,,,,,,,,,,,,,,,,,,,,,,,,,,,,,,,,,,,,,,,,,,True,True,False,0.53,-0.47,-0.94,7.52,4.7,-2.8199999999999994,0.9400000000000004,gamble,win,4.7,15.2,143.16288318764418,None,143.16288318764418,None,143.16288318764418,None,143.16288318764418,None,143.16288318764418,None,143.16288318764418,None,143.16288318764418,None,1,1.0172026061991346,143.16288318764418,None,144.21324851223835,None,144.21324851223835,None,144.21324851223835,None,144.21324851223835,None,144.21324851223835,None,144.21324851223835,None,144.21324851223835,None,148.19814371460598,None,148.19814371460598,None,148.19814371460598,None,148.19814371460598,None,148.19814371460598,None,148.19814371460598,None,148.19814371460598,None,149.19852929412446,None,,,,,,,,,,,,,,,,,,,,,,,,,,,,,,23672,2020_Jan_21_1213,Mmi_3levels,3.1.5,59.98548908152774,
,,,1,1,4.5,,,,,,,,,0,0,0,0,0,2,2,15,,,,,,,,,,,,,,,,,,,,,,,,,,,,,,,,,,,,,,,,,,,,,,,,,,,,,,,,,,,,,True,False,False,0.53,-0.47,-1.41,-1.7625,4.5,2.7375,1.36875,gamble,lose,2.7375,17.9375,151.21596612787835,None,151.21596612787835,None,151.21596612787835,None,151.21596612787835,None,151.21596612787835,None,151.21596612787835,None,151.21596612787835,None,1,0.9840050096536288,151.21596612787835,None,152.2330221818629,None,152.2330221818629,None,152.2330221818629,None,152.2330221818629,None,152.2330221818629,None,152.2330221818629,None,152.2330221818629,None,156.2178588273382,None,156.2178588273382,None,156.2178588273382,None,156.2178588273382,None,156.2178588273382,None,156.2178588273382,None,156.2178588273382,None,165.72145255644136,None,157.21824088704307,None,158.21862998637516,None,0.58,7.502703856371227,161.2197451271386,None,None,161.2197451271386,None,,,,,,,,,,,,,,,,,,,23672,2020_Jan_21_1213,Mmi_3levels,3.1.5,59.98548908152774,
,,,1,1,-1.1,,,,,,,,,0,0,0,0,0,3,3,21,,,,,,,,,,,,,,,,,,,,,,,,,,,,,,,,,,,,,,,,,,,,,,,,,,,,,,,,,,,,,True,True,True,0.58,-0.42000000000000004,-1.83,7.710000000000001,-1.1,-8.81,-4.955,gamble,win,-1.1,16.8375,167.73893258790122,None,167.73893258790122,None,167.73893258790122,None,167.73893258790122,None,167.73893258790122,None,167.73893258790122,None,167.73893258790122,None,1,2.400952461404813,167.73893258790122,None,170.173175760905,None,170.173175760905,None,170.173175760905,None,170.173175760905,None,170.173175760905,None,170.173175760905,None,170.173175760905,None,174.1746422430042,None,174.1746422430042,None,174.1746422430042,None,174.1746422430042,None,174.1746422430042,None,174.1746422430042,None,174.1746422430042,None,175.15842454448648,None,,,,,,,,,,,,,,,,,,,,,,,,,,,,,,23672,2020_Jan_21_1213,Mmi_3levels,3.1.5,59.98548908152774,
,,,1,1,2.9,,,,,,,,,0,0,0,0,0,4,4,10,,,,,,,,,,,,,,,,,,,,,,,,,,,,,,,,,,,,,,,,,,,,,,,,,,,,,,,,,,,,,True,True,False,0.58,-0.42000000000000004,-2.25,8.13,2.9,-5.23,-1.1650000000000003,certain,certain,-1.1650000000000003,15.672499999999998,177.17581306081047,None,177.17581306081047,None,177.17581306081047,None,177.17581306081047,None,177.17581306081047,None,177.17581306081047,None,177.17581306081047,None,3,1.6343176650443638,177.17581306081047,None,178.84312161337948,None,178.84312161337948,None,178.84312161337948,None,178.84312161337948,None,178.84312161337948,None,178.84312161337948,None,178.84312161337948,None,182.84469208995506,None,182.84469208995506,None,182.84469208995506,None,182.84469208995506,None,182.84469208995506,None,182.84469208995506,None,182.84469208995506,None,192.33164574297916,None,183.82840175529782,None,184.82881773320332,None,0.53,7.502817770320689,187.82991463493454,None,None,187.82991463493454,None,,,,,,,,,,,,,,,,,,,23672,2020_Jan_21_1213,Mmi_3levels,3.1.5,59.98548908152774,
,,,1,1,0.1,,,,,,,,,0,0,0,0,0,5,5,11,,,,,,,,,,,,,,,,,,,,,,,,,,,,,,,,,,,,,,,,,,,,,,,,,,,,,,,,,,,,,True,True,False,0.53,-0.47,-2.7199999999999998,9.3,0.1,-9.200000000000001,-4.550000000000001,certain,certain,-4.550000000000001,11.122499999999997,194.3490073807261,None,194.3490073807261,None,194.3490073807261,None,194.3490073807261,None,194.3490073807261,None,194.3490073807261,None,194.3490073807261,None,3,1.600825044173689,194.3490073807261,None,195.98304154083235,None,195.98304154083235,None,195.98304154083235,None,195.98304154083235,None,195.98304154083235,None,195.98304154083235,None,195.98304154083235,None,199.96784714796013,None,199.96784714796013,None,199.96784714796013,None,199.96784714796013,None,199.96784714796013,None,199.96784714796013,None,199.96784714796013,None,200.96822856769722,None,,,,,,,,,,,,,,,,,,,,,,,,,,,,,,23672,2020_Jan_21_1213,Mmi_3levels,3.1.5,59.98548908152774,
,,,1,1,1.7,,,,,,,,,0,0,0,0,0,6,6,17,,,,,,,,,,,,,,,,,,,,,,,,,,,,,,,,,,,,,,,,,,,,,,,,,,,,,,,,,,,,,True,True,True,0.53,-0.47,-3.1899999999999995,9.77,1.7,-8.07,-3.185,certain,certain,-3.185,7.9374999999999964,202.98568204056937,None,202.98568204056937,None,202.98568204056937,None,202.98568204056937,None,202.98568204056937,None,202.98568204056937,None,202.98568204056937,None,3,2.3178285569483705,202.98568204056937,None,205.33662147866562,None,205.33662147866562,None,205.33662147866562,None,205.33662147866562,None,205.33662147866562,None,205.33662147866562,None,205.33662147866562,None,209.32141044667515,None,209.32141044667515,None,209.32141044667515,None,209.32141044667515,None,209.32141044667515,None,209.32141044667515,None,209.32141044667515,None,210.32187410204642,None,,,,,,,,,,,,,,,,,,,,,,,,,,,,,,23672,2020_Jan_21_1213,Mmi_3levels,3.1.5,59.98548908152774,
,,,1,1,-0.5,,,,,,,,,0,0,0,0,0,7,7,26,,,,,,,,,,,,,,,,,,,,,,,,,,,,,,,,,,,,,,,,,,,,,,,,,,,,,,,,,,,,,True,True,False,0.53,-0.47,-3.6599999999999993,10.239999999999998,-0.5,-10.739999999999998,-5.619999999999999,gamble,win,-0.5,7.4374999999999964,212.33928533716244,None,212.33928533716244,None,212.33928533716244,None,212.33928533716244,None,212.33928533716244,None,212.33928533716244,None,212.33928533716244,None,1,2.8013807906536385,212.33928533716244,None,215.17364421601815,None,215.17364421601815,None,215.17364421601815,None,215.17364421601815,None,215.17364421601815,None,215.17364421601815,None,215.17364421601815,None,219.175252130608,None,219.175252130608,None,219.175252130608,None,219.175252130608,None,219.175252130608,None,219.175252130608,None,219.175252130608,None,228.66212674782582,None,220.15888372009795,None,221.15929521823637,None,0.57,7.502733294808422,224.16047819539745,None,None,224.16047819539745,None,,,,,,,,,,,,,,,,,,,23672,2020_Jan_21_1213,Mmi_3levels,3.1.5,59.98548908152774,
,,,1,1,13.3,,,,,,,,,0,0,0,0,0,8,8,3,,,,,,,,,,,,,,,,,,,,,,,,,,,,,,,,,,,,,,,,,,,,,,,,,,,,,,,,,,,,,True,True,False,0.57,-0.43000000000000005,-4.089999999999999,10.11,13.3,3.1900000000000013,1.5950000000000006,gamble,win,13.3,20.737499999999997,230.6796080592212,None,230.6796080592212,None,230.6796080592212,None,230.6796080592212,None,230.6796080592212,None,230.6796080592212,None,230.6796080592212,None,1,1.1506105595690315,230.6796080592212,None,231.86336789789857,None,231.86336789789857,None,231.86336789789857,None,231.86336789789857,None,231.86336789789857,None,231.86336789789857,None,231.86336789789857,None,235.84819718376457,None,235.84819718376457,None,235.84819718376457,None,235.84819718376457,None,235.84819718376457,None,235.84819718376457,None,235.84819718376457,None,236.84858148335115,None,,,,,,,,,,,,,,,,,,,,,,,,,,,,,,23672,2020_Jan_21_1213,Mmi_3levels,3.1.5,59.98548908152774,
,,,1,1,4.9,,,,,,,,,0,0,0,0,0,9,9,7,,,,,,,,,,,,,,,,,,,,,,,,,,,,,,,,,,,,,,,,,,,,,,,,,,,,,,,,,,,,,True,False,False,0.57,-0.43000000000000005,-4.519999999999999,-1.8816666666666666,4.9,3.0183333333333335,1.5091666666666668,gamble,lose,3.0183333333333335,23.75583333333333,238.8660189570728,None,238.8660189570728,None,238.8660189570728,None,238.8660189570728,None,238.8660189570728,None,238.8660189570728,None,238.8660189570728,None,1,1.100675612113264,238.8660189570728,None,239.99985888749507,None,239.99985888749507,None,239.99985888749507,None,239.99985888749507,None,239.99985888749507,None,239.99985888749507,None,239.99985888749507,None,243.98464369572685,None,243.98464369572685,None,243.98464369572685,None,243.98464369572685,None,243.98464369572685,None,243.98464369572685,None,243.98464369572685,None,253.48826206351805,None,244.98502191563603,None,245.98542125442327,None,0.56,7.50272177541774,248.9865363951867,None,None,248.9865363951867,None,,,,,,,,,,,,,,,,,,,23672,2020_Jan_21_1213,Mmi_3levels,3.1.5,59.98548908152774,
,,,1,1,11.9,,,,,,,,,0,0,0,0,0,10,10,6,,,,,,,,,,,,,,,,,,,,,,,,,,,,,,,,,,,,,,,,,,,,,,,,,,,,,,,,,,,,,True,True,False,0.56,-0.43999999999999995,-4.959999999999999,11.119999999999997,11.9,0.7800000000000029,0.39000000000000146,gamble,win,11.9,35.655833333333334,255.50570497695298,None,255.50570497695298,None,255.50570497695298,None,255.50570497695298,None,255.50570497695298,None,255.50570497695298,None,255.50570497695298,None,1,1.484135242735647,255.50570497695298,None,257.0230051779654,None,257.0230051779654,None,257.0230051779654,None,257.0230051779654,None,257.0230051779654,None,257.0230051779654,None,257.0230051779654,None,261.00783158398553,None,261.00783158398553,None,261.00783158398553,None,261.00783158398553,None,261.00783158398553,None,261.00783158398553,None,261.00783158398553,None,262.00818388527114,None,,,,,,,,,,,,,,,,,,,,,,,,,,,,,,23672,2020_Jan_21_1213,Mmi_3levels,3.1.5,59.98548908152774,
,,,1,1,10.3,,,,,,,,,0,0,0,0,0,11,11,14,,,,,,,,,,,,,,,,,,,,,,,,,,,,,,,,,,,,,,,,,,,,,,,,,,,,,,,,,,,,,True,True,False,0.56,-0.43999999999999995,-5.399999999999999,11.559999999999999,10.3,-1.259999999999998,-0.629999999999999,gamble,win,10.3,45.95583333333333,264.02559992013266,None,264.02559992013266,None,264.02559992013266,None,264.02559992013266,None,264.02559992013266,None,264.02559992013266,None,264.02559992013266,None,1,1.4841330028539232,264.02559992013266,None,265.5428610832205,None,265.5428610832205,None,265.5428610832205,None,265.5428610832205,None,265.5428610832205,None,265.5428610832205,None,265.5428610832205,None,269.5443922018858,None,269.5443922018858,None,269.5443922018858,None,269.5443922018858,None,269.5443922018858,None,269.5443922018858,None,269.5443922018858,None,279.0313871327162,None,270.52812970574814,None,271.5284791271879,None,0.59,7.502736174654274,274.5296176267111,None,None,274.5296176267111,None,,,,,,,,,,,,,,,,,,,23672,2020_Jan_21_1213,Mmi_3levels,3.1.5,59.98548908152774,
,,,1,1,4.1,,,,,,,,,0,0,0,0,0,12,12,19,,,,,,,,,,,,,,,,,,,,,,,,,,,,,,,,,,,,,,,,,,,,,,,,,,,,,,,,,,,,,True,True,False,0.59,-0.41000000000000003,-5.809999999999999,11.549999999999999,4.1,-7.449999999999999,-1.6749999999999998,certain,certain,-1.6749999999999998,44.280833333333334,281.0487836486136,None,281.0487836486136,None,281.0487836486136,None,281.0487836486136,None,281.0487836486136,None,281.0487836486136,None,281.0487836486136,None,3,2.618064128433616,281.0487836486136,None,283.69978874722074,None,283.69978874722074,None,283.69978874722074,None,283.69978874722074,None,283.69978874722074,None,283.69978874722074,None,283.69978874722074,None,287.7013182659721,None,287.7013182659721,None,287.7013182659721,None,287.7013182659721,None,287.7013182659721,None,287.7013182659721,None,287.7013182659721,None,288.68507432885235,None,,,,,,,,,,,,,,,,,,,,,,,,,,,,,,23672,2020_Jan_21_1213,Mmi_3levels,3.1.5,59.98548908152774,
,,,1,1,13.7,,,,,,,,,0,0,0,0,0,13,13,16,,,,,,,,,,,,,,,,,,,,,,,,,,,,,,,,,,,,,,,,,,,,,,,,,,,,,,,,,,,,,True,True,True,0.59,-0.41000000000000003,-6.219999999999999,11.959999999999999,13.7,1.7400000000000002,0.8700000000000001,gamble,win,13.7,57.98083333333334,290.70249644338764,None,290.70249644338764,None,290.70249644338764,None,290.70249644338764,None,290.70249644338764,None,290.70249644338764,None,290.70249644338764,None,1,1.6174967985716648,290.70249644338764,None,292.35311596247993,None,292.35311596247993,None,292.35311596247993,None,292.35311596247993,None,292.35311596247993,None,292.35311596247993,None,292.35311596247993,None,296.3379471682456,None,296.3379471682456,None,296.3379471682456,None,296.3379471682456,None,296.3379471682456,None,296.3379471682456,None,296.3379471682456,None,297.3383554665561,None,,,,,,,,,,,,,,,,,,,,,,,,,,,,,,23672,2020_Jan_21_1213,Mmi_3levels,3.1.5,59.98548908152774,
,,,1,1,7.7,,,,,,,,,0,0,0,0,0,14,14,25,,,,,,,,,,,,,,,,,,,,,,,,,,,,,,,,,,,,,,,,,,,,,,,,,,,,,,,,,,,,,True,True,True,0.59,-0.41000000000000003,-6.629999999999999,12.37,7.7,-4.669999999999999,1.5150000000000006,gamble,win,7.7,65.68083333333334,299.35576094197677,None,299.35576094197677,None,299.35576094197677,None,299.35576094197677,None,299.35576094197677,None,299.35576094197677,None,299.35576094197677,None,1,1.8010739269557234,299.35576094197677,None,301.189796638002,None,301.189796638002,None,301.189796638002,None,301.189796638002,None,301.189796638002,None,301.189796638002,None,301.189796638002,None,305.1746454428321,None,305.1746454428321,None,305.1746454428321,None,305.1746454428321,None,305.1746454428321,None,305.1746454428321,None,305.1746454428321,None,314.6783230074798,None,306.1750812596838,None,307.17549851751755,None,0.54,7.502778092428343,310.17653942222387,None,None,310.17653942222387,None,,,,,,,,,,,,,,,,,,,23672,2020_Jan_21_1213,Mmi_3levels,3.1.5,59.98548908152774,
,,,1,1,9.9,,,,,,,,,0,0,0,0,0,15,15,18,,,,,,,,,,,,,,,,,,,,,,,,,,,,,,,,,,,,,,,,,,,,,,,,,,,,,,,,,,,,,True,True,False,0.54,-0.45999999999999996,-7.089999999999999,13.529999999999998,9.9,-3.6299999999999972,-1.8149999999999986,gamble,win,9.9,75.58083333333335,316.6957131237177,None,316.6957131237177,None,316.6957131237177,None,316.6957131237177,None,316.6957131237177,None,316.6957131237177,None,316.6957131237177,None,1,1.3674528009105416,316.6957131237177,None,318.09622048876554,None,318.09622048876554,None,318.09622048876554,None,318.09622048876554,None,318.09622048876554,None,318.09622048876554,None,318.09622048876554,None,322.09774552775707,None,322.09774552775707,None,322.09774552775707,None,322.09774552775707,None,322.09774552775707,None,322.09774552775707,None,322.09774552775707,None,323.08147919182375,None,,,,,,,,,,,,,,,,,,,,,,,,,,,,,,23672,2020_Jan_21_1213,Mmi_3levels,3.1.5,59.98548908152774,
,,,1,1,-0.7,,,,,,,,,0,0,0,0,0,16,16,2,,,,,,,,,,,,,,,,,,,,,,,,,,,,,,,,,,,,,,,,,,,,,,,,,,,,,,,,,,,,,True,False,False,0.54,-0.45999999999999996,-7.549999999999999,-2.2391666666666663,-0.7,-2.939166666666666,-1.819583333333333,certain,certain,-1.819583333333333,73.76125000000002,325.0989141056816,None,325.0989141056816,None,325.0989141056816,None,325.0989141056816,None,325.0989141056816,None,325.0989141056816,None,325.0989141056816,None,3,2.384498295450612,325.0989141056816,None,327.5165082430831,None,327.5165082430831,None,327.5165082430831,None,327.5165082430831,None,327.5165082430831,None,327.5165082430831,None,327.5165082430831,None,331.5180761597949,None,331.5180761597949,None,331.5180761597949,None,331.5180761597949,None,331.5180761597949,None,331.5180761597949,None,331.5180761597949,None,341.00498597514525,None,332.5018456619582,None,333.50211828747706,None,0.53,7.502805930947943,336.50330254457003,None,None,336.50330254457003,None,,,,,,,,,,,,,,,,,,,23672,2020_Jan_21_1213,Mmi_3levels,3.1.5,59.98548908152774,
,,,1,1,0.9,,,,,,,,,0,0,0,0,0,17,17,4,,,,,,,,,,,,,,,,,,,,,,,,,,,,,,,,,,,,,,,,,,,,,,,,,,,,,,,,,,,,,True,True,True,0.53,-0.47,-8.02,14.6,0.9,-13.7,-6.3999999999999995,gamble,win,0.9,74.66125000000002,343.02241768917156,None,343.02241768917156,None,343.02241768917156,None,343.02241768917156,None,343.02241768917156,None,343.02241768917156,None,343.02241768917156,None,None,,343.02241768917156,None,346.0235696279815,None,346.0235696279815,None,346.0235696279815,None,346.0235696279815,None,346.0235696279815,None,346.0235696279815,None,346.0235696279815,None,350.02509786680093,None,350.02509786680093,None,350.02509786680093,None,350.02509786680093,None,350.02509786680093,None,350.02509786680093,None,350.02509786680093,None,351.0088500898819,None,,,,,,,,,,,,,,,,,,,,,,,,,,,,,,23672,2020_Jan_21_1213,Mmi_3levels,3.1.5,59.98548908152774,
,,,1,1,3.3,,,,,,,,,0,0,0,0,0,18,18,8,,,,,,,,,,,,,,,,,,,,,,,,,,,,,,,,,,,,,,,,,,,,,,,,,,,,,,,,,,,,,True,False,True,0.53,-0.47,-8.49,-2.3525,3.3,0.9474999999999998,0.4737499999999999,gamble,lose,0.9474999999999998,75.60875000000003,353.02627572423444,None,353.02627572423444,None,353.02627572423444,None,353.02627572423444,None,353.02627572423444,None,353.02627572423444,None,353.02627572423444,None,1,1.250706042497768,353.02627572423444,None,354.3101153666721,None,354.3101153666721,None,354.3101153666721,None,354.3101153666721,None,354.3101153666721,None,354.3101153666721,None,354.3101153666721,None,358.29499808970286,None,358.29499808970286,None,358.29499808970286,None,358.29499808970286,None,358.29499808970286,None,358.29499808970286,None,358.29499808970286,None,359.2952899142001,None,,,,,,,,,,,,,,,,,,,,,,,,,,,,,,23672,2020_Jan_21_1213,Mmi_3levels,3.1.5,59.98548908152774,
,,,1,1,11.7,,,,,,,,,0,0,0,0,0,19,19,13,,,,,,,,,,,,,,,,,,,,,,,,,,,,,,,,,,,,,,,,,,,,,,,,,,,,,,,,,,,,,True,True,False,0.53,-0.47,-8.96,15.540000000000001,11.7,-3.8400000000000016,-1.9200000000000008,gamble,win,11.7,87.30875000000003,361.3127318676816,None,361.3127318676816,None,361.3127318676816,None,361.3127318676816,None,361.3127318676816,None,361.3127318676816,None,361.3127318676816,None,1,1.2840677903186588,361.3127318676816,None,362.629898699779,None,362.629898699779,None,362.629898699779,None,362.629898699779,None,362.629898699779,None,362.629898699779,None,362.629898699779,None,366.6147811028277,None,366.6147811028277,None,366.6147811028277,None,366.6147811028277,None,366.6147811028277,None,366.6147811028277,None,366.6147811028277,None,376.1184029904325,None,367.6152380385538,None,368.61548858524475,None,0.56,7.50281233061105,371.6166939612158,None,None,371.6166939612158,None,,,,,,,,,,,,,,,,,,,23672,2020_Jan_21_1213,Mmi_3levels,3.1.5,59.98548908152774,
,,,1,1,12.7,,,,,,,,,0,0,0,0,0,20,20,22,,,,,,,,,,,,,,,,,,,,,,,,,,,,,,,,,,,,,,,,,,,,,,,,,,,,,,,,,,,,,True,True,False,0.56,-0.43999999999999995,-9.4,15.559999999999999,12.7,-2.8599999999999994,-1.4299999999999997,gamble,win,12.7,100.00875000000003,378.13581486551266,None,378.13581486551266,None,378.13581486551266,None,378.13581486551266,None,378.13581486551266,None,378.13581486551266,None,378.13581486551266,None,1,1.217373093142669,378.13581486551266,None,379.3862943600434,None,379.3862943600434,None,379.3862943600434,None,379.3862943600434,None,379.3862943600434,None,379.3862943600434,None,379.3862943600434,None,383.387819719017,None,383.387819719017,None,383.387819719017,None,383.387819719017,None,383.387819719017,None,383.387819719017,None,383.387819719017,None,384.3716116199903,None,,,,,,,,,,,,,,,,,,,,,,,,,,,,,,23672,2020_Jan_21_1213,Mmi_3levels,3.1.5,59.98548908152774,
,,,1,1,9.3,,,,,,,,,0,0,0,0,0,21,21,0,,,,,,,,,,,,,,,,,,,,,,,,,,,,,,,,,,,,,,,,,,,,,,,,,,,,,,,,,,,,,True,False,True,0.56,-0.43999999999999995,-9.84,-2.36,9.3,6.940000000000001,3.4700000000000006,gamble,lose,6.940000000000001,106.94875000000003,386.3889626983,None,386.3889626983,None,386.3889626983,None,386.3889626983,None,386.3889626983,None,386.3889626983,None,386.3889626983,None,1,1.4174581446241064,386.3889626983,None,387.8395134850434,None,387.8395134850434,None,387.8395134850434,None,387.8395134850434,None,387.8395134850434,None,387.8395134850434,None,387.8395134850434,None,391.82436708961905,None,391.82436708961905,None,391.82436708961905,None,391.82436708961905,None,391.82436708961905,None,391.82436708961905,None,391.82436708961905,None,401.3279630586003,None,392.82475010927374,None,393.82522528403206,None,0.53,7.502759533414064,396.8262665087241,None,None,396.8262665087241,None,,,,,,,,,,,,,,,,,,,23672,2020_Jan_21_1213,Mmi_3levels,3.1.5,59.98548908152774,
,,,1,1,6.5,,,,,,,,,0,0,0,0,0,22,22,5,,,,,,,,,,,,,,,,,,,,,,,,,,,,,,,,,,,,,,,,,,,,,,,,,,,,,,,,,,,,,True,True,False,0.53,-0.47,-10.31,16.89,6.5,-10.39,-1.9450000000000003,gamble,win,6.5,113.44875000000003,403.3454766882787,None,403.3454766882787,None,403.3454766882787,None,403.3454766882787,None,403.3454766882787,None,403.3454766882787,None,403.3454766882787,None,1,1.8342590441607172,403.3454766882787,None,405.21280757566274,None,405.21280757566274,None,405.21280757566274,None,405.21280757566274,None,405.21280757566274,None,405.21280757566274,None,405.21280757566274,None,409.2143879717114,None,409.2143879717114,None,409.2143879717114,None,409.2143879717114,None,409.2143879717114,None,409.2143879717114,None,409.2143879717114,None,410.1980998769359,None,,,,,,,,,,,,,,,,,,,,,,,,,,,,,,23672,2020_Jan_21_1213,Mmi_3levels,3.1.5,59.98548908152774,
,,,1,1,5.5,,,,,,,,,0,0,0,0,0,23,23,24,,,,,,,,,,,,,,,,,,,,,,,,,,,,,,,,,,,,,,,,,,,,,,,,,,,,,,,,,,,,,True,True,False,0.53,-0.47,-10.780000000000001,17.36,5.5,-11.86,-3.1799999999999997,gamble,win,5.5,118.94875000000003,412.2154775138333,None,412.2154775138333,None,412.2154775138333,None,412.2154775138333,None,412.2154775138333,None,412.2154775138333,None,412.2154775138333,None,1,1.3674524809248396,412.2154775138333,None,413.61601431731833,None,413.61601431731833,None,413.61601431731833,None,413.61601431731833,None,413.61601431731833,None,413.61601431731833,None,413.61601431731833,None,417.6175691147291,None,417.6175691147291,None,417.6175691147291,None,417.6175691147291,None,417.6175691147291,None,417.6175691147291,None,417.6175691147291,None,427.1045435666456,None,418.6012499815988,None,419.6016237217482,None,0.56,7.502796011474857,422.6027647811352,None,None,422.6027647811352,None,,,,,,,,,,,,,,,,,,,23672,2020_Jan_21_1213,Mmi_3levels,3.1.5,59.98548908152774,
,,,1,1,10.9,,,,,,,,,0,0,0,0,0,24,24,23,,,,,,,,,,,,,,,,,,,,,,,,,,,,,,,,,,,,,,,,,,,,,,,,,,,,,,,,,,,,,True,True,True,0.56,-0.43999999999999995,-11.22,17.38,10.9,-6.479999999999999,-3.2399999999999993,gamble,win,10.9,129.84875000000002,429.12193944257524,None,429.12193944257524,None,429.12193944257524,None,429.12193944257524,None,429.12193944257524,None,429.12193944257524,None,429.12193944257524,None,1,1.0673007449840952,429.12193944257524,None,430.2223555484743,None,430.2223555484743,None,430.2223555484743,None,430.2223555484743,None,430.2223555484743,None,430.2223555484743,None,430.2223555484743,None,434.2239234651861,None,434.2239234651861,None,434.2239234651861,None,434.2239234651861,None,434.2239234651861,None,434.2239234651861,None,434.2239234651861,None,435.207632170579,None,,,,,,,,,,,,,,,,,,,,,,,,,,,,,,23672,2020_Jan_21_1213,Mmi_3levels,3.1.5,59.98548908152774,
,,,1,1,9.1,,,,,,,,,0,0,0,0,0,25,25,1,,,,,,,,,,,,,,,,,,,,,,,,,,,,,,,,,,,,,,,,,,,,,,,,,,,,,,,,,,,,,True,False,False,0.56,-0.43999999999999995,-11.66,-2.5116666666666667,9.1,6.588333333333333,3.2941666666666665,gamble,lose,6.588333333333333,136.43708333333336,437.22502324676316,None,437.22502324676316,None,437.22502324676316,None,437.22502324676316,None,437.22502324676316,None,437.22502324676316,None,437.22502324676316,None,1,1.017318120058917,437.22502324676316,None,438.27542824924967,None,438.27542824924967,None,438.27542824924967,None,438.27542824924967,None,438.27542824924967,None,438.27542824924967,None,438.27542824924967,None,442.26027321428774,None,442.26027321428774,None,442.26027321428774,None,442.26027321428774,None,442.26027321428774,None,442.26027321428774,None,442.26027321428774,None,443.260663273566,None,,,,,,,,,,,,,,,,,,,,,,,,,,,,,,23672,2020_Jan_21_1213,Mmi_3levels,3.1.5,59.98548908152774,
,,,1,1,10.1,,,,,,,,,0,0,0,0,0,26,26,12,,,,,,,,,,,,,,,,,,,,,,,,,,,,,,,,,,,,,,,,,,,,,,,,,,,,,,,,,,,,,True,True,True,0.56,-0.43999999999999995,-12.1,18.259999999999998,10.1,-8.159999999999998,0.9700000000000006,certain,certain,0.9700000000000006,137.40708333333336,445.2780946676103,None,445.2780946676103,None,445.2780946676103,None,445.2780946676103,None,445.2780946676103,None,445.2780946676103,None,445.2780946676103,None,3,1.6008695218115463,445.2780946676103,None,446.9120513918315,None,446.9120513918315,None,446.9120513918315,None,446.9120513918315,None,446.9120513918315,None,446.9120513918315,None,446.9120513918315,None,450.91357675080144,None,450.91357675080144,None,450.91357675080144,None,450.91357675080144,None,450.91357675080144,None,450.91357675080144,None,450.91357675080144,None,460.4006212789973,None,451.89728225636645,None,452.8976620761896,None,0.59,7.50282448996586,455.8987922561537,None,None,455.8987922561537,None,,,,,,,,,,,,,,,,,,,23672,2020_Jan_21_1213,Mmi_3levels,3.1.5,59.98548908152774,
,,,2,0,5.7,,,,,,,,,0,1,1,1,0,0,0,10,,,,,,,,,,,,,,,,,,,,,,,,,,,,,,,,,,,,,,,,,,,,,,,,,469.5373490560196,None,0.56,7.501776865614374,472.5551474705644,None,None,,472.5551474705644,None,477.04023498271636,None,False,True,True,0.56,0.56,0.56,-8.4,5.7,-2.7,1.5,certain,certain,1.5,138.90708333333336,480.0746987520033,None,480.0746987520033,None,480.0746987520033,None,480.0746987520033,None,480.0746987520033,None,480.0746987520033,None,480.0746987520033,None,3,1.2338877358852187,480.0746987520033,None,481.3418487209965,None,481.3418487209965,None,481.3418487209965,None,481.3418487209965,None,481.3418487209965,None,481.3418487209965,None,481.3418487209965,None,485.32670200559005,None,485.32670200559005,None,485.32670200559005,None,485.32670200559005,None,485.32670200559005,None,485.32670200559005,None,485.32670200559005,None,486.32708694514076,None,,,,,,,,,,,,462.40138571838907,None,4,7.119476533407578,462.40138571838907,None,,,,,,,,,,,,,23672,2020_Jan_21_1213,Mmi_3levels,3.1.5,59.98548908152774,
,,,2,0,7.1,,,,,,,,,0,1,1,1,0,1,1,13,,,,,,,,,,,,,,,,,,,,,,,,,,,,,,,,,,,,,,,,,,,,,,,,,,,,,,,,,,,,,False,False,True,0.56,0.56,1.12,2.0533333333333337,1.775,-0.27833333333333377,0.7483333333333331,gamble,win,1.775,140.68208333333337,488.3445762561096,None,488.3445762561096,None,488.3445762561096,None,488.3445762561096,None,488.3445762561096,None,488.3445762561096,None,488.3445762561096,None,1,1.5007698791050643,488.3445762561096,None,489.87847141559905,None,489.87847141559905,None,489.87847141559905,None,489.87847141559905,None,489.87847141559905,None,489.87847141559905,None,489.87847141559905,None,493.86329206192386,None,493.86329206192386,None,493.86329206192386,None,493.86329206192386,None,493.86329206192386,None,493.86329206192386,None,493.86329206192386,None,503.36691714936023,None,494.8636709218008,None,495.8640712205379,None,0.54,7.5025483446333965,498.86518700126544,None,None,498.86518700126544,None,,,,,,,,,,,,,,,,,,,23672,2020_Jan_21_1213,Mmi_3levels,3.1.5,59.98548908152774,
,,,2,0,4.9,,,,,,,,,0,1,1,1,0,2,2,23,,,,,,,,,,,,,,,,,,,,,,,,,,,,,,,,,,,,,,,,,,,,,,,,,,,,,,,,,,,,,False,True,True,0.54,0.54,1.6600000000000001,-9.22,4.9,-4.32,0.29000000000000004,gamble,lose,-4.32,136.36208333333337,505.3843459835407,None,505.3843459835407,None,505.3843459835407,None,505.3843459835407,None,505.3843459835407,None,505.3843459835407,None,505.3843459835407,None,1,1.384224389999872,505.3843459835407,None,506.801563820929,None,506.801563820929,None,506.801563820929,None,506.801563820929,None,506.801563820929,None,506.801563820929,None,506.801563820929,None,510.8031266179132,None,510.8031266179132,None,510.8031266179132,None,510.8031266179132,None,510.8031266179132,None,510.8031266179132,None,510.8031266179132,None,511.78679884524536,None,,,,,,,,,,,,,,,,,,,,,,,,,,,,,,23672,2020_Jan_21_1213,Mmi_3levels,3.1.5,59.98548908152774,
,,,2,0,3.3,,,,,,,,,0,1,1,1,0,3,3,11,,,,,,,,,,,,,,,,,,,,,,,,,,,,,,,,,,,,,,,,,,,,,,,,,,,,,,,,,,,,,False,False,False,0.54,0.54,2.2,2.0733333333333333,0.825,-1.2483333333333333,-0.21166666666666667,gamble,win,0.825,137.18708333333336,513.8042350390351,None,513.8042350390351,None,513.8042350390351,None,513.8042350390351,None,513.8042350390351,None,513.8042350390351,None,513.8042350390351,None,1,1.7676027449415415,513.8042350390351,None,515.6049214665727,None,515.6049214665727,None,515.6049214665727,None,515.6049214665727,None,515.6049214665727,None,515.6049214665727,None,515.6049214665727,None,519.6064487454423,None,519.6064487454423,None,519.6064487454423,None,519.6064487454423,None,519.6064487454423,None,519.6064487454423,None,519.6064487454423,None,529.093397918703,None,520.5901798496452,None,521.5905142318843,None,0.5,7.50274513417753,524.591636732257,None,None,524.591636732257,None,,,,,,,,,,,,,,,,,,,23672,2020_Jan_21_1213,Mmi_3levels,3.1.5,59.98548908152774,
,,,2,0,4.3,,,,,,,,,0,1,1,1,0,4,4,8,,,,,,,,,,,,,,,,,,,,,,,,,,,,,,,,,,,,,,,,,,,,,,,,,,,,,,,,,,,,,False,True,True,0.5,0.5,2.7,-9.7,4.3,-5.3999999999999995,-0.5499999999999998,certain,certain,-0.5499999999999998,136.63708333333335,531.1108331525429,None,531.1108331525429,None,531.1108331525429,None,531.1108331525429,None,531.1108331525429,None,531.1108331525429,None,531.1108331525429,None,3,2.001038984810293,531.1108331525429,None,533.1449897381463,None,533.1449897381463,None,533.1449897381463,None,533.1449897381463,None,533.1449897381463,None,533.1449897381463,None,533.1449897381463,None,537.1465131772202,None,537.1465131772202,None,537.1465131772202,None,537.1465131772202,None,537.1465131772202,None,537.1465131772202,None,537.1465131772202,None,538.1301825247028,None,,,,,,,,,,,,,,,,,,,,,,,,,,,,,,23672,2020_Jan_21_1213,Mmi_3levels,3.1.5,59.98548908152774,
,,,2,0,4.7,,,,,,,,,0,1,1,1,0,5,5,16,,,,,,,,,,,,,,,,,,,,,,,,,,,,,,,,,,,,,,,,,,,,,,,,,,,,,,,,,,,,,False,False,False,0.5,0.5,3.2,2.0166666666666666,1.175,-0.8416666666666666,0.16666666666666674,gamble,win,1.175,137.81208333333336,540.147668315858,None,540.147668315858,None,540.147668315858,None,540.147668315858,None,540.147668315858,None,540.147668315858,None,540.147668315858,None,1,1.067276106292411,540.147668315858,None,541.2480300246461,None,541.2480300246461,None,541.2480300246461,None,541.2480300246461,None,541.2480300246461,None,541.2480300246461,None,541.2480300246461,None,545.2329015482683,None,545.2329015482683,None,545.2329015482683,None,545.2329015482683,None,545.2329015482683,None,545.2329015482683,None,545.2329015482683,None,546.2332618491309,None,,,,,,,,,,,,,,,,,,,,,,,,,,,,,,23672,2020_Jan_21_1213,Mmi_3levels,3.1.5,59.98548908152774,
,,,2,0,13.9,,,,,,,,,0,1,1,1,0,6,6,25,,,,,,,,,,,,,,,,,,,,,,,,,,,,,,,,,,,,,,,,,,,,,,,,,,,,,,,,,,,,,False,True,False,0.5,0.5,3.7,-10.7,13.9,3.200000000000001,1.6000000000000005,gamble,lose,3.200000000000001,141.01208333333335,548.2507450804223,None,548.2507450804223,None,548.2507450804223,None,548.2507450804223,None,548.2507450804223,None,548.2507450804223,None,548.2507450804223,None,1,0.9505936644673056,548.2507450804223,None,549.2344102681272,None,549.2344102681272,None,549.2344102681272,None,549.2344102681272,None,549.2344102681272,None,549.2344102681272,None,549.2344102681272,None,553.2192664325667,None,553.2192664325667,None,553.2192664325667,None,553.2192664325667,None,553.2192664325667,None,553.2192664325667,None,553.2192664325667,None,562.722893439899,None,554.2196958497552,None,555.2200337518079,None,0.5,7.502604021672596,558.2211591320265,None,None,558.2211591320265,None,,,,,,,,,,,,,,,,,,,23672,2020_Jan_21_1213,Mmi_3levels,3.1.5,59.98548908152774,
,,,2,0,1.5,,,,,,,,,0,1,1,1,0,7,7,9,,,,,,,,,,,,,,,,,,,,,,,,,,,,,,,,,,,,,,,,,,,,,,,,,,,,,,,,,,,,,False,False,True,0.5,0.5,4.2,2.1,0.375,-1.725,-0.675,gamble,win,0.375,141.38708333333335,564.7403337934702,None,564.7403337934702,None,564.7403337934702,None,564.7403337934702,None,564.7403337934702,None,564.7403337934702,None,564.7403337934702,None,1,2.101040712717804,564.7403337934702,None,566.8744773877625,None,566.8744773877625,None,566.8744773877625,None,566.8744773877625,None,566.8744773877625,None,566.8744773877625,None,566.8744773877625,None,570.8593297124062,None,570.8593297124062,None,570.8593297124062,None,570.8593297124062,None,570.8593297124062,None,570.8593297124062,None,570.8593297124062,None,571.8597732088456,None,,,,,,,,,,,,,,,,,,,,,,,,,,,,,,23672,2020_Jan_21_1213,Mmi_3levels,3.1.5,59.98548908152774,
,,,2,0,10.5,,,,,,,,,0,1,1,1,0,8,8,24,,,,,,,,,,,,,,,,,,,,,,,,,,,,,,,,,,,,,,,,,,,,,,,,,,,,,,,,,,,,,False,True,True,0.5,0.5,4.7,-11.7,10.5,-1.1999999999999993,-0.5999999999999996,gamble,lose,-1.1999999999999993,140.18708333333336,573.8771412462556,None,573.8771412462556,None,573.8771412462556,None,573.8771412462556,None,573.8771412462556,None,573.8771412462556,None,573.8771412462556,None,1,1.384114315846091,573.8771412462556,None,575.2943520440203,None,575.2943520440203,None,575.2943520440203,None,575.2943520440203,None,575.2943520440203,None,575.2943520440203,None,575.2943520440203,None,579.2958809228039,None,579.2958809228039,None,579.2958809228039,None,579.2958809228039,None,579.2958809228039,None,579.2958809228039,None,579.2958809228039,None,588.7828336158782,None,580.2796325059207,None,581.2799713679196,None,0.48,7.502917924997746,584.2810925883605,None,None,584.2810925883605,None,,,,,,,,,,,,,,,,,,,23672,2020_Jan_21_1213,Mmi_3levels,3.1.5,59.98548908152774,
,,,2,0,8.9,,,,,,,,,0,1,1,1,0,9,9,15,,,,,,,,,,,,,,,,,,,,,,,,,,,,,,,,,,,,,,,,,,,,,,,,,,,,,,,,,,,,,False,True,True,0.48,0.48,5.18,-11.899999999999999,8.9,-2.9999999999999982,-1.4999999999999991,gamble,lose,-2.9999999999999982,137.18708333333336,590.8002675697862,None,590.8002675697862,None,590.8002675697862,None,590.8002675697862,None,590.8002675697862,None,590.8002675697862,None,590.8002675697862,None,1,1.2340912450745236,590.8002675697862,None,592.0674152988977,None,592.0674152988977,None,592.0674152988977,None,592.0674152988977,None,592.0674152988977,None,592.0674152988977,None,592.0674152988977,None,596.0522730632547,None,596.0522730632547,None,596.0522730632547,None,596.0522730632547,None,596.0522730632547,None,596.0522730632547,None,596.0522730632547,None,597.0526535230456,None,,,,,,,,,,,,,,,,,,,,,,,,,,,,,,23672,2020_Jan_21_1213,Mmi_3levels,3.1.5,59.98548908152774,
,,,2,0,0.9,,,,,,,,,0,1,1,1,0,10,10,2,,,,,,,,,,,,,,,,,,,,,,,,,,,,,,,,,,,,,,,,,,,,,,,,,,,,,,,,,,,,,False,True,True,0.48,0.48,5.66,-12.379999999999999,0.9,-11.479999999999999,-5.289999999999999,certain,certain,-5.289999999999999,131.89708333333337,599.0700945165772,None,599.0700945165772,None,599.0700945165772,None,599.0700945165772,None,599.0700945165772,None,599.0700945165772,None,599.0700945165772,None,3,1.5341597854312568,599.0700945165772,None,600.6373287050992,None,600.6373287050992,None,600.6373287050992,None,600.6373287050992,None,600.6373287050992,None,600.6373287050992,None,600.6373287050992,None,604.6388809426426,None,604.6388809426426,None,604.6388809426426,None,604.6388809426426,None,604.6388809426426,None,604.6388809426426,None,604.6388809426426,None,605.6226718836697,None,,,,,,,,,,,,,,,,,,,,,,,,,,,,,,23672,2020_Jan_21_1213,Mmi_3levels,3.1.5,59.98548908152774,
,,,2,0,5.9,,,,,,,,,0,1,1,1,0,11,11,18,,,,,,,,,,,,,,,,,,,,,,,,,,,,,,,,,,,,,,,,,,,,,,,,,,,,,,,,,,,,,False,True,False,0.48,0.48,6.140000000000001,-12.86,5.9,-6.959999999999999,-0.5299999999999994,gamble,lose,-6.959999999999999,124.93708333333338,607.6400354413163,None,607.6400354413163,None,607.6400354413163,None,607.6400354413163,None,607.6400354413163,None,607.6400354413163,None,607.6400354413163,None,1,1.1507155139915994,607.6400354413163,None,608.8238298381584,None,608.8238298381584,None,608.8238298381584,None,608.8238298381584,None,608.8238298381584,None,608.8238298381584,None,608.8238298381584,None,612.8253379180496,None,612.8253379180496,None,612.8253379180496,None,612.8253379180496,None,612.8253379180496,None,612.8253379180496,None,612.8253379180496,None,622.3122835714967,None,613.8090949408761,None,614.8094194036421,None,0.46,7.502824169980158,617.8105479836922,None,None,617.8105479836922,None,,,,,,,,,,,,,,,,,,,23672,2020_Jan_21_1213,Mmi_3levels,3.1.5,59.98548908152774,
,,,2,0,11.5,,,,,,,,,0,1,1,1,0,12,12,19,,,,,,,,,,,,,,,,,,,,,,,,,,,,,,,,,,,,,,,,,,,,,,,,,,,,,,,,,,,,,False,True,True,0.46,0.46,6.6000000000000005,-13.040000000000001,11.5,-1.540000000000001,-0.7700000000000005,gamble,lose,-1.540000000000001,123.39708333333337,624.3297220051682,None,624.3297220051682,None,624.3297220051682,None,624.3297220051682,None,624.3297220051682,None,624.3297220051682,None,624.3297220051682,None,1,1.0673327432850783,624.3297220051682,None,625.4301429108091,None,625.4301429108091,None,625.4301429108091,None,625.4301429108091,None,625.4301429108091,None,625.4301429108091,None,625.4301429108091,None,629.4149968353668,None,629.4149968353668,None,629.4149968353668,None,629.4149968353668,None,629.4149968353668,None,629.4149968353668,None,629.4149968353668,None,630.4153744153118,None,,,,,,,,,,,,,,,,,,,,,,,,,,,,,,23672,2020_Jan_21_1213,Mmi_3levels,3.1.5,59.98548908152774,
,,,2,0,9.5,,,,,,,,,0,1,1,1,0,13,13,22,,,,,,,,,,,,,,,,,,,,,,,,,,,,,,,,,,,,,,,,,,,,,,,,,,,,,,,,,,,,,False,False,True,0.46,0.46,7.0600000000000005,2.1983333333333333,2.375,0.17666666666666675,1.2758333333333334,gamble,win,2.375,125.77208333333337,632.4328102891159,None,632.4328102891159,None,632.4328102891159,None,632.4328102891159,None,632.4328102891159,None,632.4328102891159,None,632.4328102891159,None,1,1.4008023893766222,632.4328102891159,None,633.8666931612606,None,633.8666931612606,None,633.8666931612606,None,633.8666931612606,None,633.8666931612606,None,633.8666931612606,None,633.8666931612606,None,637.8515691646462,None,637.8515691646462,None,637.8515691646462,None,637.8515691646462,None,637.8515691646462,None,637.8515691646462,None,637.8515691646462,None,647.3551689734231,None,638.8519653036019,None,639.8523435235111,None,0.46,7.502725935199123,642.85348586283,None,None,642.85348586283,None,,,,,,,,,,,,,,,,,,,23672,2020_Jan_21_1213,Mmi_3levels,3.1.5,59.98548908152774,
,,,2,0,6.3,,,,,,,,,0,1,1,1,0,14,14,21,,,,,,,,,,,,,,,,,,,,,,,,,,,,,,,,,,,,,,,,,,,,,,,,,,,,,,,,,,,,,False,True,False,0.46,0.46,7.5200000000000005,-13.96,6.3,-7.660000000000001,-0.6800000000000006,certain,certain,-0.6800000000000006,125.09208333333336,649.3726026073491,None,649.3726026073491,None,649.3726026073491,None,649.3726026073491,None,649.3726026073491,None,649.3726026073491,None,649.3726026073491,None,3,2.0677157629397698,649.3726026073491,None,651.473402372867,None,651.473402372867,None,651.473402372867,None,651.473402372867,None,651.473402372867,None,651.473402372867,None,651.473402372867,None,655.4582575773566,None,655.4582575773566,None,655.4582575773566,None,655.4582575773566,None,655.4582575773566,None,655.4582575773566,None,655.4582575773566,None,656.458644756789,None,,,,,,,,,,,,,,,,,,,,,,,,,,,,,,23672,2020_Jan_21_1213,Mmi_3levels,3.1.5,59.98548908152774,
,,,2,0,-1.1,,,,,,,,,0,1,1,1,0,15,15,4,,,,,,,,,,,,,,,,,,,,,,,,,,,,,,,,,,,,,,,,,,,,,,,,,,,,,,,,,,,,,False,True,True,0.46,0.46,7.98,-14.420000000000002,-1.1,-15.520000000000001,-8.31,gamble,lose,-15.520000000000001,109.57208333333337,658.4760761508333,None,658.4760761508333,None,658.4760761508333,None,658.4760761508333,None,658.4760761508333,None,658.4760761508333,None,658.4760761508333,None,1,1.73428547475487,658.4760761508333,None,660.2434261092058,None,660.2434261092058,None,660.2434261092058,None,660.2434261092058,None,660.2434261092058,None,660.2434261092058,None,660.2434261092058,None,664.2449505082295,None,664.2449505082295,None,664.2449505082295,None,664.2449505082295,None,664.2449505082295,None,664.2449505082295,None,664.2449505082295,None,673.7320027160167,None,665.2286560137909,None,666.2290505528326,None,0.43,7.502771372783172,669.2301714532914,None,None,669.2301714532914,None,,,,,,,,,,,,,,,,,,,23672,2020_Jan_21_1213,Mmi_3levels,3.1.5,59.98548908152774,
,,,2,0,3.9,,,,,,,,,0,1,1,1,0,16,16,17,,,,,,,,,,,,,,,,,,,,,,,,,,,,,,,,,,,,,,,,,,,,,,,,,,,,,,,,,,,,,False,False,False,0.43,0.43,8.41,2.205833333333333,0.975,-1.230833333333333,-0.1279166666666665,gamble,win,0.975,110.54708333333336,675.7493320354806,None,675.7493320354806,None,675.7493320354806,None,675.7493320354806,None,675.7493320354806,None,675.7493320354806,None,675.7493320354806,None,1,1.867639350999525,675.7493320354806,None,677.6500771479004,None,677.6500771479004,None,677.6500771479004,None,677.6500771479004,None,677.6500771479004,None,677.6500771479004,None,677.6500771479004,None,681.6516876223541,None,681.6516876223541,None,681.6516876223541,None,681.6516876223541,None,681.6516876223541,None,681.6516876223541,None,681.6516876223541,None,682.6353470503636,None,,,,,,,,,,,,,,,,,,,,,,,,,,,,,,23672,2020_Jan_21_1213,Mmi_3levels,3.1.5,59.98548908152774,
,,,2,0,13.3,,,,,,,,,0,1,1,1,0,17,17,7,,,,,,,,,,,,,,,,,,,,,,,,,,,,,,,,,,,,,,,,,,,,,,,,,,,,,,,,,,,,,False,True,False,0.43,0.43,8.84,-14.86,13.3,-1.5599999999999987,-0.7799999999999994,certain,certain,-0.7799999999999994,109.76708333333336,684.65273044696,None,684.65273044696,None,684.65273044696,None,684.65273044696,None,684.65273044696,None,684.65273044696,None,684.65273044696,None,3,1.7342342774754798,684.65273044696,None,686.4201232830492,None,686.4201232830492,None,686.4201232830492,None,686.4201232830492,None,686.4201232830492,None,686.4201232830492,None,686.4201232830492,None,690.4050056860979,None,690.4050056860979,None,690.4050056860979,None,690.4050056860979,None,690.4050056860979,None,690.4050056860979,None,690.4050056860979,None,691.4053144696954,None,,,,,,,,,,,,,,,,,,,,,,,,,,,,,,23672,2020_Jan_21_1213,Mmi_3levels,3.1.5,59.98548908152774,
,,,2,0,-0.3,,,,,,,,,0,1,1,1,0,18,18,20,,,,,,,,,,,,,,,,,,,,,,,,,,,,,,,,,,,,,,,,,,,,,,,,,,,,,,,,,,,,,False,False,False,0.43,0.43,9.27,2.2775,-0.075,-2.3525,-1.21375,gamble,win,-0.075,109.69208333333336,693.4227433038759,None,693.4227433038759,None,693.4227433038759,None,693.4227433038759,None,693.4227433038759,None,693.4227433038759,None,693.4227433038759,None,1,1.9510013228100433,693.4227433038759,None,695.4068455883607,None,695.4068455883607,None,695.4068455883607,None,695.4068455883607,None,695.4068455883607,None,695.4068455883607,None,695.4068455883607,None,699.4083511083882,None,699.4083511083882,None,699.4083511083882,None,699.4083511083882,None,699.4083511083882,None,699.4083511083882,None,699.4083511083882,None,708.8953098811398,None,700.3920642935445,None,701.3924508330128,None,0.47,7.502781932224025,704.3936632486075,None,None,704.3936632486075,None,,,,,,,,,,,,,,,,,,,23672,2020_Jan_21_1213,Mmi_3levels,3.1.5,59.98548908152774,
,,,2,0,-1.5,,,,,,,,,0,1,1,1,0,19,19,3,,,,,,,,,,,,,,,,,,,,,,,,,,,,,,,,,,,,,,,,,,,,,,,,,,,,,,,,,,,,,False,False,False,0.47,0.47,9.74,2.4566666666666666,-0.375,-2.8316666666666666,-1.6033333333333333,gamble,win,-0.375,109.31708333333336,710.9127467148937,None,710.9127467148937,None,710.9127467148937,None,710.9127467148937,None,710.9127467148937,None,710.9127467148937,None,710.9127467148937,None,1,1.7675745864362398,710.9127467148937,None,712.713534897026,None,712.713534897026,None,712.713534897026,None,712.713534897026,None,712.713534897026,None,712.713534897026,None,712.713534897026,None,716.715002339075,None,716.715002339075,None,716.715002339075,None,716.715002339075,None,716.715002339075,None,716.715002339075,None,716.715002339075,None,717.6987462426005,None,,,,,,,,,,,,,,,,,,,,,,,,,,,,,,23672,2020_Jan_21_1213,Mmi_3levels,3.1.5,59.98548908152774,
,,,2,0,3.5,,,,,,,,,0,1,1,1,0,20,20,1,,,,,,,,,,,,,,,,,,,,,,,,,,,,,,,,,,,,,,,,,,,,,,,,,,,,,,,,,,,,,False,True,True,0.47,0.47,10.21,-16.79,3.5,-13.29,-4.895,certain,certain,-4.895,104.42208333333336,719.7160832416594,None,719.7160832416594,None,719.7160832416594,None,719.7160832416594,None,719.7160832416594,None,719.7160832416594,None,719.7160832416594,None,3,2.067707123398577,719.7160832416594,None,721.8168967664424,None,721.8168967664424,None,721.8168967664424,None,721.8168967664424,None,721.8168967664424,None,721.8168967664424,None,721.8168967664424,None,725.801759650527,None,725.801759650527,None,725.801759650527,None,725.801759650527,None,725.801759650527,None,725.801759650527,None,725.801759650527,None,735.3053879377912,None,726.8022220259663,None,727.8025253698506,None,0.42,7.502750253905106,730.803627071331,None,None,730.803627071331,None,,,,,,,,,,,,,,,,,,,23672,2020_Jan_21_1213,Mmi_3levels,3.1.5,59.98548908152774,
,,,2,0,10.9,,,,,,,,,0,1,1,1,0,21,21,5,,,,,,,,,,,,,,,,,,,,,,,,,,,,,,,,,,,,,,,,,,,,,,,,,,,,,,,,,,,,,False,True,True,0.42,0.42,10.63,-16.51,10.9,-5.610000000000001,-2.8050000000000006,gamble,lose,-5.610000000000001,98.81208333333336,737.322812932176,None,737.322812932176,None,737.322812932176,None,737.322812932176,None,737.322812932176,None,737.322812932176,None,737.322812932176,None,1,1.5175501077392255,737.322812932176,None,738.873407044619,None,738.873407044619,None,738.873407044619,None,738.873407044619,None,738.873407044619,None,738.873407044619,None,738.873407044619,None,742.8749317636248,None,742.8749317636248,None,742.8749317636248,None,742.8749317636248,None,742.8749317636248,None,742.8749317636248,None,742.8749317636248,None,743.8586411089855,None,,,,,,,,,,,,,,,,,,,,,,,,,,,,,,23672,2020_Jan_21_1213,Mmi_3levels,3.1.5,59.98548908152774,
,,,2,0,9.1,,,,,,,,,0,1,1,1,0,22,22,14,,,,,,,,,,,,,,,,,,,,,,,,,,,,,,,,,,,,,,,,,,,,,,,,,,,,,,,,,,,,,False,True,False,0.42,0.42,11.05,-16.93,9.1,-7.83,0.6349999999999998,certain,certain,0.6349999999999998,99.44708333333337,745.8761323398503,None,745.8761323398503,None,745.8761323398503,None,745.8761323398503,None,745.8761323398503,None,745.8761323398503,None,745.8761323398503,None,3,2.017651862333878,745.8761323398503,None,747.926864364963,None,747.926864364963,None,747.926864364963,None,747.926864364963,None,747.926864364963,None,747.926864364963,None,747.926864364963,None,751.928382684313,None,751.928382684313,None,751.928382684313,None,751.928382684313,None,751.928382684313,None,751.928382684313,None,751.928382684313,None,761.4154128132723,None,752.9120942695517,None,753.9124958482207,None,0.46,7.502690737066587,756.9136052292888,None,None,756.9136052292888,None,,,,,,,,,,,,,,,,,,,23672,2020_Jan_21_1213,Mmi_3levels,3.1.5,59.98548908152774,
,,,2,0,9.3,,,,,,,,,0,1,1,1,0,23,23,26,,,,,,,,,,,,,,,,,,,,,,,,,,,,,,,,,,,,,,,,,,,,,,,,,,,,,,,,,,,,,False,False,True,0.46,0.46,11.510000000000002,2.569166666666667,2.325,-0.24416666666666664,1.0404166666666668,gamble,win,2.325,101.77208333333337,763.4327712511913,None,763.4327712511913,None,763.4327712511913,None,763.4327712511913,None,763.4327712511913,None,763.4327712511913,None,763.4327712511913,None,1,1.300717145906674,763.4327712511913,None,764.7665899987405,None,764.7665899987405,None,764.7665899987405,None,764.7665899987405,None,764.7665899987405,None,764.7665899987405,None,764.7665899987405,None,768.7514714418357,None,768.7514714418357,None,768.7514714418357,None,768.7514714418357,None,768.7514714418357,None,768.7514714418357,None,768.7514714418357,None,769.7518525415944,None,,,,,,,,,,,,,,,,,,,,,,,,,,,,,,23672,2020_Jan_21_1213,Mmi_3levels,3.1.5,59.98548908152774,
,,,2,0,5.1,,,,,,,,,0,1,1,1,0,24,24,0,,,,,,,,,,,,,,,,,,,,,,,,,,,,,,,,,,,,,,,,,,,,,,,,,,,,,,,,,,,,,False,True,True,0.46,0.46,11.970000000000002,-18.410000000000004,5.1,-13.310000000000004,-4.105000000000002,gamble,lose,-13.310000000000004,88.46208333333337,771.7693767307064,None,771.7693767307064,None,771.7693767307064,None,771.7693767307064,None,771.7693767307064,None,771.7693767307064,None,771.7693767307064,None,1,2.017637783083046,771.7693767307064,None,773.8200700378802,None,773.8200700378802,None,773.8200700378802,None,773.8200700378802,None,773.8200700378802,None,773.8200700378802,None,773.8200700378802,None,777.8049220425419,None,777.8049220425419,None,777.8049220425419,None,777.8049220425419,None,777.8049220425419,None,777.8049220425419,None,777.8049220425419,None,778.8053261810746,None,,,,,,,,,,,,,,,,,,,,,,,,,,,,,,23672,2020_Jan_21_1213,Mmi_3levels,3.1.5,59.98548908152774,
,,,2,0,6.1,,,,,,,,,0,1,1,1,0,25,25,12,,,,,,,,,,,,,,,,,,,,,,,,,,,,,,,,,,,,,,,,,,,,,,,,,,,,,,,,,,,,,False,True,False,0.46,0.46,12.430000000000003,-18.870000000000005,6.1,-12.770000000000005,-3.3350000000000026,certain,certain,-3.3350000000000026,85.12708333333336,780.8228382108355,None,780.8228382108355,None,780.8228382108355,None,780.8228382108355,None,780.8228382108355,None,780.8228382108355,None,780.8228382108355,None,3,1.7842025031641242,780.8228382108355,None,782.6401496752478,None,782.6401496752478,None,782.6401496752478,None,782.6401496752478,None,782.6401496752478,None,782.6401496752478,None,782.6401496752478,None,786.6416276767377,None,786.6416276767377,None,786.6416276767377,None,786.6416276767377,None,786.6416276767377,None,786.6416276767377,None,786.6416276767377,None,796.1285730102027,None,787.6253594209084,None,788.6257155619896,None,0.41,7.5027972914067504,791.6269103785198,None,None,791.6269103785198,None,,,,,,,,,,,,,,,,,,,23672,2020_Jan_21_1213,Mmi_3levels,3.1.5,59.98548908152774,
,,,2,0,10.3,,,,,,,,,0,1,1,1,0,26,26,6,,,,,,,,,,,,,,,,,,,,,,,,,,,,,,,,,,,,,,,,,,,,,,,,,,,,,,,,,,,,,False,False,False,0.41,0.41,12.840000000000003,2.505,2.575,0.07000000000000028,1.3225000000000002,gamble,win,2.575,87.70208333333336,798.1460149636841,None,798.1460149636841,None,798.1460149636841,None,798.1460149636841,None,798.1460149636841,None,798.1460149636841,None,798.1460149636841,None,1,1.1674096671995358,798.1460149636841,None,799.346560790691,None,799.346560790691,None,799.346560790691,None,799.346560790691,None,799.346560790691,None,799.346560790691,None,799.346560790691,None,803.3313644779191,None,803.3313644779191,None,803.3313644779191,None,803.3313644779191,None,803.3313644779191,None,803.3313644779191,None,803.3313644779191,None,804.3317158192549,None,,,,,,,,,,,,,,,,,,,,,,,,,,,,,,23672,2020_Jan_21_1213,Mmi_3levels,3.1.5,59.98548908152774,
,,,3,1,9.3,,,,,,,,,0,2,2,2,0,0,0,5,,,,,,,,,,,,,,,,,,,,,,,,,,,,,,,,,,,,,,,,,,,,,,,,,812.1346904452439,None,0.44,7.501897179219668,815.152483100097,None,None,,815.152483100097,None,819.6375203749158,None,True,True,True,0.44,-0.56,-0.56,8.4,9.3,0.9000000000000004,0.4500000000000002,gamble,win,9.3,97.00208333333336,822.6720823789838,None,822.6720823789838,None,822.6720823789838,None,822.6720823789838,None,822.6720823789838,None,822.6720823789838,None,822.6720823789838,None,1,1.0839494606043445,822.6720823789838,None,823.789182398632,None,823.789182398632,None,823.789182398632,None,823.789182398632,None,823.789182398632,None,823.789182398632,None,823.789182398632,None,827.7739732865375,None,827.7739732865375,None,827.7739732865375,None,827.7739732865375,None,827.7739732865375,None,827.7739732865375,None,827.7739732865375,None,837.2776092533968,None,828.7743454267693,None,829.7747406057788,None,0.52,7.502798891320708,832.7758781453522,None,None,832.7758781453522,None,806.3325077771879,None,4,5.78588145397589,806.3325077771879,None,,,,,,,,,,,,,23672,2020_Jan_21_1213,Mmi_3levels,3.1.5,59.98548908152774,
,,,3,1,2.7,,,,,,,,,0,2,2,2,0,1,1,17,,,,,,,,,,,,,,,,,,,,,,,,,,,,,,,,,,,,,,,,,,,,,,,,,,,,,,,,,,,,,True,True,False,0.52,-0.48,-1.04,7.76,2.7,-5.06,-1.1799999999999997,gamble,win,2.7,99.70208333333336,839.2950505669141,None,839.2950505669141,None,839.2950505669141,None,839.2950505669141,None,839.2950505669141,None,839.2950505669141,None,839.2950505669141,None,1,1.05066450870072,839.2950505669141,None,840.3788381161175,None,840.3788381161175,None,840.3788381161175,None,840.3788381161175,None,840.3788381161175,None,840.3788381161175,None,840.3788381161175,None,844.3637393981626,None,844.3637393981626,None,844.3637393981626,None,844.3637393981626,None,844.3637393981626,None,844.3637393981626,None,844.3637393981626,None,845.3640465818462,None,,,,,,,,,,,,,,,,,,,,,,,,,,,,,,23672,2020_Jan_21_1213,Mmi_3levels,3.1.5,59.98548908152774,
,,,3,1,1.7,,,,,,,,,0,2,2,2,0,2,2,22,,,,,,,,,,,,,,,,,,,,,,,,,,,,,,,,,,,,,,,,,,,,,,,,,,,,,,,,,,,,,True,True,True,0.52,-0.48,-1.52,8.24,1.7,-6.54,-2.42,certain,certain,-2.42,97.28208333333336,847.3814872553958,None,847.3814872553958,None,847.3814872553958,None,847.3814872553958,None,847.3814872553958,None,847.3814872553958,None,847.3814872553958,None,3,2.601243901925045,847.3814872553958,None,850.0157761219707,None,850.0157761219707,None,850.0157761219707,None,850.0157761219707,None,850.0157761219707,None,850.0157761219707,None,850.0157761219707,None,854.0006553251878,None,854.0006553251878,None,854.0006553251878,None,854.0006553251878,None,854.0006553251878,None,854.0006553251878,None,854.0006553251878,None,855.001033545097,None,,,,,,,,,,,,,,,,,,,,,,,,,,,,,,23672,2020_Jan_21_1213,Mmi_3levels,3.1.5,59.98548908152774,
,,,3,1,12.5,,,,,,,,,0,2,2,2,0,3,3,24,,,,,,,,,,,,,,,,,,,,,,,,,,,,,,,,,,,,,,,,,,,,,,,,,,,,,,,,,,,,,True,True,True,0.52,-0.48,-2.0,8.719999999999999,12.5,3.780000000000001,1.8900000000000006,gamble,win,12.5,109.78208333333336,857.0184738986645,None,857.0184738986645,None,857.0184738986645,None,857.0184738986645,None,857.0184738986645,None,857.0184738986645,None,857.0184738986645,None,1,1.3674508810108819,857.0184738986645,None,858.4190062223897,None,858.4190062223897,None,858.4190062223897,None,858.4190062223897,None,858.4190062223897,None,858.4190062223897,None,858.4190062223897,None,862.4038556671876,None,862.4038556671876,None,862.4038556671876,None,862.4038556671876,None,862.4038556671876,None,862.4038556671876,None,862.4038556671876,None,871.9075300320037,None,863.4042844444084,None,864.4046210665292,None,0.53,7.502777772442641,867.4057464467478,None,None,867.4057464467478,None,,,,,,,,,,,,,,,,,,,23672,2020_Jan_21_1213,Mmi_3levels,3.1.5,59.98548908152774,
,,,3,1,0.3,,,,,,,,,0,2,2,2,0,4,4,0,,,,,,,,,,,,,,,,,,,,,,,,,,,,,,,,,,,,,,,,,,,,,,,,,,,,,,,,,,,,,True,True,False,0.53,-0.47,-2.4699999999999998,9.05,0.3,-8.75,-4.225,certain,certain,-4.225,105.55708333333337,873.9249137485822,None,873.9249137485822,None,873.9249137485822,None,873.9249137485822,None,873.9249137485822,None,873.9249137485822,None,873.9249137485822,None,3,2.4011671700027364,873.9249137485822,None,876.3591777204783,None,876.3591777204783,None,876.3591777204783,None,876.3591777204783,None,876.3591777204783,None,876.3591777204783,None,876.3591777204783,None,880.3608089938243,None,880.3608089938243,None,880.3608089938243,None,880.3608089938243,None,880.3608089938243,None,880.3608089938243,None,880.3608089938243,None,881.3444370635043,None,,,,,,,,,,,,,,,,,,,,,,,,,,,,,,23672,2020_Jan_21_1213,Mmi_3levels,3.1.5,59.98548908152774,
,,,3,1,13.1,,,,,,,,,0,2,2,2,0,5,5,19,,,,,,,,,,,,,,,,,,,,,,,,,,,,,,,,,,,,,,,,,,,,,,,,,,,,,,,,,,,,,True,False,True,0.53,-0.47,-2.9399999999999995,-1.89,13.1,11.209999999999999,5.6049999999999995,gamble,lose,11.209999999999999,116.76708333333336,883.361884456699,None,883.361884456699,None,883.361884456699,None,883.361884456699,None,883.361884456699,None,883.361884456699,None,883.361884456699,None,1,0.9339180702700105,883.361884456699,None,884.3289662053139,None,884.3289662053139,None,884.3289662053139,None,884.3289662053139,None,884.3289662053139,None,884.3289662053139,None,884.3289662053139,None,888.3137362943271,None,888.3137362943271,None,888.3137362943271,None,888.3137362943271,None,888.3137362943271,None,888.3137362943271,None,888.3137362943271,None,897.8173636216452,None,889.3141135542865,None,890.3145509710521,None,0.48,7.5027508938728715,893.3156254739733,None,None,893.3156254739733,None,,,,,,,,,,,,,,,,,,,23672,2020_Jan_21_1213,Mmi_3levels,3.1.5,59.98548908152774,
,,,3,1,3.5,,,,,,,,,0,2,2,2,0,6,6,3,,,,,,,,,,,,,,,,,,,,,,,,,,,,,,,,,,,,,,,,,,,,,,,,,,,,,,,,,,,,,True,True,True,0.48,-0.52,-3.4599999999999995,10.74,3.5,-7.24,-1.87,certain,certain,-1.87,114.89708333333336,899.8348004553991,None,899.8348004553991,None,899.8348004553991,None,899.8348004553991,None,899.8348004553991,None,899.8348004553991,None,899.8348004553991,None,3,2.1677309301339847,899.8348004553991,None,902.0356864243367,None,902.0356864243367,None,902.0356864243367,None,902.0356864243367,None,902.0356864243367,None,902.0356864243367,None,902.0356864243367,None,906.0204856318014,None,906.0204856318014,None,906.0204856318014,None,906.0204856318014,None,906.0204856318014,None,906.0204856318014,None,906.0204856318014,None,907.0208737711837,None,,,,,,,,,,,,,,,,,,,,,,,,,,,,,,23672,2020_Jan_21_1213,Mmi_3levels,3.1.5,59.98548908152774,
,,,3,1,2.9,,,,,,,,,0,2,2,2,0,7,7,1,,,,,,,,,,,,,,,,,,,,,,,,,,,,,,,,,,,,,,,,,,,,,,,,,,,,,,,,,,,,,True,True,False,0.48,-0.52,-3.9799999999999995,11.26,2.9,-8.36,-2.7299999999999995,certain,certain,-2.7299999999999995,112.16708333333335,909.0383128448229,None,909.0383128448229,None,909.0383128448229,None,909.0383128448229,None,909.0383128448229,None,909.0383128448229,None,909.0383128448229,None,3,2.0176928201581177,909.0383128448229,None,911.0890896675555,None,911.0890896675555,None,911.0890896675555,None,911.0890896675555,None,911.0890896675555,None,911.0890896675555,None,911.0890896675555,None,915.0739384723893,None,915.0739384723893,None,915.0739384723893,None,915.0739384723893,None,915.0739384723893,None,915.0739384723893,None,915.0739384723893,None,924.577563559822,None,916.0743720493556,None,917.0747547490282,None,0.48,7.502761453313724,920.0758426912362,None,None,920.0758426912362,None,,,,,,,,,,,,,,,,,,,23672,2020_Jan_21_1213,Mmi_3levels,3.1.5,59.98548908152774,
,,,3,1,4.9,,,,,,,,,0,2,2,2,0,8,8,16,,,,,,,,,,,,,,,,,,,,,,,,,,,,,,,,,,,,,,,,,,,,,,,,,,,,,,,,,,,,,True,True,True,0.48,-0.52,-4.5,11.780000000000001,4.9,-6.880000000000001,-0.9900000000000002,gamble,win,4.9,117.06708333333336,926.59499751373,None,926.59499751373,None,926.59499751373,None,926.59499751373,None,926.59499751373,None,926.59499751373,None,926.59499751373,None,1,1.5675148136106145,926.59499751373,None,928.1956116891051,None,928.1956116891051,None,928.1956116891051,None,928.1956116891051,None,928.1956116891051,None,928.1956116891051,None,928.1956116891051,None,932.1804550542256,None,932.1804550542256,None,932.1804550542256,None,932.1804550542256,None,932.1804550542256,None,932.1804550542256,None,932.1804550542256,None,933.18083999378,None,,,,,,,,,,,,,,,,,,,,,,,,,,,,,,23672,2020_Jan_21_1213,Mmi_3levels,3.1.5,59.98548908152774,
,,,3,1,6.1,,,,,,,,,0,2,2,2,0,9,9,7,,,,,,,,,,,,,,,,,,,,,,,,,,,,,,,,,,,,,,,,,,,,,,,,,,,,,,,,,,,,,True,False,False,0.48,-0.52,-5.02,-2.2383333333333333,6.1,3.8616666666666664,1.9308333333333332,gamble,lose,3.8616666666666664,120.92875000000002,935.1983305846807,None,935.1983305846807,None,935.1983305846807,None,935.1983305846807,None,935.1983305846807,None,935.1983305846807,None,935.1983305846807,None,1,0.9505885447360924,935.1983305846807,None,936.1819932125218,None,936.1819932125218,None,936.1819932125218,None,936.1819932125218,None,936.1819932125218,None,936.1819932125218,None,936.1819932125218,None,940.1669348124233,None,940.1669348124233,None,940.1669348124233,None,940.1669348124233,None,940.1669348124233,None,940.1669348124233,None,940.1669348124233,None,941.1672323966159,None,,,,,,,,,,,,,,,,,,,,,,,,,,,,,,23672,2020_Jan_21_1213,Mmi_3levels,3.1.5,59.98548908152774,
,,,3,1,-1.1,,,,,,,,,0,2,2,2,0,10,10,25,,,,,,,,,,,,,,,,,,,,,,,,,,,,,,,,,,,,,,,,,,,,,,,,,,,,,,,,,,,,,True,True,False,0.48,-0.52,-5.539999999999999,12.82,-1.1,-13.92,-7.51,certain,certain,-7.51,113.41875000000002,943.1846625107282,None,943.1846625107282,None,943.1846625107282,None,943.1846625107282,None,943.1846625107282,None,943.1846625107282,None,943.1846625107282,None,3,2.167847403947235,943.1846625107282,None,945.3854985623148,None,945.3854985623148,None,945.3854985623148,None,945.3854985623148,None,945.3854985623148,None,945.3854985623148,None,945.3854985623148,None,949.3870252012202,None,949.3870252012202,None,949.3870252012202,None,949.3870252012202,None,949.3870252012202,None,949.3870252012202,None,949.3870252012202,None,958.8739766143626,None,950.3707393463264,None,951.3711207660635,None,0.45,7.502713135880185,954.3722810244326,None,None,954.3722810244326,None,,,,,,,,,,,,,,,,,,,23672,2020_Jan_21_1213,Mmi_3levels,3.1.5,59.98548908152774,
,,,3,1,12.3,,,,,,,,,0,2,2,2,0,11,11,23,,,,,,,,,,,,,,,,,,,,,,,,,,,,,,,,,,,,,,,,,,,,,,,,,,,,,,,,,,,,,True,True,True,0.45,-0.55,-6.089999999999999,13.79,12.3,-1.4899999999999984,-0.7449999999999992,gamble,win,12.3,125.71875000000001,960.8914576057723,None,960.8914576057723,None,960.8914576057723,None,960.8914576057723,None,960.8914576057723,None,960.8914576057723,None,960.8914576057723,None,1,1.1339880825507862,960.8914576057723,None,962.0585232912417,None,962.0585232912417,None,962.0585232912417,None,962.0585232912417,None,962.0585232912417,None,962.0585232912417,None,962.0585232912417,None,966.0600595296382,None,966.0600595296382,None,966.0600595296382,None,966.0600595296382,None,966.0600595296382,None,966.0600595296382,None,966.0600595296382,None,967.0438117527192,None,,,,,,,,,,,,,,,,,,,,,,,,,,,,,,23672,2020_Jan_21_1213,Mmi_3levels,3.1.5,59.98548908152774,
,,,3,1,3.3,,,,,,,,,0,2,2,2,0,12,12,15,,,,,,,,,,,,,,,,,,,,,,,,,,,,,,,,,,,,,,,,,,,,,,,,,,,,,,,,,,,,,True,True,True,0.45,-0.55,-6.639999999999999,14.34,3.3,-11.04,-3.8699999999999997,certain,certain,-3.8699999999999997,121.84875000000001,969.0612127483801,None,969.0612127483801,None,969.0612127483801,None,969.0612127483801,None,969.0612127483801,None,969.0612127483801,None,969.0612127483801,None,3,2.167762288467202,969.0612127483801,None,971.2620670389988,None,971.2620670389988,None,971.2620670389988,None,971.2620670389988,None,971.2620670389988,None,971.2620670389988,None,971.2620670389988,None,975.2468844854957,None,975.2468844854957,None,975.2468844854957,None,975.2468844854957,None,975.2468844854957,None,975.2468844854957,None,975.2468844854957,None,984.7505249321148,None,976.247271024964,None,977.2476514847513,None,0.47,7.502806570915709,980.2487861444788,None,None,980.2487861444788,None,,,,,,,,,,,,,,,,,,,23672,2020_Jan_21_1213,Mmi_3levels,3.1.5,59.98548908152774,
,,,3,1,9.9,,,,,,,,,0,2,2,2,0,13,13,14,,,,,,,,,,,,,,,,,,,,,,,,,,,,,,,,,,,,,,,,,,,,,,,,,,,,,,,,,,,,,True,True,False,0.47,-0.53,-7.169999999999999,14.59,9.9,-4.6899999999999995,-2.3449999999999998,gamble,win,9.9,131.74875,986.7679518463992,None,986.7679518463992,None,986.7679518463992,None,986.7679518463992,None,986.7679518463992,None,986.7679518463992,None,986.7679518463992,None,1,1.6509043039659446,986.7679518463992,None,988.451981750728,None,988.451981750728,None,988.451981750728,None,988.451981750728,None,988.451981750728,None,988.451981750728,None,988.451981750728,None,992.5034785352182,None,992.5034785352182,None,992.5034785352182,None,992.5034785352182,None,992.5034785352182,None,992.5034785352182,None,992.5034785352182,None,993.4371601380517,None,,,,,,,,,,,,,,,,,,,,,,,,,,,,,,23672,2020_Jan_21_1213,Mmi_3levels,3.1.5,59.98548908152774,
,,,3,1,-0.9,,,,,,,,,0,2,2,2,0,14,14,6,,,,,,,,,,,,,,,,,,,,,,,,,,,,,,,,,,,,,,,,,,,,,,,,,,,,,,,,,,,,,True,True,True,0.47,-0.53,-7.699999999999999,15.12,-0.9,-16.02,-8.459999999999999,gamble,win,-0.9,130.84875,995.4545985717232,None,995.4545985717232,None,995.4545985717232,None,995.4545985717232,None,995.4545985717232,None,995.4545985717232,None,995.4545985717232,None,1,2.317817677525454,995.4545985717232,None,997.805583127425,None,997.805583127425,None,997.805583127425,None,997.805583127425,None,997.805583127425,None,997.805583127425,None,997.805583127425,None,1001.8070307305279,None,1001.8070307305279,None,1001.8070307305279,None,1001.8070307305279,None,1001.8070307305279,None,1001.8070307305279,None,1001.8070307305279,None,1002.7907749540354,None,,,,,,,,,,,,,,,,,,,,,,,,,,,,,,23672,2020_Jan_21_1213,Mmi_3levels,3.1.5,59.98548908152774,
,,,3,1,1.3,,,,,,,,,0,2,2,2,0,15,15,12,,,,,,,,,,,,,,,,,,,,,,,,,,,,,,,,,,,,,,,,,,,,,,,,,,,,,,,,,,,,,True,False,True,0.47,-0.53,-8.229999999999999,-2.540833333333333,1.3,-1.240833333333333,0.029583333333333517,gamble,lose,-1.240833333333333,129.60791666666665,1004.8081682701013,None,1004.8081682701013,None,1004.8081682701013,None,1004.8081682701013,None,1004.8081682701013,None,1004.8081682701013,None,1004.8081682701013,None,1,1.350773686899629,1004.8081682701013,None,1006.1920233997153,None,1006.1920233997153,None,1006.1920233997153,None,1006.1920233997153,None,1006.1920233997153,None,1006.1920233997153,None,1006.1920233997153,None,1010.176872204549,None,1010.176872204549,None,1010.176872204549,None,1010.176872204549,None,1010.176872204549,None,1010.176872204549,None,1010.176872204549,None,1019.6805065714907,None,1011.1772593839814,None,1012.1776420836504,None,0.48,7.50278609200177,1015.1787652239909,None,None,1015.1787652239909,None,,,,,,,,,,,,,,,,,,,23672,2020_Jan_21_1213,Mmi_3levels,3.1.5,59.98548908152774,
,,,3,1,13.5,,,,,,,,,0,2,2,2,0,16,16,11,,,,,,,,,,,,,,,,,,,,,,,,,,,,,,,,,,,,,,,,,,,,,,,,,,,,,,,,,,,,,True,True,True,0.48,-0.52,-8.749999999999998,16.029999999999998,13.5,-2.5299999999999976,-1.2649999999999988,gamble,win,13.5,143.10791666666665,1021.6979414853486,None,1021.6979414853486,None,1021.6979414853486,None,1021.6979414853486,None,1021.6979414853486,None,1021.6979414853486,None,1021.6979414853486,None,1,1.4508112529074424,1021.6979414853486,None,1023.1818402606441,None,1023.1818402606441,None,1023.1818402606441,None,1023.1818402606441,None,1023.1818402606441,None,1023.1818402606441,None,1023.1818402606441,None,1027.1833668995496,None,1027.1833668995496,None,1027.1833668995496,None,1027.1833668995496,None,1027.1833668995496,None,1027.1833668995496,None,1027.1833668995496,None,1028.1670730450787,None,,,,,,,,,,,,,,,,,,,,,,,,,,,,,,23672,2020_Jan_21_1213,Mmi_3levels,3.1.5,59.98548908152774,
,,,3,1,11.5,,,,,,,,,0,2,2,2,0,17,17,21,,,,,,,,,,,,,,,,,,,,,,,,,,,,,,,,,,,,,,,,,,,,,,,,,,,,,,,,,,,,,True,True,False,0.48,-0.52,-9.269999999999998,16.549999999999997,11.5,-5.049999999999997,-2.5249999999999986,gamble,win,11.5,154.60791666666665,1030.184523958087,None,1030.184523958087,None,1030.184523958087,None,1030.184523958087,None,1030.184523958087,None,1030.184523958087,None,1030.184523958087,None,1,1.2340477273864963,1030.184523958087,None,1031.4516566479979,None,1031.4516566479979,None,1031.4516566479979,None,1031.4516566479979,None,1031.4516566479979,None,1031.4516566479979,None,1031.4516566479979,None,1035.436556330129,None,1035.436556330129,None,1035.436556330129,None,1035.436556330129,None,1035.436556330129,None,1035.436556330129,None,1035.436556330129,None,1044.9401407797232,None,1036.4368964720597,None,1037.4372772518327,None,0.52,7.502769132905087,1040.4384179912377,None,None,1040.4384179912377,None,,,,,,,,,,,,,,,,,,,23672,2020_Jan_21_1213,Mmi_3levels,3.1.5,59.98548908152774,
,,,3,1,10.5,,,,,,,,,0,2,2,2,0,18,18,8,,,,,,,,,,,,,,,,,,,,,,,,,,,,,,,,,,,,,,,,,,,,,,,,,,,,,,,,,,,,,True,False,False,0.52,-0.48,-9.749999999999998,-2.4924999999999997,10.5,8.0075,4.00375,gamble,lose,8.0075,162.61541666666665,1046.9575696139,None,1046.9575696139,None,1046.9575696139,None,1046.9575696139,None,1046.9575696139,None,1046.9575696139,None,1046.9575696139,None,1,0.9006123194703832,1046.9575696139,None,1047.8912620961564,None,1047.8912620961564,None,1047.8912620961564,None,1047.8912620961564,None,1047.8912620961564,None,1047.8912620961564,None,1047.8912620961564,None,1051.892785855216,None,1051.892785855216,None,1051.892785855216,None,1051.892785855216,None,1051.892785855216,None,1051.892785855216,None,1051.892785855216,None,1052.8764984004047,None,,,,,,,,,,,,,,,,,,,,,,,,,,,,,,23672,2020_Jan_21_1213,Mmi_3levels,3.1.5,59.98548908152774,
,,,3,1,13.9,,,,,,,,,0,2,2,2,0,19,19,4,,,,,,,,,,,,,,,,,,,,,,,,,,,,,,,,,,,,,,,,,,,,,,,,,,,,,,,,,,,,,True,True,True,0.52,-0.48,-10.229999999999999,16.95,13.9,-3.049999999999999,-1.5249999999999995,gamble,win,13.9,176.51541666666665,1054.8939608328,None,1054.8939608328,None,1054.8939608328,None,1054.8939608328,None,1054.8939608328,None,1054.8939608328,None,1054.8939608328,None,1,1.184019024909503,1054.8939608328,None,1056.1111656148823,None,1056.1111656148823,None,1056.1111656148823,None,1056.1111656148823,None,1056.1111656148823,None,1056.1111656148823,None,1056.1111656148823,None,1060.095919704745,None,1060.095919704745,None,1060.095919704745,None,1060.095919704745,None,1060.095919704745,None,1060.095919704745,None,1060.095919704745,None,1069.5995406324,None,1061.0963379225286,None,1062.0966534257714,None,0.55,7.502769132905087,1065.0977797659398,None,None,1065.0977797659398,None,,,,,,,,,,,,,,,,,,,23672,2020_Jan_21_1213,Mmi_3levels,3.1.5,59.98548908152774,
,,,3,1,10.1,,,,,,,,,0,2,2,2,0,20,20,9,,,,,,,,,,,,,,,,,,,,,,,,,,,,,,,,,,,,,,,,,,,,,,,,,,,,,,,,,,,,,True,False,False,0.55,-0.44999999999999996,-10.679999999999998,-2.4649999999999994,10.1,7.635,3.8175,gamble,lose,7.635,184.15041666666664,1071.6170014648815,None,1071.6170014648815,None,1071.6170014648815,None,1071.6170014648815,None,1071.6170014648815,None,1071.6170014648815,None,1071.6170014648815,None,1,0.8172269889037125,1071.6170014648815,None,1072.4672999770264,None,1072.4672999770264,None,1072.4672999770264,None,1072.4672999770264,None,1072.4672999770264,None,1072.4672999770264,None,1072.4672999770264,None,1076.4521542215662,None,1076.4521542215662,None,1076.4521542215662,None,1076.4521542215662,None,1076.4521542215662,None,1076.4521542215662,None,1076.4521542215662,None,1077.4525839587404,None,,,,,,,,,,,,,,,,,,,,,,,,,,,,,,23672,2020_Jan_21_1213,Mmi_3levels,3.1.5,59.98548908152774,
,,,3,1,9.7,,,,,,,,,0,2,2,2,0,21,21,26,,,,,,,,,,,,,,,,,,,,,,,,,,,,,,,,,,,,,,,,,,,,,,,,,,,,,,,,,,,,,True,True,True,0.55,-0.44999999999999996,-11.129999999999997,17.429999999999996,9.7,-7.729999999999997,0.9850000000000012,gamble,win,9.7,193.85041666666663,1079.4699727950465,None,1079.4699727950465,None,1079.4699727950465,None,1079.4699727950465,None,1079.4699727950465,None,1079.4699727950465,None,1079.4699727950465,None,1,1.6508575864427257,1079.4699727950465,None,1081.1540494168948,None,1081.1540494168948,None,1081.1540494168948,None,1081.1540494168948,None,1081.1540494168948,None,1081.1540494168948,None,1081.1540494168948,None,1085.1388380649223,None,1085.1388380649223,None,1085.1388380649223,None,1085.1388380649223,None,1085.1388380649223,None,1085.1388380649223,None,1085.1388380649223,None,1086.1391980457993,None,,,,,,,,,,,,,,,,,,,,,,,,,,,,,,23672,2020_Jan_21_1213,Mmi_3levels,3.1.5,59.98548908152774,
,,,3,1,-0.3,,,,,,,,,0,2,2,2,0,22,22,10,,,,,,,,,,,,,,,,,,,,,,,,,,,,,,,,,,,,,,,,,,,,,,,,,,,,,,,,,,,,,True,False,True,0.55,-0.44999999999999996,-11.579999999999997,-2.5399999999999996,-0.3,-2.8399999999999994,-1.5699999999999996,gamble,lose,-2.8399999999999994,191.01041666666663,1088.1567043158648,None,1088.1567043158648,None,1088.1567043158648,None,1088.1567043158648,None,1088.1567043158648,None,1088.1567043158648,None,1088.1567043158648,None,1,1.4340502232516883,1088.1567043158648,None,1089.6238436614258,None,1089.6238436614258,None,1089.6238436614258,None,1089.6238436614258,None,1089.6238436614258,None,1089.6238436614258,None,1089.6238436614258,None,1093.625364860618,None,1093.625364860618,None,1093.625364860618,None,1093.625364860618,None,1093.625364860618,None,1093.625364860618,None,1093.625364860618,None,1103.1123175536923,None,1094.6091068442438,None,1095.6094364267374,None,0.48,7.502792491664877,1098.6106363629951,None,None,1098.6106363629951,None,,,,,,,,,,,,,,,,,,,23672,2020_Jan_21_1213,Mmi_3levels,3.1.5,59.98548908152774,
,,,3,1,9.5,,,,,,,,,0,2,2,2,0,23,23,18,,,,,,,,,,,,,,,,,,,,,,,,,,,,,,,,,,,,,,,,,,,,,,,,,,,,,,,,,,,,,True,True,False,0.48,-0.52,-12.099999999999996,19.379999999999995,9.5,-9.879999999999995,-0.18999999999999773,gamble,win,9.5,200.51041666666663,1105.129788945611,None,1105.129788945611,None,1105.129788945611,None,1105.129788945611,None,1105.129788945611,None,1105.129788945611,None,1105.129788945611,None,1,2.15105277607654,1105.129788945611,None,1107.3139199645702,None,1107.3139199645702,None,1107.3139199645702,None,1107.3139199645702,None,1107.3139199645702,None,1107.3139199645702,None,1107.3139199645702,None,1111.298824126461,None,1111.298824126461,None,1111.298824126461,None,1111.298824126461,None,1111.298824126461,None,1111.298824126461,None,1111.298824126461,None,1112.299160748582,None,,,,,,,,,,,,,,,,,,,,,,,,,,,,,,23672,2020_Jan_21_1213,Mmi_3levels,3.1.5,59.98548908152774,
,,,3,1,12.7,,,,,,,,,0,2,2,2,0,24,24,13,,,,,,,,,,,,,,,,,,,,,,,,,,,,,,,,,,,,,,,,,,,,,,,,,,,,,,,,,,,,,True,False,False,0.48,-0.52,-12.619999999999996,-2.871666666666666,12.7,9.828333333333333,4.914166666666667,gamble,lose,9.828333333333333,210.33874999999995,1114.3165985422856,None,1114.3165985422856,None,1114.3165985422856,None,1114.3165985422856,None,1114.3165985422856,None,1114.3165985422856,None,1114.3165985422856,None,1,0.9174011876493751,1114.3165985422856,None,1115.2670024568288,None,1115.2670024568288,None,1115.2670024568288,None,1115.2670024568288,None,1115.2670024568288,None,1115.2670024568288,None,1115.2670024568288,None,1119.2684817382506,None,1119.2684817382506,None,1119.2684817382506,None,1119.2684817382506,None,1119.2684817382506,None,1119.2684817382506,None,1119.2684817382506,None,1128.7554318714574,None,1120.252198443217,None,1121.2525801829397,None,0.53,7.502776172532322,1124.253792598538,None,None,1124.253792598538,None,,,,,,,,,,,,,,,,,,,23672,2020_Jan_21_1213,Mmi_3levels,3.1.5,59.98548908152774,
,,,3,1,7.3,,,,,,,,,0,2,2,2,0,25,25,2,,,,,,,,,,,,,,,,,,,,,,,,,,,,,,,,,,,,,,,,,,,,,,,,,,,,,,,,,,,,,True,True,True,0.53,-0.47,-13.089999999999996,19.669999999999995,7.3,-12.369999999999994,-2.534999999999997,gamble,win,7.3,217.63874999999996,1130.7728699851468,None,1130.7728699851468,None,1130.7728699851468,None,1130.7728699851468,None,1130.7728699851468,None,1130.7728699851468,None,1130.7728699851468,None,1,1.367469760007225,1130.7728699851468,None,1132.1734535061478,None,1132.1734535061478,None,1132.1734535061478,None,1132.1734535061478,None,1132.1734535061478,None,1132.1734535061478,None,1132.1734535061478,None,1136.1749350274513,None,1136.1749350274513,None,1136.1749350274513,None,1136.1749350274513,None,1136.1749350274513,None,1136.1749350274513,None,1136.1749350274513,None,1137.15864661269,None,,,,,,,,,,,,,,,,,,,,,,,,,,,,,,23672,2020_Jan_21_1213,Mmi_3levels,3.1.5,59.98548908152774,
,,,3,1,6.5,,,,,,,,,0,2,2,2,0,26,26,20,,,,,,,,,,,,,,,,,,,,,,,,,,,,,,,,,,,,,,,,,,,,,,,,,,,,,,,,,,,,,True,True,True,0.53,-0.47,-13.559999999999997,20.139999999999997,6.5,-13.639999999999997,-3.5699999999999985,certain,certain,-3.5699999999999985,214.06874999999997,1139.1760744869243,None,1139.1760744869243,None,1139.1760744869243,None,1139.1760744869243,None,1139.1760744869243,None,1139.1760744869243,None,1139.1760744869243,None,3,2.567739441681624,1139.1760744869243,None,1141.7770662422408,None,1141.7770662422408,None,1141.7770662422408,None,1141.7770662422408,None,1141.7770662422408,None,1141.7770662422408,None,1141.7770662422408,None,1145.778598000874,None,1145.778598000874,None,1145.778598000874,None,1145.778598000874,None,1145.778598000874,None,1145.778598000874,None,1145.778598000874,None,1155.2655487740485,None,1146.762336144704,None,1147.7626791664807,None,0.47,7.502728495059273,1150.76381606609,None,None,1150.76381606609,None,,,,,,,,,,,,,,,,,,,23672,2020_Jan_21_1213,Mmi_3levels,3.1.5,59.98548908152774,
,,,,,,,,,,,,,,,,,,,,,,,,,,,,,,0,0,0,0,,,,,,,,,,,,,,,,,,,,,,,,,,,,,,,,,,,,,,,,,,,,,,,,,,,,,,,,,,,,,,,,,,,,,,,,,,,,,,,,,,,,,,,,,,,,,,,,,,,,,,,,,,,,,,,,,,,,,,,,,,1157.266304253917,None,4,2.851282779858593,1157.266304253917,None,214.06874999999997,5,1160.1507420725793,None,1160.1507420725793,None,1160.1507420725793,None,4,5.819079690489161,1160.1507420725793,None,23672,2020_Jan_21_1213,Mmi_3levels,3.1.5,59.98548908152774,
