currSlide,currImage,currText,blockNum,targetHappiness,highAmount,instructionLoop1.thisRepN,instructionLoop1.thisTrialN,instructionLoop1.thisN,instructionLoop1.thisIndex,instructionLoop2.thisRepN,instructionLoop2.thisTrialN,instructionLoop2.thisN,instructionLoop2.thisIndex,blockLoop.thisRepN,blockLoop.thisTrialN,blockLoop.thisN,blockLoop.thisIndex,trialLoop.thisRepN,trialLoop.thisTrialN,trialLoop.thisN,trialLoop.thisIndex,doRatingLoop.thisRepN,doRatingLoop.thisTrialN,doRatingLoop.thisN,doRatingLoop.thisIndex,trialHappyLoop.thisRepN,trialHappyLoop.thisTrialN,trialHappyLoop.thisN,trialHappyLoop.thisIndex,logWinningsLoop.thisRepN,logWinningsLoop.thisTrialN,logWinningsLoop.thisN,logWinningsLoop.thisIndex,instrImage.started,instrImage.stopped,instrText.started,instrText.stopped,instrContinueText.started,instrContinueText.stopped,instrKeyResp.keys,instrKeyResp.rt,instrKeyResp.started,instrKeyResp.stopped,lifeHappyText.started,lifeHappyText.stopped,lifeHappySlider.response,lifeHappySlider.rt,lifeHappySlider.started,lifeHappySlider.stopped,lifeHappyResp.keys,lifeHappyResp.started,lifeHappyResp.stopped,instrImage_2.started,instrImage_2.stopped,instrText_2.started,instrText_2.stopped,instrContinueText_2.started,instrContinueText_2.stopped,instrKeyResp_2.keys,instrKeyResp_2.rt,instrKeyResp_2.started,instrKeyResp_2.stopped,localizing.started,localizing.stopped,start_exp.keys,start_exp.rt,start_exp.started,start_exp.stopped,blockHappyText.started,blockHappyText.stopped,blockHappySlider.response,blockHappySlider.rt,blockHappySlider.started,blockHappySlider.stopped,blockHappyResp.keys,blockHappyResp.started,blockHappyResp.stopped,blankText.started,blankText.stopped,isHappyBlock,isCongruent,isWinOnTop,lastHappyRating,diff,sumDiff,RPE,winAmount,loseAmount,certainAmount,choice,outcome,outcomeAmount,currentWinnings,fixCross.started,fixCross.stopped,certainBox.started,certainBox.stopped,outcome1Box.started,outcome1Box.stopped,outcome2Box.started,outcome2Box.stopped,certainText.started,certainText.stopped,outcome1Text.started,outcome1Text.stopped,outcome2Text.started,outcome2Text.stopped,choiceKey.keys,choiceKey.rt,choiceKey.started,choiceKey.stopped,fixCross_2.started,fixCross_2.stopped,certainBox_2.started,certainBox_2.stopped,outcome1Box_2.started,outcome1Box_2.stopped,outcome2Box_2.started,outcome2Box_2.stopped,certainText_2.started,certainText_2.stopped,outcome1Text_2.started,outcome1Text_2.stopped,outcome2Text_2.started,outcome2Text_2.stopped,fixCross_3.started,fixCross_3.stopped,certainBox_3.started,certainBox_3.stopped,outcome1Box_3.started,outcome1Box_3.stopped,outcome2Box_3.started,outcome2Box_3.stopped,certainText_3.started,certainText_3.stopped,outcome1Text_3.started,outcome1Text_3.stopped,outcome2Text_3.started,outcome2Text_3.stopped,fixCross_ITI.started,fixCross_ITI.stopped,fixCross_ISI.started,fixCross_ISI.stopped,happyText.started,happyText.stopped,happySlider.response,happySlider.rt,happySlider.started,happySlider.stopped,happyResp.keys,happyResp.started,happyResp.stopped,endOfBlockText.started,endOfBlockText.stopped,restKeyResp.keys,restKeyResp.rt,restKeyResp.started,restKeyResp.stopped,finalWinnings,cashBonus,goodbyeText.started,goodbyeText.stopped,finalWinningsText.started,finalWinningsText.stopped,spaceToContinue.started,spaceToContinue.stopped,goodbyeKeyResp_2.keys,goodbyeKeyResp_2.rt,goodbyeKeyResp_2.started,goodbyeKeyResp_2.stopped,participant,date,expName,psychopyVersion,frameRate,
1,black.png,"Welcome! You are about to play our gambling task.
This task has 3 blocks and takes about 15 minutes.",,,,0,0,0,0,,,,,,,,,,,,,,,,,,,,,,,,,7.6176759890513495,None,7.6176759890513495,None,7.6176759890513495,None,4,3.101406773275812,7.6176759890513495,None,,,,,,,,,,,,,,,,,,,,,,,,,,,,,,,,,,,,,,,,,,,,,,,,,,,,,,,,,,,,,,,,,,,,,,,,,,,,,,,,,,,,,,,,,,,,,,,,,,,,,,,,,,,,,,,,,,,,,,,,,,,,,,,,24238,2019_Nov_22_1325,Mmi_3levels,3.1.5,59.97697006457228,
2,black.png,"In this game, you may win or lose points. Your goal is to get as many points as possible. These points will be converted to a cash bonus at the end.
Sometimes we will ask you to rate your mood.",,,,0,1,1,1,,,,,,,,,,,,,,,,,,,,,,,,,10.752285478592967,None,10.752285478592967,None,10.752285478592967,None,4,0.7171539047849365,10.752285478592967,None,,,,,,,,,,,,,,,,,,,,,,,,,,,,,,,,,,,,,,,,,,,,,,,,,,,,,,,,,,,,,,,,,,,,,,,,,,,,,,,,,,,,,,,,,,,,,,,,,,,,,,,,,,,,,,,,,,,,,,,,,,,,,,,,24238,2019_Nov_22_1325,Mmi_3levels,3.1.5,59.97697006457228,
3,black.png,"On the next screen, please rate how you feel about your life these days. Use the LEFT (green) and RIGHT (blue) buttons to move the slider (you can press and hold them to slide gradually) and the TOP (red) button to lock in your response.
Make your rating as accurately and quickly as you can!",,,,0,2,2,2,,,,,,,,,,,,,,,,,,,,,,,,,11.519252417303505,None,11.519252417303505,None,11.519252417303505,None,4,0.6337586547451792,11.519252417303505,None,,,,,,,,,,,,,,,,,,,,,,,,,,,,,,,,,,,,,,,,,,,,,,,,,,,,,,,,,,,,,,,,,,,,,,,,,,,,,,,,,,,,,,,,,,,,,,,,,,,,,,,,,,,,,,,,,,,,,,,,,,,,,,,,24238,2019_Nov_22_1325,Mmi_3levels,3.1.5,59.97697006457228,
,,,,,,,,,,,,,,,,,,,,,,,,,,,,,,,,,,,,,,,,,,,,12.16949339650455,None,0.97,10.50405226474686,16.172157894965494,None,None,16.172157894965494,None,,,,,,,,,,,,,,,,,,,,,,,,,,,,,,,,,,,,,,,,,,,,,,,,,,,,,,,,,,,,,,,,,,,,,,,,,,,,,,,,,,,,,,,,,,,,,,,,,,,,,,,,,,,,,,,,,,,,,,,24238,2019_Nov_22_1325,Mmi_3levels,3.1.5,59.97697006457228,
4,black.png,"In this game you can win money by earning points according to your choices. You will decide whether to gamble a number of points or stick with a guaranteed number of points. 
Make your choice by pressing the left or right arrow key once. An example of one trial is shown on the next screen.",,,,,,,,0,0,0,0,,,,,,,,,,,,,,,,,,,,,,,,,,,,,,,,,,,,,,,,22.708020309961285,None,22.708020309961285,None,22.708020309961285,None,4,2.0843158411444165,22.708020309961285,None,,,,,,,,,,,,,,,,,,,,,,,,,,,,,,,,,,,,,,,,,,,,,,,,,,,,,,,,,,,,,,,,,,,,,,,,,,,,,,,,,,,,,,,,,,,,,,,,,,,,,,,,,,,,,24238,2019_Nov_22_1325,Mmi_3levels,3.1.5,59.97697006457228,
5,example_start.png,"The GAMBLING OPTION will be shown on the RIGHT SIDE. 
Select this option using the RIGHT (blue) button on your keypad.",,,,,,,,0,1,1,1,,,,,,,,,,,,,,,,,,,,,,,,,,,,,,,,,,,,,,,,24.892068773304345,None,24.892068773304345,None,24.892068773304345,None,4,0.6338399304222548,24.892068773304345,None,,,,,,,,,,,,,,,,,,,,,,,,,,,,,,,,,,,,,,,,,,,,,,,,,,,,,,,,,,,,,,,,,,,,,,,,,,,,,,,,,,,,,,,,,,,,,,,,,,,,,,,,,,,,,24238,2019_Nov_22_1325,Mmi_3levels,3.1.5,59.97697006457228,
6,example_gamble.png,"Once you select the gambling choice, the choice you made will remain on the screen.",,,,,,,,0,2,2,2,,,,,,,,,,,,,,,,,,,,,,,,,,,,,,,,,,,,,,,,25.55907558189938,None,25.55907558189938,None,25.55907558189938,None,4,0.3169697225675918,25.55907558189938,None,,,,,,,,,,,,,,,,,,,,,,,,,,,,,,,,,,,,,,,,,,,,,,,,,,,,,,,,,,,,,,,,,,,,,,,,,,,,,,,,,,,,,,,,,,,,,,,,,,,,,,,,,,,,,24238,2019_Nov_22_1325,Mmi_3levels,3.1.5,59.97697006457228,
7,example_win.png,"The outcome you received will then be shown on the screen. In this example , you WON 10 points.",,,,,,,,0,3,3,3,,,,,,,,,,,,,,,,,,,,,,,,,,,,,,,,,,,,,,,,25.909211862657685,None,25.909211862657685,None,25.909211862657685,None,4,0.21678720426280051,25.909211862657685,None,,,,,,,,,,,,,,,,,,,,,,,,,,,,,,,,,,,,,,,,,,,,,,,,,,,,,,,,,,,,,,,,,,,,,,,,,,,,,,,,,,,,,,,,,,,,,,,,,,,,,,,,,,,,,24238,2019_Nov_22_1325,Mmi_3levels,3.1.5,59.97697006457228,
8,example_start.png,"The GUARANTEED OPTION will be shown on the LEFT SIDE. You are 100% guaranteed to gain or lose this amount. In this example, you have a 100% chance of winning 1 point. Select this option using the LEFT (green) button on your keyboard.",,,,,,,,0,4,4,4,,,,,,,,,,,,,,,,,,,,,,,,,,,,,,,,,,,,,,,,26.175979451974854,None,26.175979451974854,None,26.175979451974854,None,4,0.2836175742413616,26.175979451974854,None,,,,,,,,,,,,,,,,,,,,,,,,,,,,,,,,,,,,,,,,,,,,,,,,,,,,,,,,,,,,,,,,,,,,,,,,,,,,,,,,,,,,,,,,,,,,,,,,,,,,,,,,,,,,,24238,2019_Nov_22_1325,Mmi_3levels,3.1.5,59.97697006457228,
9,example_certain.png,"Once you select the guaranteed choice, your selection will remain on the screen.",,,,,,,,0,5,5,5,,,,,,,,,,,,,,,,,,,,,,,,,,,,,,,,,,,,,,,,26.49276838413789,None,26.49276838413789,None,26.49276838413789,None,4,0.3669795460446039,26.49276838413789,None,,,,,,,,,,,,,,,,,,,,,,,,,,,,,,,,,,,,,,,,,,,,,,,,,,,,,,,,,,,,,,,,,,,,,,,,,,,,,,,,,,,,,,,,,,,,,,,,,,,,,,,,,,,,,24238,2019_Nov_22_1325,Mmi_3levels,3.1.5,59.97697006457228,
10,black.png,"Please make your choices as fast as possible.
You will be given a break at the end of each block.
Let's play!",,,,,,,,0,6,6,6,,,,,,,,,,,,,,,,,,,,,,,,,,,,,,,,,,,,,,,,26.89291928811872,None,26.89291928811872,None,26.89291928811872,None,4,0.4670199919055449,26.89291928811872,None,,,,,,,,,,,,,,,,,,,,,,,,,,,,,,,,,,,,,,,,,,,,,,,,,,,,,,,,,,,,,,,,,,,,,,,,,,,,,,,,,,,,,,,,,,,,,,,,,,,,,,,,,,,,,24238,2019_Nov_22_1325,Mmi_3levels,3.1.5,59.97697006457228,
,,,,,,,,,,,,,,,,,,,,,,,,,,,,,,,,,,,,,,,,,,,,,,,,,,,,,,,,,,,,,,,27.376447843082133,None,space,13.305244265429792,27.376447843082133,None,,,,,,,,,,,,,,,,,,,,,,,,,,,,,,,,,,,,,,,,,,,,,,,,,,,,,,,,,,,,,,,,,,,,,,,,,,,,,,,,,,,,,,,,,,,,,,,,,,,,,,,24238,2019_Nov_22_1325,Mmi_3levels,3.1.5,59.97697006457228,
,,,1,1,4.7,,,,,,,,,0,0,0,0,0,0,0,19,,,,,,,,,,,,,,,,,,,,,,,,,,,,,,,,,,,,,,,,,,,,,,,,40.698163873530575,None,0.93,7.496046290019876,43.71597444743384,None,None,43.71597444743384,None,48.20104564045323,None,True,True,False,0.93,-0.06999999999999995,-0.06999999999999995,1.0499999999999994,4.7,3.650000000000001,1.8250000000000004,gamble,win,4.7,4.7,51.23556700667541,None,51.23556700667541,None,51.23556700667541,None,51.23556700667541,None,51.23556700667541,None,51.23556700667541,None,51.23556700667541,None,1,1.667578938198858,51.23556700667541,None,52.936140032237745,None,52.936140032237745,None,52.936140032237745,None,52.936140032237745,None,52.936140032237745,None,52.936140032237745,None,52.936140032237745,None,56.92108035221463,None,56.92108035221463,None,56.92108035221463,None,56.92108035221463,None,56.92108035221463,None,56.92108035221463,None,56.92108035221463,None,57.92144321293745,None,,,,,,,,,,,,,,,,,,,,,,,,,,,,,,24238,2019_Nov_22_1325,Mmi_3levels,3.1.5,59.97697006457228,
,,,1,1,6.5,,,,,,,,,0,0,0,0,0,1,1,0,,,,,,,,,,,,,,,,,,,,,,,,,,,,,,,,,,,,,,,,,,,,,,,,,,,,,,,,,,,True,True,False,0.93,-0.06999999999999995,-0.1399999999999999,1.1199999999999992,6.5,5.380000000000001,2.6900000000000004,gamble,win,6.5,11.2,59.93888484642957,None,59.93888484642957,None,59.93888484642957,None,59.93888484642957,None,59.93888484642957,None,59.93888484642957,None,59.93888484642957,None,1,1.2674075553077273,59.93888484642957,None,61.23932648697519,None,61.23932648697519,None,61.23932648697519,None,61.23932648697519,None,61.23932648697519,None,61.23932648697519,None,61.23932648697519,None,65.22422648908105,None,65.22422648908105,None,65.22422648908105,None,65.22422648908105,None,65.22422648908105,None,65.22422648908105,None,65.22422648908105,None,66.224618468259,None,,,,,,,,,,,,,,,,,,,,,,,,,,,,,,24238,2019_Nov_22_1325,Mmi_3levels,3.1.5,59.97697006457228,
,,,1,1,3.1,,,,,,,,,0,0,0,0,0,2,2,10,,,,,,,,,,,,,,,,,,,,,,,,,,,,,,,,,,,,,,,,,,,,,,,,,,,,,,,,,,,True,True,True,0.93,-0.06999999999999995,-0.20999999999999985,1.189999999999999,3.1,1.910000000000001,0.9550000000000005,gamble,win,3.1,14.299999999999999,68.24199738509196,None,68.24199738509196,None,68.24199738509196,None,68.24199738509196,None,68.24199738509196,None,68.24199738509196,None,68.24199738509196,None,1,1.5175587472767802,68.24199738509196,None,69.79254030025913,None,69.79254030025913,None,69.79254030025913,None,69.79254030025913,None,69.79254030025913,None,69.79254030025913,None,69.79254030025913,None,73.77751229854766,None,73.77751229854766,None,73.77751229854766,None,73.77751229854766,None,73.77751229854766,None,73.77751229854766,None,73.77751229854766,None,83.28108714864356,None,74.7778914783994,None,75.77826585852017,None,0.97,7.502781612231047,78.77935316076037,None,None,78.77935316076037,None,,,,,,,,,,,,,,,,,,,24238,2019_Nov_22_1325,Mmi_3levels,3.1.5,59.97697006457228,
,,,1,1,1.5,,,,,,,,,0,0,0,0,0,3,3,17,,,,,,,,,,,,,,,,,,,,,,,,,,,,,,,,,,,,,,,,,,,,,,,,,,,,,,,,,,,True,True,True,0.97,-0.030000000000000027,-0.23999999999999988,0.6600000000000003,1.5,0.8399999999999997,1.17,gamble,win,1.5,15.799999999999999,85.29856590017152,None,85.29856590017152,None,85.29856590017152,None,85.29856590017152,None,85.29856590017152,None,85.29856590017152,None,85.29856590017152,None,1,2.351160226360662,85.29856590017152,None,87.68281972860859,None,87.68281972860859,None,87.68281972860859,None,87.68281972860859,None,87.68281972860859,None,87.68281972860859,None,87.68281972860859,None,91.66767237323802,None,91.66767237323802,None,91.66767237323802,None,91.66767237323802,None,91.66767237323802,None,91.66767237323802,None,91.66767237323802,None,92.66805123312224,None,,,,,,,,,,,,,,,,,,,,,,,,,,,,,,24238,2019_Nov_22_1325,Mmi_3levels,3.1.5,59.97697006457228,
,,,1,1,6.1,,,,,,,,,0,0,0,0,0,4,4,9,,,,,,,,,,,,,,,,,,,,,,,,,,,,,,,,,,,,,,,,,,,,,,,,,,,,,,,,,,,True,True,True,0.97,-0.030000000000000027,-0.2699999999999999,0.6900000000000003,6.1,5.409999999999999,2.7049999999999996,gamble,win,6.1,21.9,94.68548998677579,None,94.68548998677579,None,94.68548998677579,None,94.68548998677579,None,94.68548998677579,None,94.68548998677579,None,94.68548998677579,None,1,1.1341080761776539,94.68548998677579,None,95.85259759001201,None,95.85259759001201,None,95.85259759001201,None,95.85259759001201,None,95.85259759001201,None,95.85259759001201,None,95.85259759001201,None,99.85412646879558,None,99.85412646879558,None,99.85412646879558,None,99.85412646879558,None,99.85412646879558,None,99.85412646879558,None,99.85412646879558,None,109.34108172173728,None,100.83778493685531,None,101.83821371408703,None,0.97,7.502804331044899,104.83935253358504,None,None,104.83935253358504,None,,,,,,,,,,,,,,,,,,,24238,2019_Nov_22_1325,Mmi_3levels,3.1.5,59.97697006457228,
,,,1,1,8.3,,,,,,,,,0,0,0,0,0,5,5,4,,,,,,,,,,,,,,,,,,,,,,,,,,,,,,,,,,,,,,,,,,,,,,,,,,,,,,,,,,,True,True,True,0.97,-0.030000000000000027,-0.29999999999999993,0.7200000000000003,8.3,7.58,3.79,gamble,win,8.3,30.2,111.35852495515428,None,111.35852495515428,None,111.35852495515428,None,111.35852495515428,None,111.35852495515428,None,111.35852495515428,None,111.35852495515428,None,1,1.5674885750049725,111.35852495515428,None,112.95912825111009,None,112.95912825111009,None,112.95912825111009,None,112.95912825111009,None,112.95912825111009,None,112.95912825111009,None,112.95912825111009,None,116.9439796157967,None,116.9439796157967,None,116.9439796157967,None,116.9439796157967,None,116.9439796157967,None,116.9439796157967,None,116.9439796157967,None,117.9443645553547,None,,,,,,,,,,,,,,,,,,,,,,,,,,,,,,24238,2019_Nov_22_1325,Mmi_3levels,3.1.5,59.97697006457228,
,,,1,1,7.7,,,,,,,,,0,0,0,0,0,6,6,18,,,,,,,,,,,,,,,,,,,,,,,,,,,,,,,,,,,,,,,,,,,,,,,,,,,,,,,,,,,True,True,False,0.97,-0.030000000000000027,-0.32999999999999996,0.7500000000000003,7.7,6.95,3.475,gamble,win,7.7,37.9,119.96180586886476,None,119.96180586886476,None,119.96180586886476,None,119.96180586886476,None,119.96180586886476,None,119.96180586886476,None,119.96180586886476,None,1,1.033987634582445,119.96180586886476,None,121.02887942592497,None,121.02887942592497,None,121.02887942592497,None,121.02887942592497,None,121.02887942592497,None,121.02887942592497,None,121.02887942592497,None,125.01372567088401,None,125.01372567088401,None,125.01372567088401,None,125.01372567088401,None,125.01372567088401,None,125.01372567088401,None,125.01372567088401,None,126.01411509020545,None,,,,,,,,,,,,,,,,,,,,,,,,,,,,,,24238,2019_Nov_22_1325,Mmi_3levels,3.1.5,59.97697006457228,
,,,1,1,10.7,,,,,,,,,0,0,0,0,0,7,7,25,,,,,,,,,,,,,,,,,,,,,,,,,,,,,,,,,,,,,,,,,,,,,,,,,,,,,,,,,,,True,False,False,0.97,-0.030000000000000027,-0.36,-0.1350000000000001,10.7,10.565,5.2825,gamble,lose,10.565,48.464999999999996,128.03154776418523,None,128.03154776418523,None,128.03154776418523,None,128.03154776418523,None,128.03154776418523,None,128.03154776418523,None,128.03154776418523,None,1,1.2173961319203954,128.03154776418523,None,129.2820253388054,None,129.2820253388054,None,129.2820253388054,None,129.2820253388054,None,129.2820253388054,None,129.2820253388054,None,129.2820253388054,None,133.2835062201484,None,133.2835062201484,None,133.2835062201484,None,133.2835062201484,None,133.2835062201484,None,133.2835062201484,None,133.2835062201484,None,142.77050787062035,None,134.26726420292107,None,135.26764850251493,None,0.99,7.502754093700787,138.2687172457372,None,None,138.2687172457372,None,,,,,,,,,,,,,,,,,,,24238,2019_Nov_22_1325,Mmi_3levels,3.1.5,59.97697006457228,
,,,1,1,3.9,,,,,,,,,0,0,0,0,0,8,8,5,,,,,,,,,,,,,,,,,,,,,,,,,,,,,,,,,,,,,,,,,,,,,,,,,,,,,,,,,,,True,True,True,0.99,-0.010000000000000009,-0.37,0.5100000000000001,3.9,3.3899999999999997,1.6949999999999998,gamble,win,3.9,52.364999999999995,144.7879498241091,None,144.7879498241091,None,144.7879498241091,None,144.7879498241091,None,144.7879498241091,None,144.7879498241091,None,144.7879498241091,None,1,1.1674323859915603,144.7879498241091,None,145.98840701581503,None,145.98840701581503,None,145.98840701581503,None,145.98840701581503,None,145.98840701581503,None,145.98840701581503,None,145.98840701581503,None,149.97321102302521,None,149.97321102302521,None,149.97321102302521,None,149.97321102302521,None,149.97321102302521,None,149.97321102302521,None,149.97321102302521,None,150.97363724038587,None,,,,,,,,,,,,,,,,,,,,,,,,,,,,,,24238,2019_Nov_22_1325,Mmi_3levels,3.1.5,59.97697006457228,
,,,1,1,0.3,,,,,,,,,0,0,0,0,0,9,9,8,,,,,,,,,,,,,,,,,,,,,,,,,,,,,,,,,,,,,,,,,,,,,,,,,,,,,,,,,,,True,True,False,0.99,-0.010000000000000009,-0.38,0.5200000000000001,0.3,-0.22000000000000014,0.039999999999999925,gamble,win,0.3,52.66499999999999,152.99102191691054,None,152.99102191691054,None,152.99102191691054,None,152.99102191691054,None,152.99102191691054,None,152.99102191691054,None,152.99102191691054,None,1,2.051077606753097,152.99102191691054,None,155.07520368517726,None,155.07520368517726,None,155.07520368517726,None,155.07520368517726,None,155.07520368517726,None,155.07520368517726,None,155.07520368517726,None,159.06002721135155,None,159.06002721135155,None,159.06002721135155,None,159.06002721135155,None,159.06002721135155,None,159.06002721135155,None,159.06002721135155,None,168.56368429708527,None,160.06044222931087,None,161.0607558126503,None,0.99,7.5027700928621925,164.06195318904065,None,None,164.06195318904065,None,,,,,,,,,,,,,,,,,,,24238,2019_Nov_22_1325,Mmi_3levels,3.1.5,59.97697006457228,
,,,1,1,8.7,,,,,,,,,0,0,0,0,0,10,10,21,,,,,,,,,,,,,,,,,,,,,,,,,,,,,,,,,,,,,,,,,,,,,,,,,,,,,,,,,,,True,True,False,0.99,-0.010000000000000009,-0.39,0.5300000000000001,8.7,8.17,4.085,gamble,win,8.7,61.364999999999995,170.58111793101125,None,170.58111793101125,None,170.58111793101125,None,170.58111793101125,None,170.58111793101125,None,170.58111793101125,None,170.58111793101125,None,1,1.2007259774400154,170.58111793101125,None,171.8149269510759,None,171.8149269510759,None,171.8149269510759,None,171.8149269510759,None,171.8149269510759,None,171.8149269510759,None,171.8149269510759,None,175.7997789557412,None,175.7997789557412,None,175.7997789557412,None,175.7997789557412,None,175.7997789557412,None,175.7997789557412,None,175.7997789557412,None,176.80016101544606,None,,,,,,,,,,,,,,,,,,,,,,,,,,,,,,24238,2019_Nov_22_1325,Mmi_3levels,3.1.5,59.97697006457228,
,,,1,1,11.9,,,,,,,,,0,0,0,0,0,11,11,11,,,,,,,,,,,,,,,,,,,,,,,,,,,,,,,,,,,,,,,,,,,,,,,,,,,,,,,,,,,True,True,False,0.99,-0.010000000000000009,-0.4,0.5400000000000001,11.9,11.36,5.68,gamble,win,11.9,73.265,178.81759976909962,None,178.81759976909962,None,178.81759976909962,None,178.81759976909962,None,178.81759976909962,None,178.81759976909962,None,178.81759976909962,None,1,0.9504288732277928,178.81759976909962,None,179.80131391419854,None,179.80131391419854,None,179.80131391419854,None,179.80131391419854,None,179.80131391419854,None,179.80131391419854,None,179.80131391419854,None,183.78615663935489,None,183.78615663935489,None,183.78615663935489,None,183.78615663935489,None,183.78615663935489,None,183.78615663935489,None,183.78615663935489,None,193.28979004634311,None,184.7865454187122,None,185.7869297182915,None,0.98,7.502781612245599,188.78798726211244,None,None,188.78798726211244,None,,,,,,,,,,,,,,,,,,,24238,2019_Nov_22_1325,Mmi_3levels,3.1.5,59.97697006457228,
,,,1,1,2.1,,,,,,,,,0,0,0,0,0,12,12,16,,,,,,,,,,,,,,,,,,,,,,,,,,,,,,,,,,,,,,,,,,,,,,,,,,,,,,,,,,,True,True,True,0.98,-0.020000000000000018,-0.42000000000000004,0.7000000000000003,2.1,1.4,1.75,certain,certain,1.75,75.015,195.3072249602119,None,195.3072249602119,None,195.3072249602119,None,195.3072249602119,None,195.3072249602119,None,195.3072249602119,None,195.3072249602119,None,3,1.5175017903093249,195.3072249602119,None,196.8578187526582,None,196.8578187526582,None,196.8578187526582,None,196.8578187526582,None,196.8578187526582,None,196.8578187526582,None,196.8578187526582,None,200.84267587705108,None,200.84267587705108,None,200.84267587705108,None,200.84267587705108,None,200.84267587705108,None,200.84267587705108,None,200.84267587705108,None,201.84305377697456,None,,,,,,,,,,,,,,,,,,,,,,,,,,,,,,24238,2019_Nov_22_1325,Mmi_3levels,3.1.5,59.97697006457228,
,,,1,1,-0.3,,,,,,,,,0,0,0,0,0,13,13,6,,,,,,,,,,,,,,,,,,,,,,,,,,,,,,,,,,,,,,,,,,,,,,,,,,,,,,,,,,,True,True,False,0.98,-0.020000000000000018,-0.44000000000000006,0.7200000000000003,-0.3,-1.0200000000000002,-0.6600000000000001,certain,certain,-0.6600000000000001,74.355,203.8604966904095,None,203.8604966904095,None,203.8604966904095,None,203.8604966904095,None,203.8604966904095,None,203.8604966904095,None,203.8604966904095,None,3,2.334396956837736,203.8604966904095,None,206.2280726847821,None,206.2280726847821,None,206.2280726847821,None,206.2280726847821,None,206.2280726847821,None,206.2280726847821,None,206.2280726847821,None,210.22959100412845,None,210.22959100412845,None,210.22959100412845,None,210.22959100412845,None,210.22959100412845,None,210.22959100412845,None,210.22959100412845,None,211.2132968296646,None,,,,,,,,,,,,,,,,,,,,,,,,,,,,,,24238,2019_Nov_22_1325,Mmi_3levels,3.1.5,59.97697006457228,
,,,1,1,13.1,,,,,,,,,0,0,0,0,0,14,14,23,,,,,,,,,,,,,,,,,,,,,,,,,,,,,,,,,,,,,,,,,,,,,,,,,,,,,,,,,,,True,False,False,0.98,-0.020000000000000018,-0.4600000000000001,-0.10833333333333339,13.1,12.991666666666667,6.495833333333334,gamble,lose,12.991666666666667,87.34666666666666,213.23073334344372,None,213.23073334344372,None,213.23073334344372,None,213.23073334344372,None,213.23073334344372,None,213.23073334344372,None,213.23073334344372,None,1,1.067138833575882,213.23073334344372,None,214.33115680894116,None,214.33115680894116,None,214.33115680894116,None,214.33115680894116,None,214.33115680894116,None,214.33115680894116,None,214.33115680894116,None,218.33268088799377,None,218.33268088799377,None,218.33268088799377,None,218.33268088799377,None,218.33268088799377,None,218.33268088799377,None,218.33268088799377,None,227.81963390104647,None,219.31639279321826,None,220.31677389296237,None,0.97,7.50274481420638,223.31790343296598,None,None,223.31790343296598,None,,,,,,,,,,,,,,,,,,,24238,2019_Nov_22_1325,Mmi_3levels,3.1.5,59.97697006457228,
,,,1,1,13.3,,,,,,,,,0,0,0,0,0,15,15,3,,,,,,,,,,,,,,,,,,,,,,,,,,,,,,,,,,,,,,,,,,,,,,,,,,,,,,,,,,,True,False,True,0.97,-0.030000000000000027,-0.4900000000000001,-0.14583333333333343,13.3,13.154166666666667,6.577083333333333,gamble,lose,13.154166666666667,100.50083333333333,229.8370729746821,None,229.8370729746821,None,229.8370729746821,None,229.8370729746821,None,229.8370729746821,None,229.8370729746821,None,229.8370729746821,None,1,0.9670772688550642,229.8370729746821,None,230.83745663429727,None,230.83745663429727,None,230.83745663429727,None,230.83745663429727,None,230.83745663429727,None,230.83745663429727,None,230.83745663429727,None,234.82230671907018,None,234.82230671907018,None,234.82230671907018,None,234.82230671907018,None,234.82230671907018,None,234.82230671907018,None,234.82230671907018,None,235.82268621890398,None,,,,,,,,,,,,,,,,,,,,,,,,,,,,,,24238,2019_Nov_22_1325,Mmi_3levels,3.1.5,59.97697006457228,
,,,1,1,7.3,,,,,,,,,0,0,0,0,0,16,16,1,,,,,,,,,,,,,,,,,,,,,,,,,,,,,,,,,,,,,,,,,,,,,,,,,,,,,,,,,,,True,True,True,0.97,-0.030000000000000027,-0.5200000000000001,0.9400000000000005,7.3,6.359999999999999,3.1799999999999997,gamble,win,7.3,107.80083333333333,237.84012241270102,None,237.84012241270102,None,237.84012241270102,None,237.84012241270102,None,237.84012241270102,None,237.84012241270102,None,237.84012241270102,None,1,1.134086957303225,237.84012241270102,None,239.00723865548207,None,239.00723865548207,None,239.00723865548207,None,239.00723865548207,None,239.00723865548207,None,239.00723865548207,None,239.00723865548207,None,242.99209162009356,None,242.99209162009356,None,242.99209162009356,None,242.99209162009356,None,242.99209162009356,None,242.99209162009356,None,242.99209162009356,None,252.4957208673004,None,243.99246856007085,None,244.9928547795571,None,0.97,7.502767852973193,247.99400639838132,None,None,247.99400639838132,None,,,,,,,,,,,,,,,,,,,24238,2019_Nov_22_1325,Mmi_3levels,3.1.5,59.97697006457228,
,,,1,1,2.9,,,,,,,,,0,0,0,0,0,17,17,14,,,,,,,,,,,,,,,,,,,,,,,,,,,,,,,,,,,,,,,,,,,,,,,,,,,,,,,,,,,True,True,True,0.97,-0.030000000000000027,-0.5500000000000002,0.9700000000000005,2.9,1.9299999999999993,0.9649999999999996,gamble,win,2.9,110.70083333333334,254.51315642113332,None,254.51315642113332,None,254.51315642113332,None,254.51315642113332,None,254.51315642113332,None,254.51315642113332,None,254.51315642113332,None,1,1.1673648695868906,254.51315642113332,None,255.71361585272825,None,255.71361585272825,None,255.71361585272825,None,255.71361585272825,None,255.71361585272825,None,255.71361585272825,None,255.71361585272825,None,259.6984537781391,None,259.6984537781391,None,259.6984537781391,None,259.6984537781391,None,259.6984537781391,None,259.6984537781391,None,259.6984537781391,None,260.6988476772094,None,,,,,,,,,,,,,,,,,,,,,,,,,,,,,,24238,2019_Nov_22_1325,Mmi_3levels,3.1.5,59.97697006457228,
,,,1,1,3.5,,,,,,,,,0,0,0,0,0,18,18,20,,,,,,,,,,,,,,,,,,,,,,,,,,,,,,,,,,,,,,,,,,,,,,,,,,,,,,,,,,,True,False,True,0.97,-0.030000000000000027,-0.5800000000000002,-0.15333333333333343,3.5,3.3466666666666667,1.6733333333333333,gamble,lose,3.3466666666666667,114.0475,262.7162841909885,None,262.7162841909885,None,262.7162841909885,None,262.7162841909885,None,262.7162841909885,None,262.7162841909885,None,262.7162841909885,None,1,0.9672311806789367,262.7162841909885,None,263.71666497075057,None,263.71666497075057,None,263.71666497075057,None,263.71666497075057,None,263.71666497075057,None,263.71666497075057,None,263.71666497075057,None,267.70140434139466,None,267.70140434139466,None,267.70140434139466,None,267.70140434139466,None,267.70140434139466,None,267.70140434139466,None,267.70140434139466,None,268.701900315049,None,,,,,,,,,,,,,,,,,,,,,,,,,,,,,,24238,2019_Nov_22_1325,Mmi_3levels,3.1.5,59.97697006457228,
,,,1,1,0.1,,,,,,,,,0,0,0,0,0,19,19,7,,,,,,,,,,,,,,,,,,,,,,,,,,,,,,,,,,,,,,,,,,,,,,,,,,,,,,,,,,,True,True,False,0.97,-0.030000000000000027,-0.6100000000000002,1.0300000000000007,0.1,-0.9300000000000007,-0.41500000000000037,gamble,win,0.1,114.1475,270.7192952310288,None,270.7192952310288,None,270.7192952310288,None,270.7192952310288,None,270.7192952310288,None,270.7192952310288,None,270.7192952310288,None,1,2.417695891999756,270.7192952310288,None,273.1702143182192,None,273.1702143182192,None,273.1702143182192,None,273.1702143182192,None,273.1702143182192,None,273.1702143182192,None,273.1702143182192,None,277.17179183442204,None,277.17179183442204,None,277.17179183442204,None,277.17179183442204,None,277.17179183442204,None,277.17179183442204,None,277.17179183442204,None,286.65875860674714,None,278.1555085393775,None,279.15587300002517,None,0.96,7.502787691919366,282.1570242988673,None,None,282.1570242988673,None,,,,,,,,,,,,,,,,,,,24238,2019_Nov_22_1325,Mmi_3levels,3.1.5,59.97697006457228,
,,,1,1,5.7,,,,,,,,,0,0,0,0,0,20,20,2,,,,,,,,,,,,,,,,,,,,,,,,,,,,,,,,,,,,,,,,,,,,,,,,,,,,,,,,,,,True,True,True,0.96,-0.040000000000000036,-0.6500000000000002,1.2100000000000009,5.7,4.489999999999999,2.2449999999999997,gamble,win,5.7,119.8475,288.6761919206765,None,288.6761919206765,None,288.6761919206765,None,288.6761919206765,None,288.6761919206765,None,288.6761919206765,None,288.6761919206765,None,1,0.91723831629497,288.6761919206765,None,289.6265503976465,None,289.6265503976465,None,289.6265503976465,None,289.6265503976465,None,289.6265503976465,None,289.6265503976465,None,289.6265503976465,None,293.61139728256967,None,293.61139728256967,None,293.61139728256967,None,293.61139728256967,None,293.61139728256967,None,293.61139728256967,None,293.61139728256967,None,294.61178990171175,None,,,,,,,,,,,,,,,,,,,,,,,,,,,,,,24238,2019_Nov_22_1325,Mmi_3levels,3.1.5,59.97697006457228,
,,,1,1,9.9,,,,,,,,,0,0,0,0,0,21,21,13,,,,,,,,,,,,,,,,,,,,,,,,,,,,,,,,,,,,,,,,,,,,,,,,,,,,,,,,,,,True,True,True,0.96,-0.040000000000000036,-0.6900000000000003,1.2500000000000009,9.9,8.649999999999999,4.324999999999999,gamble,win,9.9,129.7475,296.6292248155805,None,296.6292248155805,None,296.6292248155805,None,296.6292248155805,None,296.6292248155805,None,296.6292248155805,None,296.6292248155805,None,1,1.267409475214663,296.6292248155805,None,297.9297243730398,None,297.9297243730398,None,297.9297243730398,None,297.9297243730398,None,297.9297243730398,None,297.9297243730398,None,297.9297243730398,None,301.9145683781244,None,301.9145683781244,None,301.9145683781244,None,301.9145683781244,None,301.9145683781244,None,301.9145683781244,None,301.9145683781244,None,311.41820274507336,None,302.9149539576465,None,303.9152892998245,None,0.96,7.502754093700787,306.91647163702874,None,None,306.91647163702874,None,,,,,,,,,,,,,,,,,,,24238,2019_Nov_22_1325,Mmi_3levels,3.1.5,59.97697006457228,
,,,1,1,2.7,,,,,,,,,0,0,0,0,0,22,22,24,,,,,,,,,,,,,,,,,,,,,,,,,,,,,,,,,,,,,,,,,,,,,,,,,,,,,,,,,,,True,True,False,0.96,-0.040000000000000036,-0.7300000000000003,1.290000000000001,2.7,1.4099999999999993,0.7049999999999996,gamble,win,2.7,132.4475,313.4356334991462,None,313.4356334991462,None,313.4356334991462,None,313.4356334991462,None,313.4356334991462,None,313.4356334991462,None,313.4356334991462,None,1,0.9506026239832863,313.4356334991462,None,314.41934572435275,None,314.41934572435275,None,314.41934572435275,None,314.41934572435275,None,314.41934572435275,None,314.41934572435275,None,314.41934572435275,None,318.4041942092008,None,318.4041942092008,None,318.4041942092008,None,318.4041942092008,None,318.4041942092008,None,318.4041942092008,None,318.4041942092008,None,319.404551630214,None,,,,,,,,,,,,,,,,,,,,,,,,,,,,,,24238,2019_Nov_22_1325,Mmi_3levels,3.1.5,59.97697006457228,
,,,1,1,11.5,,,,,,,,,0,0,0,0,0,23,23,26,,,,,,,,,,,,,,,,,,,,,,,,,,,,,,,,,,,,,,,,,,,,,,,,,,,,,,,,,,,True,True,True,0.96,-0.040000000000000036,-0.7700000000000004,1.330000000000001,11.5,10.169999999999998,5.084999999999999,gamble,win,11.5,143.9475,321.42197054492135,None,321.42197054492135,None,321.42197054492135,None,321.42197054492135,None,321.42197054492135,None,321.42197054492135,None,321.42197054492135,None,1,0.8672966492013074,321.42197054492135,None,322.32236591592664,None,322.32236591592664,None,322.32236591592664,None,322.32236591592664,None,322.32236591592664,None,322.32236591592664,None,322.32236591592664,None,326.3239075940219,None,326.3239075940219,None,326.3239075940219,None,326.3239075940219,None,326.3239075940219,None,326.3239075940219,None,326.3239075940219,None,335.8108382082719,None,327.3075903807912,None,328.307974360403,None,0.96,7.50276145330281,331.3091026204638,None,None,331.3091026204638,None,,,,,,,,,,,,,,,,,,,24238,2019_Nov_22_1325,Mmi_3levels,3.1.5,59.97697006457228,
,,,1,1,1.3,,,,,,,,,0,0,0,0,0,24,24,22,,,,,,,,,,,,,,,,,,,,,,,,,,,,,,,,,,,,,,,,,,,,,,,,,,,,,,,,,,,True,False,False,0.96,-0.040000000000000036,-0.8100000000000004,-0.20750000000000016,1.3,1.0924999999999998,1.19625,gamble,lose,1.0924999999999998,145.04,337.8282411238324,None,337.8282411238324,None,337.8282411238324,None,337.8282411238324,None,337.8282411238324,None,337.8282411238324,None,337.8282411238324,None,1,0.9172066379833268,337.8282411238324,None,338.77859064126096,None,338.77859064126096,None,338.77859064126096,None,338.77859064126096,None,338.77859064126096,None,338.77859064126096,None,338.77859064126096,None,342.76349352321995,None,342.76349352321995,None,342.76349352321995,None,342.76349352321995,None,342.76349352321995,None,342.76349352321995,None,342.76349352321995,None,343.7638781427959,None,,,,,,,,,,,,,,,,,,,,,,,,,,,,,,24238,2019_Nov_22_1325,Mmi_3levels,3.1.5,59.97697006457228,
,,,1,1,9.1,,,,,,,,,0,0,0,0,0,25,25,15,,,,,,,,,,,,,,,,,,,,,,,,,,,,,,,,,,,,,,,,,,,,,,,,,,,,,,,,,,,True,True,True,0.96,-0.040000000000000036,-0.8500000000000004,1.410000000000001,9.1,7.689999999999999,3.8449999999999993,gamble,win,9.1,154.14,345.78130857688666,None,345.78130857688666,None,345.78130857688666,None,345.78130857688666,None,345.78130857688666,None,345.78130857688666,None,345.78130857688666,None,1,1.3007149060140364,345.78130857688666,None,347.1151554829412,None,347.1151554829412,None,347.1151554829412,None,347.1151554829412,None,347.1151554829412,None,347.1151554829412,None,347.1151554829412,None,351.0999767692265,None,351.0999767692265,None,351.0999767692265,None,351.0999767692265,None,351.0999767692265,None,351.0999767692265,None,351.0999767692265,None,352.10039434705686,None,,,,,,,,,,,,,,,,,,,,,,,,,,,,,,24238,2019_Nov_22_1325,Mmi_3levels,3.1.5,59.97697006457228,
,,,1,1,12.3,,,,,,,,,0,0,0,0,0,26,26,12,,,,,,,,,,,,,,,,,,,,,,,,,,,,,,,,,,,,,,,,,,,,,,,,,,,,,,,,,,,True,False,False,0.96,-0.040000000000000036,-0.8900000000000005,-0.21416666666666684,12.3,12.085833333333333,6.042916666666667,gamble,lose,12.085833333333333,166.22583333333333,354.11779694262077,None,354.11779694262077,None,354.11779694262077,None,354.11779694262077,None,354.11779694262077,None,354.11779694262077,None,354.11779694262077,None,1,1.6342107907257741,354.11779694262077,None,355.785108695025,None,355.785108695025,None,355.785108695025,None,355.785108695025,None,355.785108695025,None,355.785108695025,None,355.785108695025,None,359.78666605229955,None,359.78666605229955,None,359.78666605229955,None,359.78666605229955,None,359.78666605229955,None,359.78666605229955,None,359.78666605229955,None,369.2736219452054,None,360.7703174807393,None,361.7707472179027,None,0.95,7.502839529159246,364.77192859514616,None,None,364.77192859514616,None,,,,,,,,,,,,,,,,,,,24238,2019_Nov_22_1325,Mmi_3levels,3.1.5,59.97697006457228,
,,,2,0,0.5,,,,,,,,,0,1,1,1,0,0,0,0,,,,,,,,,,,,,,,,,,,,,,,,,,,,,,,,,,,,,,,,,,,,,,,,374.42554091526836,None,0.94,7.501757986625307,377.44331565106404,None,None,377.44331565106404,None,381.9283346868615,None,False,True,False,0.94,0.94,0.94,-14.1,0.5,-13.6,-6.55,gamble,lose,-13.6,152.62583333333333,384.9629072503594,None,384.9629072503594,None,384.9629072503594,None,384.9629072503594,None,384.9629072503594,None,384.9629072503594,None,384.9629072503594,None,1,2.784434170855093,384.9629072503594,None,387.78060909404303,None,387.78060909404303,None,387.78060909404303,None,387.78060909404303,None,387.78060909404303,None,387.78060909404303,None,387.78060909404303,None,391.7821952497907,None,391.7821952497907,None,391.7821952497907,None,391.7821952497907,None,391.7821952497907,None,391.7821952497907,None,391.7821952497907,None,392.7659298737999,None,,,,,,,,,,,,371.27433262745035,None,4,3.1347387626883574,371.27433262745035,None,,,,,,,,,,,,,24238,2019_Nov_22_1325,Mmi_3levels,3.1.5,59.97697006457228,
,,,2,0,13.9,,,,,,,,,0,1,1,1,0,1,1,9,,,,,,,,,,,,,,,,,,,,,,,,,,,,,,,,,,,,,,,,,,,,,,,,,,,,,,,,,,,False,True,False,0.94,0.94,1.88,-15.04,13.9,-1.1399999999999988,-0.5699999999999994,certain,certain,-0.5699999999999994,152.05583333333334,394.7832918315398,None,394.7832918315398,None,394.7832918315398,None,394.7832918315398,None,394.7832918315398,None,394.7832918315398,None,394.7832918315398,None,3,2.317851915708161,394.7832918315398,None,397.13420471103746,None,397.13420471103746,None,397.13420471103746,None,397.13420471103746,None,397.13420471103746,None,397.13420471103746,None,397.13420471103746,None,401.1191005533765,None,401.1191005533765,None,401.1191005533765,None,401.1191005533765,None,401.1191005533765,None,401.1191005533765,None,401.1191005533765,None,410.6227195611282,None,402.11943653553317,None,403.1198265948042,None,0.89,7.502753773718723,406.120985573245,None,None,406.120985573245,None,,,,,,,,,,,,,,,,,,,24238,2019_Nov_22_1325,Mmi_3levels,3.1.5,59.97697006457228,
,,,2,0,10.3,,,,,,,,,0,1,1,1,0,2,2,20,,,,,,,,,,,,,,,,,,,,,,,,,,,,,,,,,,,,,,,,,,,,,,,,,,,,,,,,,,,False,False,False,0.89,0.89,2.77,3.3458333333333337,2.575,-0.7708333333333335,0.9020833333333333,gamble,win,2.575,154.63083333333333,412.6401624745631,None,412.6401624745631,None,412.6401624745631,None,412.6401624745631,None,412.6401624745631,None,412.6401624745631,None,412.6401624745631,None,None,,412.6401624745631,None,415.6412667359109,None,415.6412667359109,None,415.6412667359109,None,415.6412667359109,None,415.6412667359109,None,415.6412667359109,None,415.6412667359109,None,419.64275337693107,None,419.64275337693107,None,419.64275337693107,None,419.64275337693107,None,419.64275337693107,None,419.64275337693107,None,419.64275337693107,None,420.62654175810167,None,,,,,,,,,,,,,,,,,,,,,,,,,,,,,,24238,2019_Nov_22_1325,Mmi_3levels,3.1.5,59.97697006457228,
,,,2,0,0.1,,,,,,,,,0,1,1,1,0,3,3,17,,,,,,,,,,,,,,,,,,,,,,,,,,,,,,,,,,,,,,,,,,,,,,,,,,,,,,,,,,,False,True,True,0.89,0.89,3.66,-16.12,0.1,-16.02,-7.96,certain,certain,-7.96,146.67083333333332,422.6439357141353,None,422.6439357141353,None,422.6439357141353,None,422.6439357141353,None,422.6439357141353,None,422.6439357141353,None,422.6439357141353,None,3,2.7346224168577464,422.6439357141353,None,425.411697490621,None,425.411697490621,None,425.411697490621,None,425.411697490621,None,425.411697490621,None,425.411697490621,None,425.411697490621,None,429.413187651473,None,429.413187651473,None,429.413187651473,None,429.413187651473,None,429.413187651473,None,429.413187651473,None,429.413187651473,None,438.9001381046546,None,430.39681956094864,None,431.3973238541512,None,0.92,7.5027505738980835,434.3983788381156,None,None,434.3983788381156,None,,,,,,,,,,,,,,,,,,,24238,2019_Nov_22_1325,Mmi_3levels,3.1.5,59.97697006457228,
,,,2,0,10.1,,,,,,,,,0,1,1,1,0,4,4,11,,,,,,,,,,,,,,,,,,,,,,,,,,,,,,,,,,,,,,,,,,,,,,,,,,,,,,,,,,,False,True,True,0.92,0.92,4.58,-17.46,10.1,-7.360000000000001,1.3699999999999992,certain,certain,1.3699999999999992,148.04083333333332,440.9175730185234,None,440.9175730185234,None,440.9175730185234,None,440.9175730185234,None,440.9175730185234,None,440.9175730185234,None,440.9175730185234,None,3,1.784243460992002,440.9175730185234,None,442.7349075217062,None,442.7349075217062,None,442.7349075217062,None,442.7349075217062,None,442.7349075217062,None,442.7349075217062,None,442.7349075217062,None,446.7364626391063,None,446.7364626391063,None,446.7364626391063,None,446.7364626391063,None,446.7364626391063,None,446.7364626391063,None,446.7364626391063,None,447.7202139022411,None,,,,,,,,,,,,,,,,,,,,,,,,,,,,,,24238,2019_Nov_22_1325,Mmi_3levels,3.1.5,59.97697006457228,
,,,2,0,5.3,,,,,,,,,0,1,1,1,0,5,5,24,,,,,,,,,,,,,,,,,,,,,,,,,,,,,,,,,,,,,,,,,,,,,,,,,,,,,,,,,,,False,False,True,0.92,0.92,5.5,3.6783333333333337,1.325,-2.3533333333333335,-0.5141666666666668,gamble,win,1.325,149.3658333333333,449.7375812996761,None,449.7375812996761,None,449.7375812996761,None,449.7375812996761,None,449.7375812996761,None,449.7375812996761,None,449.7375812996761,None,1,2.1844423624279443,449.7375812996761,None,451.95511790413,None,451.95511790413,None,451.95511790413,None,451.95511790413,None,451.95511790413,None,451.95511790413,None,451.95511790413,None,455.94001150658005,None,455.94001150658005,None,455.94001150658005,None,455.94001150658005,None,455.94001150658005,None,455.94001150658005,None,455.94001150658005,None,456.94035228848225,None,,,,,,,,,,,,,,,,,,,,,,,,,,,,,,24238,2019_Nov_22_1325,Mmi_3levels,3.1.5,59.97697006457228,
,,,2,0,10.9,,,,,,,,,0,1,1,1,0,6,6,1,,,,,,,,,,,,,,,,,,,,,,,,,,,,,,,,,,,,,,,,,,,,,,,,,,,,,,,,,,,False,True,False,0.92,0.92,6.42,-19.3,10.9,-8.4,1.25,certain,certain,1.25,150.6158333333333,458.95778880226135,None,458.95778880226135,None,458.95778880226135,None,458.95778880226135,None,458.95778880226135,None,458.95778880226135,None,458.95778880226135,None,3,1.7009477256651735,458.95778880226135,None,460.69182629018906,None,460.69182629018906,None,460.69182629018906,None,460.69182629018906,None,460.69182629018906,None,460.69182629018906,None,460.69182629018906,None,464.693302371772,None,464.693302371772,None,464.693302371772,None,464.693302371772,None,464.693302371772,None,464.693302371772,None,464.693302371772,None,474.18026466433366,None,465.6770171568496,None,466.6774056162103,None,0.95,7.502749293955276,469.67857483410626,None,None,469.67857483410626,None,,,,,,,,,,,,,,,,,,,24238,2019_Nov_22_1325,Mmi_3levels,3.1.5,59.97697006457228,
,,,2,0,12.5,,,,,,,,,0,1,1,1,0,7,7,2,,,,,,,,,,,,,,,,,,,,,,,,,,,,,,,,,,,,,,,,,,,,,,,,,,,,,,,,,,,False,True,True,0.95,0.95,7.37,-20.669999999999998,12.5,-8.169999999999998,-4.084999999999999,gamble,lose,-8.169999999999998,142.44583333333333,476.1977027780231,None,476.1977027780231,None,476.1977027780231,None,476.1977027780231,None,476.1977027780231,None,476.1977027780231,None,476.1977027780231,None,1,2.851341336747282,476.1977027780231,None,479.08213003724813,None,479.08213003724813,None,479.08213003724813,None,479.08213003724813,None,479.08213003724813,None,479.08213003724813,None,479.08213003724813,None,483.08364611672005,None,483.08364611672005,None,483.08364611672005,None,483.08364611672005,None,483.08364611672005,None,483.08364611672005,None,483.08364611672005,None,484.06741529889405,None,,,,,,,,,,,,,,,,,,,,,,,,,,,,,,24238,2019_Nov_22_1325,Mmi_3levels,3.1.5,59.97697006457228,
,,,2,0,4.3,,,,,,,,,0,1,1,1,0,8,8,13,,,,,,,,,,,,,,,,,,,,,,,,,,,,,,,,,,,,,,,,,,,,,,,,,,,,,,,,,,,False,True,True,0.95,0.95,8.32,-21.619999999999997,4.3,-17.319999999999997,-6.509999999999998,certain,certain,-6.509999999999998,135.93583333333333,486.0848082949815,None,486.0848082949815,None,486.0848082949815,None,486.0848082949815,None,486.0848082949815,None,486.0848082949815,None,486.0848082949815,None,3,1.2340682062931592,486.0848082949815,None,487.35195538413245,None,487.35195538413245,None,487.35195538413245,None,487.35195538413245,None,487.35195538413245,None,487.35195538413245,None,487.35195538413245,None,491.3534775432636,None,491.3534775432636,None,491.3534775432636,None,491.3534775432636,None,491.3534775432636,None,491.3534775432636,None,491.3534775432636,None,500.8404782337893,None,492.3371452908468,None,493.33757246815367,None,0.93,7.502785772026982,496.338624892247,None,None,496.338624892247,None,,,,,,,,,,,,,,,,,,,24238,2019_Nov_22_1325,Mmi_3levels,3.1.5,59.97697006457228,
,,,2,0,4.9,,,,,,,,,0,1,1,1,0,9,9,23,,,,,,,,,,,,,,,,,,,,,,,,,,,,,,,,,,,,,,,,,,,,,,,,,,,,,,,,,,,False,True,True,0.93,0.93,9.25,-22.270000000000003,4.9,-17.370000000000005,-6.235000000000002,certain,certain,-6.235000000000002,129.70083333333332,502.8578657901671,None,502.8578657901671,None,502.8578657901671,None,502.8578657901671,None,502.8578657901671,None,502.8578657901671,None,502.8578657901671,None,3,1.5008255561406258,502.8578657901671,None,504.39178910816554,None,504.39178910816554,None,504.39178910816554,None,504.39178910816554,None,504.39178910816554,None,504.39178910816554,None,504.39178910816554,None,508.39335286509595,None,508.39335286509595,None,508.39335286509595,None,508.39335286509595,None,508.39335286509595,None,508.39335286509595,None,508.39335286509595,None,509.377022532557,None,,,,,,,,,,,,,,,,,,,,,,,,,,,,,,24238,2019_Nov_22_1325,Mmi_3levels,3.1.5,59.97697006457228,
,,,2,0,11.5,,,,,,,,,0,1,1,1,0,10,10,10,,,,,,,,,,,,,,,,,,,,,,,,,,,,,,,,,,,,,,,,,,,,,,,,,,,,,,,,,,,False,False,False,0.93,0.93,10.18,4.1033333333333335,2.875,-1.2283333333333335,0.8233333333333333,gamble,win,2.875,132.57583333333332,511.39448112515674,None,511.39448112515674,None,511.39448112515674,None,511.39448112515674,None,511.39448112515674,None,511.39448112515674,None,511.39448112515674,None,1,1.4339315095567144,511.39448112515674,None,512.861687667144,None,512.861687667144,None,512.861687667144,None,512.861687667144,None,512.861687667144,None,512.861687667144,None,512.861687667144,None,516.8465390318452,None,516.8465390318452,None,516.8465390318452,None,516.8465390318452,None,516.8465390318452,None,516.8465390318452,None,516.8465390318452,None,517.8469137319335,None,,,,,,,,,,,,,,,,,,,,,,,,,,,,,,24238,2019_Nov_22_1325,Mmi_3levels,3.1.5,59.97697006457228,
,,,2,0,7.5,,,,,,,,,0,1,1,1,0,11,11,15,,,,,,,,,,,,,,,,,,,,,,,,,,,,,,,,,,,,,,,,,,,,,,,,,,,,,,,,,,,False,False,True,0.93,0.93,11.11,4.180833333333334,1.875,-2.305833333333334,-0.21541666666666703,certain,certain,-0.21541666666666703,132.36041666666665,519.8643598452036,None,519.8643598452036,None,519.8643598452036,None,519.8643598452036,None,519.8643598452036,None,519.8643598452036,None,519.8643598452036,None,3,2.217739153697039,519.8643598452036,None,522.1151718020701,None,522.1151718020701,None,522.1151718020701,None,522.1151718020701,None,522.1151718020701,None,522.1151718020701,None,522.1151718020701,None,526.1000558050291,None,526.1000558050291,None,526.1000558050291,None,526.1000558050291,None,526.1000558050291,None,526.1000558050291,None,526.1000558050291,None,535.6036949717236,None,527.1004919418629,None,528.1008340036933,None,0.93,7.502918884943938,531.1019667435176,None,None,531.1019667435176,None,,,,,,,,,,,,,,,,,,,24238,2019_Nov_22_1325,Mmi_3levels,3.1.5,59.97697006457228,
,,,2,0,8.7,,,,,,,,,0,1,1,1,0,12,12,5,,,,,,,,,,,,,,,,,,,,,,,,,,,,,,,,,,,,,,,,,,,,,,,,,,,,,,,,,,,False,False,True,0.93,0.93,12.04,4.258333333333334,2.175,-2.083333333333334,0.04583333333333295,certain,certain,0.04583333333333295,132.40624999999997,537.6211276457034,None,537.6211276457034,None,537.6211276457034,None,537.6211276457034,None,537.6211276457034,None,537.6211276457034,None,537.6211276457034,None,3,1.3842208701971686,537.6211276457034,None,539.0383749215252,None,539.0383749215252,None,539.0383749215252,None,539.0383749215252,None,539.0383749215252,None,539.0383749215252,None,539.0383749215252,None,543.0399265191081,None,543.0399265191081,None,543.0399265191081,None,543.0399265191081,None,543.0399265191081,None,543.0399265191081,None,543.0399265191081,None,544.0236147455871,None,,,,,,,,,,,,,,,,,,,,,,,,,,,,,,24238,2019_Nov_22_1325,Mmi_3levels,3.1.5,59.97697006457228,
,,,2,0,9.3,,,,,,,,,0,1,1,1,0,13,13,4,,,,,,,,,,,,,,,,,,,,,,,,,,,,,,,,,,,,,,,,,,,,,,,,,,,,,,,,,,,False,True,True,0.93,0.93,12.969999999999999,-25.990000000000002,9.3,-16.69,-3.6950000000000003,gamble,lose,-16.69,115.71624999999997,546.0409690237284,None,546.0409690237284,None,546.0409690237284,None,546.0409690237284,None,546.0409690237284,None,546.0409690237284,None,546.0409690237284,None,None,,546.0409690237284,None,549.0421568006277,None,549.0421568006277,None,549.0421568006277,None,549.0421568006277,None,549.0421568006277,None,549.0421568006277,None,549.0421568006277,None,553.0437423164112,None,553.0437423164112,None,553.0437423164112,None,553.0437423164112,None,553.0437423164112,None,553.0437423164112,None,553.0437423164112,None,562.5305910150055,None,554.027391504962,None,555.0278151624516,None,0.87,7.502753453736659,558.0289277433621,None,None,558.0289277433621,None,,,,,,,,,,,,,,,,,,,24238,2019_Nov_22_1325,Mmi_3levels,3.1.5,59.97697006457228,
,,,2,0,11.9,,,,,,,,,0,1,1,1,0,14,14,12,,,,,,,,,,,,,,,,,,,,,,,,,,,,,,,,,,,,,,,,,,,,,,,,,,,,,,,,,,,False,True,True,0.87,0.87,13.839999999999998,-26.019999999999996,11.9,-14.119999999999996,-1.1099999999999977,certain,certain,-1.1099999999999977,114.60624999999997,564.5481196838809,None,564.5481196838809,None,564.5481196838809,None,564.5481196838809,None,564.5481196838809,None,564.5481196838809,None,564.5481196838809,None,3,1.6174772796075558,564.5481196838809,None,566.1986806460773,None,566.1986806460773,None,566.1986806460773,None,566.1986806460773,None,566.1986806460773,None,566.1986806460773,None,566.1986806460773,None,570.2002760813339,None,570.2002760813339,None,570.2002760813339,None,570.2002760813339,None,570.2002760813339,None,570.2002760813339,None,570.2002760813339,None,571.1839348693757,None,,,,,,,,,,,,,,,,,,,,,,,,,,,,,,24238,2019_Nov_22_1325,Mmi_3levels,3.1.5,59.97697006457228,
,,,2,0,12.9,,,,,,,,,0,1,1,1,0,15,15,7,,,,,,,,,,,,,,,,,,,,,,,,,,,,,,,,,,,,,,,,,,,,,,,,,,,,,,,,,,,False,True,False,0.87,0.87,14.709999999999997,-26.889999999999997,12.9,-13.989999999999997,-0.5449999999999982,certain,certain,-0.5449999999999982,114.06124999999997,573.2013739430113,None,573.2013739430113,None,573.2013739430113,None,573.2013739430113,None,573.2013739430113,None,573.2013739430113,None,573.2013739430113,None,3,1.5674773756036302,573.2013739430113,None,574.8019801188202,None,574.8019801188202,None,574.8019801188202,None,574.8019801188202,None,574.8019801188202,None,574.8019801188202,None,574.8019801188202,None,578.8035505953885,None,578.8035505953885,None,578.8035505953885,None,578.8035505953885,None,578.8035505953885,None,578.8035505953885,None,578.8035505953885,None,588.2905212075129,None,579.7872093834303,None,580.7876260012999,None,0.9,7.502828329757904,583.7886931446119,None,None,583.7886931446119,None,,,,,,,,,,,,,,,,,,,24238,2019_Nov_22_1325,Mmi_3levels,3.1.5,59.97697006457228,
,,,2,0,0.7,,,,,,,,,0,1,1,1,0,16,16,16,,,,,,,,,,,,,,,,,,,,,,,,,,,,,,,,,,,,,,,,,,,,,,,,,,,,,,,,,,,False,True,False,0.9,0.9,15.609999999999998,-28.209999999999997,0.7,-27.509999999999998,-13.405,certain,certain,-13.405,100.65624999999997,590.3078905248549,None,590.3078905248549,None,590.3078905248549,None,590.3078905248549,None,590.3078905248549,None,590.3078905248549,None,590.3078905248549,None,3,1.9843691503047012,590.3078905248549,None,592.3253305584367,None,592.3253305584367,None,592.3253305584367,None,592.3253305584367,None,592.3253305584367,None,592.3253305584367,None,592.3253305584367,None,596.3268571973458,None,596.3268571973458,None,596.3268571973458,None,596.3268571973458,None,596.3268571973458,None,596.3268571973458,None,596.3268571973458,None,597.3105662227172,None,,,,,,,,,,,,,,,,,,,,,,,,,,,,,,24238,2019_Nov_22_1325,Mmi_3levels,3.1.5,59.97697006457228,
,,,2,0,6.1,,,,,,,,,0,1,1,1,0,17,17,8,,,,,,,,,,,,,,,,,,,,,,,,,,,,,,,,,,,,,,,,,,,,,,,,,,,,,,,,,,,False,True,True,0.9,0.9,16.509999999999998,-29.11,6.1,-23.009999999999998,-8.454999999999998,certain,certain,-8.454999999999998,92.20124999999997,599.3280545737362,None,599.3280545737362,None,599.3280545737362,None,599.3280545737362,None,599.3280545737362,None,599.3280545737362,None,599.3280545737362,None,3,1.5675884096999653,599.3280545737362,None,600.9286178718176,None,600.9286178718176,None,600.9286178718176,None,600.9286178718176,None,600.9286178718176,None,600.9286178718176,None,600.9286178718176,None,604.9301413108915,None,604.9301413108915,None,604.9301413108915,None,604.9301413108915,None,604.9301413108915,None,604.9301413108915,None,604.9301413108915,None,605.9138874542987,None,,,,,,,,,,,,,,,,,,,,,,,,,,,,,,24238,2019_Nov_22_1325,Mmi_3levels,3.1.5,59.97697006457228,
,,,2,0,-0.1,,,,,,,,,0,1,1,1,0,18,18,14,,,,,,,,,,,,,,,,,,,,,,,,,,,,,,,,,,,,,,,,,,,,,,,,,,,,,,,,,,,False,True,True,0.9,0.9,17.409999999999997,-30.009999999999998,-0.1,-30.11,-15.105,gamble,lose,-30.11,62.091249999999974,607.9312567716406,None,607.9312567716406,None,607.9312567716406,None,607.9312567716406,None,607.9312567716406,None,607.9312567716406,None,607.9312567716406,None,None,,607.9312567716406,None,610.9324333491386,None,610.9324333491386,None,610.9324333491386,None,610.9324333491386,None,610.9324333491386,None,610.9324333491386,None,610.9324333491386,None,614.9339657477394,None,614.9339657477394,None,614.9339657477394,None,614.9339657477394,None,614.9339657477394,None,614.9339657477394,None,614.9339657477394,None,624.4209571587562,None,615.917661653817,None,616.9180488332495,None,0.82,7.502737454589806,619.9192199710378,None,None,619.9192199710378,None,,,,,,,,,,,,,,,,,,,24238,2019_Nov_22_1325,Mmi_3levels,3.1.5,59.97697006457228,
,,,2,0,6.7,,,,,,,,,0,1,1,1,0,19,19,21,,,,,,,,,,,,,,,,,,,,,,,,,,,,,,,,,,,,,,,,,,,,,,,,,,,,,,,,,,,False,True,False,0.82,0.82,18.229999999999997,-29.709999999999994,6.7,-23.009999999999994,-8.154999999999998,certain,certain,-8.154999999999998,53.93624999999997,626.4383475949726,None,626.4383475949726,None,626.4383475949726,None,626.4383475949726,None,626.4383475949726,None,626.4383475949726,None,626.4383475949726,None,3,1.734291554428637,626.4383475949726,None,628.2557073768257,None,628.2557073768257,None,628.2557073768257,None,628.2557073768257,None,628.2557073768257,None,628.2557073768257,None,628.2557073768257,None,632.2072120328958,None,632.2072120328958,None,632.2072120328958,None,632.2072120328958,None,632.2072120328958,None,632.2072120328958,None,632.2072120328958,None,633.190986974776,None,,,,,,,,,,,,,,,,,,,,,,,,,,,,,,24238,2019_Nov_22_1325,Mmi_3levels,3.1.5,59.97697006457228,
,,,2,0,10.5,,,,,,,,,0,1,1,1,0,20,20,18,,,,,,,,,,,,,,,,,,,,,,,,,,,,,,,,,,,,,,,,,,,,,,,,,,,,,,,,,,,False,False,True,0.82,0.82,19.049999999999997,4.4575,2.625,-1.8324999999999996,0.3962500000000002,gamble,win,2.625,56.56124999999997,635.2083607718669,None,635.2083607718669,None,635.2083607718669,None,635.2083607718669,None,635.2083607718669,None,635.2083607718669,None,635.2083607718669,None,1,1.7509738682711031,635.2083607718669,None,636.992376724942,None,636.992376724942,None,636.992376724942,None,636.992376724942,None,636.992376724942,None,636.992376724942,None,636.992376724942,None,640.9772648876824,None,640.9772648876824,None,640.9772648876824,None,640.9772648876824,None,640.9772648876824,None,640.9772648876824,None,640.9772648876824,None,650.4808496572659,None,641.9776107893122,None,642.9779768498702,None,0.91,7.502789931793814,645.9791214290744,None,None,645.9791214290744,None,,,,,,,,,,,,,,,,,,,24238,2019_Nov_22_1325,Mmi_3levels,3.1.5,59.97697006457228,
,,,2,0,2.7,,,,,,,,,0,1,1,1,0,21,21,3,,,,,,,,,,,,,,,,,,,,,,,,,,,,,,,,,,,,,,,,,,,,,,,,,,,,,,,,,,,False,True,True,0.91,0.91,19.959999999999997,-32.699999999999996,2.7,-29.999999999999996,-13.649999999999999,certain,certain,-13.649999999999999,42.911249999999974,652.4982871309912,None,652.4982871309912,None,652.4982871309912,None,652.4982871309912,None,652.4982871309912,None,652.4982871309912,None,652.4982871309912,None,3,1.5341623452986823,652.4982871309912,None,654.065553957771,None,654.065553957771,None,654.065553957771,None,654.065553957771,None,654.065553957771,None,654.065553957771,None,654.065553957771,None,658.067122834429,None,658.067122834429,None,658.067122834429,None,658.067122834429,None,658.067122834429,None,658.067122834429,None,658.067122834429,None,659.0507528240123,None,,,,,,,,,,,,,,,,,,,,,,,,,,,,,,24238,2019_Nov_22_1325,Mmi_3levels,3.1.5,59.97697006457228,
,,,2,0,8.5,,,,,,,,,0,1,1,1,0,22,22,25,,,,,,,,,,,,,,,,,,,,,,,,,,,,,,,,,,,,,,,,,,,,,,,,,,,,,,,,,,,False,True,True,0.91,0.91,20.869999999999997,-33.61,8.5,-25.11,-8.305,certain,certain,-8.305,34.606249999999974,661.0682267757948,None,661.0682267757948,None,661.0682267757948,None,661.0682267757948,None,661.0682267757948,None,661.0682267757948,None,661.0682267757948,None,3,1.5175520276388852,661.0682267757948,None,662.6188112887467,None,662.6188112887467,None,662.6188112887467,None,662.6188112887467,None,662.6188112887467,None,662.6188112887467,None,662.6188112887467,None,666.6037068110891,None,666.6037068110891,None,666.6037068110891,None,666.6037068110891,None,666.6037068110891,None,666.6037068110891,None,666.6037068110891,None,676.1073395781132,None,667.6040927105932,None,668.6044331725134,None,0.92,7.502797291410388,671.6055646324094,None,None,671.6055646324094,None,,,,,,,,,,,,,,,,,,,24238,2019_Nov_22_1325,Mmi_3levels,3.1.5,59.97697006457228,
,,,2,0,0.9,,,,,,,,,0,1,1,1,0,23,23,19,,,,,,,,,,,,,,,,,,,,,,,,,,,,,,,,,,,,,,,,,,,,,,,,,,,,,,,,,,,False,True,False,0.92,0.92,21.79,-34.67,0.9,-33.77,-16.435000000000002,gamble,lose,-33.77,0.8362499999999713,678.1247287344013,None,678.1247287344013,None,678.1247287344013,None,678.1247287344013,None,678.1247287344013,None,678.1247287344013,None,678.1247287344013,None,1,2.6178855779144214,678.1247287344013,None,680.7756922352273,None,680.7756922352273,None,680.7756922352273,None,680.7756922352273,None,680.7756922352273,None,680.7756922352273,None,680.7756922352273,None,684.7772748711577,None,684.7772748711577,None,684.7772748711577,None,684.7772748711577,None,684.7772748711577,None,684.7772748711577,None,684.7772748711577,None,685.7608975011244,None,,,,,,,,,,,,,,,,,,,,,,,,,,,,,,24238,2019_Nov_22_1325,Mmi_3levels,3.1.5,59.97697006457228,
,,,2,0,3.1,,,,,,,,,0,1,1,1,0,24,24,26,,,,,,,,,,,,,,,,,,,,,,,,,,,,,,,,,,,,,,,,,,,,,,,,,,,,,,,,,,,False,True,True,0.92,0.92,22.71,-35.59,3.1,-32.49,-14.695,certain,certain,-14.695,-13.858750000000029,687.7783989714371,None,687.7783989714371,None,687.7783989714371,None,687.7783989714371,None,687.7783989714371,None,687.7783989714371,None,687.7783989714371,None,3,1.2507892380817793,687.7783989714371,None,689.062240213796,None,689.062240213796,None,689.062240213796,None,689.062240213796,None,689.062240213796,None,689.062240213796,None,689.062240213796,None,693.063765892759,None,693.063765892759,None,693.063765892759,None,693.063765892759,None,693.063765892759,None,693.063765892759,None,693.063765892759,None,694.0474745981483,None,,,,,,,,,,,,,,,,,,,,,,,,,,,,,,24238,2019_Nov_22_1325,Mmi_3levels,3.1.5,59.97697006457228,
,,,2,0,13.7,,,,,,,,,0,1,1,1,0,25,25,22,,,,,,,,,,,,,,,,,,,,,,,,,,,,,,,,,,,,,,,,,,,,,,,,,,,,,,,,,,,False,True,False,0.92,0.92,23.630000000000003,-36.510000000000005,13.7,-22.810000000000006,-4.555000000000003,certain,certain,-4.555000000000003,-18.413750000000032,696.0649197514576,None,696.0649197514576,None,696.0649197514576,None,696.0649197514576,None,696.0649197514576,None,696.0649197514576,None,696.0649197514576,None,3,2.3509339983866084,696.0649197514576,None,698.44915086111,None,698.44915086111,None,698.44915086111,None,698.44915086111,None,698.44915086111,None,698.44915086111,None,698.44915086111,None,702.433959028087,None,702.433959028087,None,702.433959028087,None,702.433959028087,None,702.433959028087,None,702.433959028087,None,702.433959028087,None,711.93765771162,None,703.4343817256449,None,704.434809862898,None,0.93,7.502788331883494,707.4358955652278,None,None,707.4358955652278,None,,,,,,,,,,,,,,,,,,,24238,2019_Nov_22_1325,Mmi_3levels,3.1.5,59.97697006457228,
,,,2,0,8.3,,,,,,,,,0,1,1,1,0,26,26,6,,,,,,,,,,,,,,,,,,,,,,,,,,,,,,,,,,,,,,,,,,,,,,,,,,,,,,,,,,,False,True,True,0.93,0.93,24.560000000000002,-37.580000000000005,8.3,-29.280000000000005,-10.490000000000002,certain,certain,-10.490000000000002,-28.903750000000034,713.9550545475067,None,713.9550545475067,None,713.9550545475067,None,713.9550545475067,None,713.9550545475067,None,713.9550545475067,None,713.9550545475067,None,3,1.334090093136183,713.9550545475067,None,715.322249122124,None,715.322249122124,None,715.322249122124,None,715.322249122124,None,715.322249122124,None,715.322249122124,None,715.322249122124,None,719.3237648816139,None,719.3237648816139,None,719.3237648816139,None,719.3237648816139,None,719.3237648816139,None,719.3237648816139,None,719.3237648816139,None,720.3074886262038,None,,,,,,,,,,,,,,,,,,,,,,,,,,,,,,24238,2019_Nov_22_1325,Mmi_3levels,3.1.5,59.97697006457228,
,,,3,1,4.5,,,,,,,,,0,2,2,2,0,0,0,2,,,,,,,,,,,,,,,,,,,,,,,,,,,,,,,,,,,,,,,,,,,,,,,,748.5182454307942,None,0.94,7.502048211201327,751.5193724109413,None,None,751.5193724109413,None,756.0210955194052,None,True,True,True,0.94,-0.06000000000000005,-0.06000000000000005,0.9000000000000008,4.5,3.599999999999999,1.7999999999999996,gamble,win,4.5,-24.403750000000034,759.0555333700613,None,759.0555333700613,None,759.0555333700613,None,759.0555333700613,None,759.0555333700613,None,759.0555333700613,None,759.0555333700613,None,1,1.3175325726624578,759.0555333700613,None,760.4060878686141,None,760.4060878686141,None,760.4060878686141,None,760.4060878686141,None,760.4060878686141,None,760.4060878686141,None,760.4060878686141,None,764.3909673918097,None,764.3909673918097,None,764.3909673918097,None,764.3909673918097,None,764.3909673918097,None,764.3909673918097,None,764.3909673918097,None,773.8945512014325,None,765.3913004941132,None,766.3917564698932,None,0.94,7.5028020911559,769.3928578513878,None,None,769.3928578513878,None,722.3081938687392,None,4,26.193575317272916,722.3081938687392,None,,,,,,,,,,,,,24238,2019_Nov_22_1325,Mmi_3levels,3.1.5,59.97697006457228,
,,,3,1,13.3,,,,,,,,,0,2,2,2,0,1,1,19,,,,,,,,,,,,,,,,,,,,,,,,,,,,,,,,,,,,,,,,,,,,,,,,,,,,,,,,,,,True,True,False,0.94,-0.06000000000000005,-0.1200000000000001,0.9600000000000009,13.3,12.34,6.17,gamble,win,13.3,-11.103750000000034,775.912063551179,None,775.912063551179,None,775.912063551179,None,775.912063551179,None,775.912063551179,None,775.912063551179,None,775.912063551179,None,1,1.1506412779272068,775.912063551179,None,777.0958147503115,None,777.0958147503115,None,777.0958147503115,None,777.0958147503115,None,777.0958147503115,None,777.0958147503115,None,777.0958147503115,None,781.08065779545,None,781.08065779545,None,781.08065779545,None,781.08065779545,None,781.08065779545,None,781.08065779545,None,781.08065779545,None,782.0810340954631,None,,,,,,,,,,,,,,,,,,,,,,,,,,,,,,24238,2019_Nov_22_1325,Mmi_3levels,3.1.5,59.97697006457228,
,,,3,1,5.5,,,,,,,,,0,2,2,2,0,2,2,4,,,,,,,,,,,,,,,,,,,,,,,,,,,,,,,,,,,,,,,,,,,,,,,,,,,,,,,,,,,True,False,True,0.94,-0.06000000000000005,-0.18000000000000016,-0.2250000000000002,5.5,5.2749999999999995,2.6374999999999997,gamble,lose,5.2749999999999995,-5.828750000000034,784.0984786088084,None,784.0984786088084,None,784.0984786088084,None,784.0984786088084,None,784.0984786088084,None,784.0984786088084,None,784.0984786088084,None,1,0.7838671609788435,784.0984786088084,None,784.9155078482145,None,784.9155078482145,None,784.9155078482145,None,784.9155078482145,None,784.9155078482145,None,784.9155078482145,None,784.9155078482145,None,788.9003496134246,None,788.9003496134246,None,788.9003496134246,None,788.9003496134246,None,788.9003496134246,None,788.9003496134246,None,788.9003496134246,None,789.9007585517102,None,,,,,,,,,,,,,,,,,,,,,,,,,,,,,,24238,2019_Nov_22_1325,Mmi_3levels,3.1.5,59.97697006457228,
,,,3,1,11.5,,,,,,,,,0,2,2,2,0,3,3,20,,,,,,,,,,,,,,,,,,,,,,,,,,,,,,,,,,,,,,,,,,,,,,,,,,,,,,,,,,,True,True,True,0.94,-0.06000000000000005,-0.2400000000000002,1.080000000000001,11.5,10.419999999999998,5.209999999999999,gamble,win,11.5,5.671249999999966,791.9181230693066,None,791.9181230693066,None,791.9181230693066,None,791.9181230693066,None,791.9181230693066,None,791.9181230693066,None,791.9181230693066,None,1,0.9339836667932104,791.9181230693066,None,792.8852102576348,None,792.8852102576348,None,792.8852102576348,None,792.8852102576348,None,792.8852102576348,None,792.8852102576348,None,792.8852102576348,None,796.8866927388735,None,796.8866927388735,None,796.8866927388735,None,796.8866927388735,None,796.8866927388735,None,796.8866927388735,None,796.8866927388735,None,806.3736060740484,None,797.8704676807538,None,798.8708267016773,None,0.93,7.502884326779167,801.8718692063121,None,None,801.8718692063121,None,,,,,,,,,,,,,,,,,,,24238,2019_Nov_22_1325,Mmi_3levels,3.1.5,59.97697006457228,
,,,3,1,2.1,,,,,,,,,0,2,2,2,0,4,4,21,,,,,,,,,,,,,,,,,,,,,,,,,,,,,,,,,,,,,,,,,,,,,,,,,,,,,,,,,,,True,True,False,0.93,-0.06999999999999995,-0.31000000000000016,1.2899999999999996,2.1,0.8100000000000005,1.4550000000000003,gamble,win,2.1,7.7712499999999665,808.391090265286,None,808.391090265286,None,808.391090265286,None,808.391090265286,None,808.391090265286,None,808.391090265286,None,808.391090265286,None,1,1.634204391069943,808.391090265286,None,810.058396257984,None,810.058396257984,None,810.058396257984,None,810.058396257984,None,810.058396257984,None,810.058396257984,None,810.058396257984,None,814.059841621216,None,814.059841621216,None,814.059841621216,None,814.059841621216,None,814.059841621216,None,814.059841621216,None,814.059841621216,None,815.0436632806086,None,,,,,,,,,,,,,,,,,,,,,,,,,,,,,,24238,2019_Nov_22_1325,Mmi_3levels,3.1.5,59.97697006457228,
,,,3,1,4.7,,,,,,,,,0,2,2,2,0,5,5,9,,,,,,,,,,,,,,,,,,,,,,,,,,,,,,,,,,,,,,,,,,,,,,,,,,,,,,,,,,,True,True,True,0.93,-0.06999999999999995,-0.3800000000000001,1.3599999999999994,4.7,3.3400000000000007,1.6700000000000004,gamble,win,4.7,12.471249999999966,817.0610569166602,None,817.0610569166602,None,817.0610569166602,None,817.0610569166602,None,817.0610569166602,None,817.0610569166602,None,817.0610569166602,None,1,0.9673543741373578,817.0610569166602,None,818.0614373764402,None,818.0614373764402,None,818.0614373764402,None,818.0614373764402,None,818.0614373764402,None,818.0614373764402,None,818.0614373764402,None,822.0463165796536,None,822.0463165796536,None,822.0463165796536,None,822.0463165796536,None,822.0463165796536,None,822.0463165796536,None,822.0463165796536,None,831.5499202282372,None,823.0466720807744,None,824.0470563803683,None,0.95,7.502704496335355,827.0481520021567,None,None,827.0481520021567,None,,,,,,,,,,,,,,,,,,,24238,2019_Nov_22_1325,Mmi_3levels,3.1.5,59.97697006457228,
,,,3,1,13.1,,,,,,,,,0,2,2,2,0,6,6,6,,,,,,,,,,,,,,,,,,,,,,,,,,,,,,,,,,,,,,,,,,,,,,,,,,,,,,,,,,,True,True,False,0.95,-0.050000000000000044,-0.43000000000000016,1.1300000000000008,13.1,11.969999999999999,5.984999999999999,gamble,win,13.1,25.571249999999964,833.5673669814569,None,833.5673669814569,None,833.5673669814569,None,833.5673669814569,None,833.5673669814569,None,833.5673669814569,None,833.5673669814569,None,1,1.0839376212388743,833.5673669814569,None,834.6844231634459,None,834.6844231634459,None,834.6844231634459,None,834.6844231634459,None,834.6844231634459,None,834.6844231634459,None,834.6844231634459,None,838.6692975669139,None,838.6692975669139,None,838.6692975669139,None,838.6692975669139,None,838.6692975669139,None,838.6692975669139,None,838.6692975669139,None,839.6697212244035,None,,,,,,,,,,,,,,,,,,,,,,,,,,,,,,24238,2019_Nov_22_1325,Mmi_3levels,3.1.5,59.97697006457228,
,,,3,1,9.7,,,,,,,,,0,2,2,2,0,7,7,5,,,,,,,,,,,,,,,,,,,,,,,,,,,,,,,,,,,,,,,,,,,,,,,,,,,,,,,,,,,True,True,False,0.95,-0.050000000000000044,-0.4800000000000002,1.1800000000000008,9.7,8.519999999999998,4.259999999999999,gamble,win,9.7,35.27124999999997,841.6871126205806,None,841.6871126205806,None,841.6871126205806,None,841.6871126205806,None,841.6871126205806,None,841.6871126205806,None,841.6871126205806,None,1,0.983964371815091,841.6871126205806,None,842.7041529953858,None,842.7041529953858,None,842.7041529953858,None,842.7041529953858,None,842.7041529953858,None,842.7041529953858,None,842.7041529953858,None,846.6890257989435,None,846.6890257989435,None,846.6890257989435,None,846.6890257989435,None,846.6890257989435,None,846.6890257989435,None,846.6890257989435,None,856.1926457666559,None,847.6894049788098,None,848.6898235165718,None,0.96,7.502773292682832,851.6909674558119,None,None,851.6909674558119,None,,,,,,,,,,,,,,,,,,,24238,2019_Nov_22_1325,Mmi_3levels,3.1.5,59.97697006457228,
,,,3,1,8.1,,,,,,,,,0,2,2,2,0,8,8,11,,,,,,,,,,,,,,,,,,,,,,,,,,,,,,,,,,,,,,,,,,,,,,,,,,,,,,,,,,,True,True,True,0.96,-0.040000000000000036,-0.5200000000000002,1.0800000000000007,8.1,7.019999999999999,3.5099999999999993,gamble,win,8.1,43.37124999999997,858.2100934798364,None,858.2100934798364,None,858.2100934798364,None,858.2100934798364,None,858.2100934798364,None,858.2100934798364,None,858.2100934798364,None,1,1.2840495512937196,858.2100934798364,None,859.5272510324285,None,859.5272510324285,None,859.5272510324285,None,859.5272510324285,None,859.5272510324285,None,859.5272510324285,None,859.5272510324285,None,863.5120911977137,None,863.5120911977137,None,863.5120911977137,None,863.5120911977137,None,863.5120911977137,None,863.5120911977137,None,863.5120911977137,None,864.5124863767269,None,,,,,,,,,,,,,,,,,,,,,,,,,,,,,,24238,2019_Nov_22_1325,Mmi_3levels,3.1.5,59.97697006457228,
,,,3,1,0.3,,,,,,,,,0,2,2,2,0,9,9,18,,,,,,,,,,,,,,,,,,,,,,,,,,,,,,,,,,,,,,,,,,,,,,,,,,,,,,,,,,,True,True,True,0.96,-0.040000000000000036,-0.5600000000000003,1.1200000000000008,0.3,-0.8200000000000007,-0.26000000000000034,certain,certain,-0.26000000000000034,43.11124999999997,866.5299769676203,None,866.5299769676203,None,866.5299769676203,None,866.5299769676203,None,866.5299769676203,None,866.5299769676203,None,866.5299769676203,None,3,2.534492247767048,866.5299769676203,None,869.0975704970479,None,869.0975704970479,None,869.0975704970479,None,869.0975704970479,None,869.0975704970479,None,869.0975704970479,None,869.0975704970479,None,873.0991009757563,None,873.0991009757563,None,873.0991009757563,None,873.0991009757563,None,873.0991009757563,None,873.0991009757563,None,873.0991009757563,None,874.0827895222174,None,,,,,,,,,,,,,,,,,,,,,,,,,,,,,,24238,2019_Nov_22_1325,Mmi_3levels,3.1.5,59.97697006457228,
,,,3,1,3.7,,,,,,,,,0,2,2,2,0,10,10,1,,,,,,,,,,,,,,,,,,,,,,,,,,,,,,,,,,,,,,,,,,,,,,,,,,,,,,,,,,,True,True,True,0.96,-0.040000000000000036,-0.6000000000000003,1.1600000000000008,3.7,2.539999999999999,1.2699999999999996,gamble,win,3.7,46.81124999999997,876.100221556233,None,876.100221556233,None,876.100221556233,None,876.100221556233,None,876.100221556233,None,876.100221556233,None,876.100221556233,None,1,2.1342552683636313,876.100221556233,None,878.2677195387369,None,878.2677195387369,None,878.2677195387369,None,878.2677195387369,None,878.2677195387369,None,878.2677195387369,None,878.2677195387369,None,882.2525773030939,None,882.2525773030939,None,882.2525773030939,None,882.2525773030939,None,882.2525773030939,None,882.2525773030939,None,882.2525773030939,None,891.7562187096628,None,883.2529686423077,None,884.2534364574531,None,0.96,7.502742894299445,887.2544917613995,None,None,887.2544917613995,None,,,,,,,,,,,,,,,,,,,24238,2019_Nov_22_1325,Mmi_3levels,3.1.5,59.97697006457228,
,,,3,1,2.3,,,,,,,,,0,2,2,2,0,11,11,14,,,,,,,,,,,,,,,,,,,,,,,,,,,,,,,,,,,,,,,,,,,,,,,,,,,,,,,,,,,True,True,False,0.96,-0.040000000000000036,-0.6400000000000003,1.2000000000000008,2.3,1.099999999999999,1.6999999999999993,gamble,win,2.3,49.11124999999997,893.7736574633163,None,893.7736574633163,None,893.7736574633163,None,893.7736574633163,None,893.7736574633163,None,893.7736574633163,None,893.7736574633163,None,1,1.2340515671821777,893.7736574633163,None,895.0408045524528,None,895.0408045524528,None,895.0408045524528,None,895.0408045524528,None,895.0408045524528,None,895.0408045524528,None,895.0408045524528,None,899.0256978349353,None,899.0256978349353,None,899.0256978349353,None,899.0256978349353,None,899.0256978349353,None,899.0256978349353,None,899.0256978349353,None,900.0260366969305,None,,,,,,,,,,,,,,,,,,,,,,,,,,,,,,24238,2019_Nov_22_1325,Mmi_3levels,3.1.5,59.97697006457228,
,,,3,1,-0.9,,,,,,,,,0,2,2,2,0,12,12,24,,,,,,,,,,,,,,,,,,,,,,,,,,,,,,,,,,,,,,,,,,,,,,,,,,,,,,,,,,,True,False,False,0.96,-0.040000000000000036,-0.6800000000000004,-0.19666666666666682,-0.9,-1.096666666666667,-0.9983333333333335,gamble,lose,-1.096666666666667,48.014583333333306,902.0434341727814,None,902.0434341727814,None,902.0434341727814,None,902.0434341727814,None,902.0434341727814,None,902.0434341727814,None,902.0434341727814,None,1,2.767997283997829,902.0434341727814,None,904.8445506574644,None,904.8445506574644,None,904.8445506574644,None,904.8445506574644,None,904.8445506574644,None,904.8445506574644,None,904.8445506574644,None,908.8460616172088,None,908.8460616172088,None,908.8460616172088,None,908.8460616172088,None,908.8460616172088,None,908.8460616172088,None,908.8460616172088,None,918.3329887116415,None,909.8297725624725,None,910.8301399029588,None,0.95,7.502752813772531,913.8313276798726,None,None,913.8313276798726,None,,,,,,,,,,,,,,,,,,,24238,2019_Nov_22_1325,Mmi_3levels,3.1.5,59.97697006457228,
,,,3,1,6.9,,,,,,,,,0,2,2,2,0,13,13,25,,,,,,,,,,,,,,,,,,,,,,,,,,,,,,,,,,,,,,,,,,,,,,,,,,,,,,,,,,,True,True,True,0.95,-0.050000000000000044,-0.7300000000000004,1.430000000000001,6.9,5.469999999999999,2.7349999999999994,gamble,win,6.9,54.914583333333304,920.3504556237895,None,920.3504556237895,None,920.3504556237895,None,920.3504556237895,None,920.3504556237895,None,920.3504556237895,None,920.3504556237895,None,1,1.2007179778593127,920.3504556237895,None,921.5842499246355,None,921.5842499246355,None,921.5842499246355,None,921.5842499246355,None,921.5842499246355,None,921.5842499246355,None,921.5842499246355,None,925.5858226410928,None,925.5858226410928,None,925.5858226410928,None,925.5858226410928,None,925.5858226410928,None,925.5858226410928,None,925.5858226410928,None,926.5694935884967,None,,,,,,,,,,,,,,,,,,,,,,,,,,,,,,24238,2019_Nov_22_1325,Mmi_3levels,3.1.5,59.97697006457228,
,,,3,1,6.3,,,,,,,,,0,2,2,2,0,14,14,10,,,,,,,,,,,,,,,,,,,,,,,,,,,,,,,,,,,,,,,,,,,,,,,,,,,,,,,,,,,True,True,True,0.95,-0.050000000000000044,-0.7800000000000005,1.480000000000001,6.3,4.8199999999999985,2.4099999999999993,gamble,win,6.3,61.2145833333333,928.5869320221682,None,928.5869320221682,None,928.5869320221682,None,928.5869320221682,None,928.5869320221682,None,928.5869320221682,None,928.5869320221682,None,1,1.1673655095364666,928.5869320221682,None,929.7873808943259,None,929.7873808943259,None,929.7873808943259,None,929.7873808943259,None,929.7873808943259,None,929.7873808943259,None,929.7873808943259,None,933.788969289948,None,933.788969289948,None,933.788969289948,None,933.788969289948,None,933.788969289948,None,933.788969289948,None,933.788969289948,None,934.772657516427,None,,,,,,,,,,,,,,,,,,,,,,,,,,,,,,24238,2019_Nov_22_1325,Mmi_3levels,3.1.5,59.97697006457228,
,,,3,1,4.1,,,,,,,,,0,2,2,2,0,15,15,13,,,,,,,,,,,,,,,,,,,,,,,,,,,,,,,,,,,,,,,,,,,,,,,,,,,,,,,,,,,True,True,False,0.95,-0.050000000000000044,-0.8300000000000005,1.5300000000000011,4.1,2.5699999999999985,1.2849999999999993,gamble,win,4.1,65.3145833333333,936.7900121145503,None,936.7900121145503,None,936.7900121145503,None,936.7900121145503,None,936.7900121145503,None,936.7900121145503,None,936.7900121145503,None,1,1.3341377706092317,936.7900121145503,None,938.1572406073828,None,938.1572406073828,None,938.1572406073828,None,938.1572406073828,None,938.1572406073828,None,938.1572406073828,None,938.1572406073828,None,942.1421006116143,None,942.1421006116143,None,942.1421006116143,None,942.1421006116143,None,942.1421006116143,None,942.1421006116143,None,942.1421006116143,None,951.645767296839,None,943.1424849111936,None,944.1428573714074,None,0.96,7.502752813772531,947.1439651525725,None,None,947.1439651525725,None,,,,,,,,,,,,,,,,,,,24238,2019_Nov_22_1325,Mmi_3levels,3.1.5,59.97697006457228,
,,,3,1,6.5,,,,,,,,,0,2,2,2,0,16,16,15,,,,,,,,,,,,,,,,,,,,,,,,,,,,,,,,,,,,,,,,,,,,,,,,,,,,,,,,,,,True,True,False,0.96,-0.040000000000000036,-0.8700000000000006,1.430000000000001,6.5,5.0699999999999985,2.5349999999999993,gamble,win,6.5,71.8145833333333,953.6631647726899,None,953.6631647726899,None,953.6631647726899,None,953.6631647726899,None,953.6631647726899,None,953.6631647726899,None,953.6631647726899,None,1,0.9339395091374172,953.6631647726899,None,954.6302014036919,None,954.6302014036919,None,954.6302014036919,None,954.6302014036919,None,954.6302014036919,None,954.6302014036919,None,954.6302014036919,None,958.6317862795113,None,958.6317862795113,None,958.6317862795113,None,958.6317862795113,None,958.6317862795113,None,958.6317862795113,None,958.6317862795113,None,959.6154245886428,None,,,,,,,,,,,,,,,,,,,,,,,,,,,,,,24238,2019_Nov_22_1325,Mmi_3levels,3.1.5,59.97697006457228,
,,,3,1,5.7,,,,,,,,,0,2,2,2,0,17,17,16,,,,,,,,,,,,,,,,,,,,,,,,,,,,,,,,,,,,,,,,,,,,,,,,,,,,,,,,,,,True,False,False,0.96,-0.040000000000000036,-0.9100000000000006,-0.2158333333333335,5.7,5.484166666666667,2.7420833333333334,gamble,lose,5.484166666666667,77.29874999999997,961.6328678220598,None,961.6328678220598,None,961.6328678220598,None,961.6328678220598,None,961.6328678220598,None,961.6328678220598,None,961.6328678220598,None,1,0.9172690346604213,961.6328678220598,None,962.5832240591408,None,962.5832240591408,None,962.5832240591408,None,962.5832240591408,None,962.5832240591408,None,962.5832240591408,None,962.5832240591408,None,966.5680795836088,None,966.5680795836088,None,966.5680795836088,None,966.5680795836088,None,966.5680795836088,None,966.5680795836088,None,966.5680795836088,None,976.0717110707046,None,967.5684584434784,None,968.5688475428178,None,0.95,7.5028689675964415,971.5700126009324,None,None,971.5700126009324,None,,,,,,,,,,,,,,,,,,,24238,2019_Nov_22_1325,Mmi_3levels,3.1.5,59.97697006457228,
,,,3,1,5.9,,,,,,,,,0,2,2,2,0,18,18,26,,,,,,,,,,,,,,,,,,,,,,,,,,,,,,,,,,,,,,,,,,,,,,,,,,,,,,,,,,,True,True,False,0.95,-0.050000000000000044,-0.9600000000000006,1.6600000000000013,5.9,4.239999999999999,2.1199999999999997,gamble,win,5.9,83.19874999999998,978.0891210258851,None,978.0891210258851,None,978.0891210258851,None,978.0891210258851,None,978.0891210258851,None,978.0891210258851,None,978.0891210258851,None,1,1.2172278208599892,978.0891210258851,None,979.3396149196487,None,979.3396149196487,None,979.3396149196487,None,979.3396149196487,None,979.3396149196487,None,979.3396149196487,None,979.3396149196487,None,983.3244765238051,None,983.3244765238051,None,983.3244765238051,None,983.3244765238051,None,983.3244765238051,None,983.3244765238051,None,983.3244765238051,None,984.3248461041658,None,,,,,,,,,,,,,,,,,,,,,,,,,,,,,,24238,2019_Nov_22_1325,Mmi_3levels,3.1.5,59.97697006457228,
,,,3,1,11.7,,,,,,,,,0,2,2,2,0,19,19,22,,,,,,,,,,,,,,,,,,,,,,,,,,,,,,,,,,,,,,,,,,,,,,,,,,,,,,,,,,,True,False,True,0.95,-0.050000000000000044,-1.0100000000000007,-0.2591666666666669,11.7,11.440833333333332,5.720416666666666,gamble,lose,11.440833333333332,94.6395833333333,986.3422928574,None,986.3422928574,None,986.3422928574,None,986.3422928574,None,986.3422928574,None,986.3422928574,None,986.3422928574,None,1,1.017304680775851,986.3422928574,None,987.3926917802164,None,987.3926917802164,None,987.3926917802164,None,987.3926917802164,None,987.3926917802164,None,987.3926917802164,None,987.3926917802164,None,991.3775396250858,None,991.3775396250858,None,991.3775396250858,None,991.3775396250858,None,991.3775396250858,None,991.3775396250858,None,991.3775396250858,None,1000.8811707921996,None,992.3779210448265,None,993.378348862112,None,0.97,7.5027710527938325,996.3794332844991,None,None,996.3794332844991,None,,,,,,,,,,,,,,,,,,,24238,2019_Nov_22_1325,Mmi_3levels,3.1.5,59.97697006457228,
,,,3,1,3.5,,,,,,,,,0,2,2,2,0,20,20,12,,,,,,,,,,,,,,,,,,,,,,,,,,,,,,,,,,,,,,,,,,,,,,,,,,,,,,,,,,,True,True,False,0.97,-0.030000000000000027,-1.0400000000000007,1.460000000000001,3.5,2.039999999999999,1.0199999999999996,gamble,win,3.5,98.1395833333333,1002.8986028262152,None,1002.8986028262152,None,1002.8986028262152,None,1002.8986028262152,None,1002.8986028262152,None,1002.8986028262152,None,1002.8986028262152,None,1,0.9172719145135488,1002.8986028262152,None,1003.8489606632065,None,1003.8489606632065,None,1003.8489606632065,None,1003.8489606632065,None,1003.8489606632065,None,1003.8489606632065,None,1003.8489606632065,None,1007.8338168276532,None,1007.8338168276532,None,1007.8338168276532,None,1007.8338168276532,None,1007.8338168276532,None,1007.8338168276532,None,1007.8338168276532,None,1008.8342040070856,None,,,,,,,,,,,,,,,,,,,,,,,,,,,,,,24238,2019_Nov_22_1325,Mmi_3levels,3.1.5,59.97697006457228,
,,,3,1,3.3,,,,,,,,,0,2,2,2,0,21,21,7,,,,,,,,,,,,,,,,,,,,,,,,,,,,,,,,,,,,,,,,,,,,,,,,,,,,,,,,,,,True,False,False,0.97,-0.030000000000000027,-1.0700000000000007,-0.19416666666666682,3.3,3.105833333333333,1.5529166666666665,gamble,lose,3.105833333333333,101.24541666666664,1010.8516533201764,None,1010.8516533201764,None,1010.8516533201764,None,1010.8516533201764,None,1010.8516533201764,None,1010.8516533201764,None,1010.8516533201764,None,1,0.7004885500500677,1010.8516533201764,None,1011.5685704375355,None,1011.5685704375355,None,1011.5685704375355,None,1011.5685704375355,None,1011.5685704375355,None,1011.5685704375355,None,1011.5685704375355,None,1015.5701002762653,None,1015.5701002762653,None,1015.5701002762653,None,1015.5701002762653,None,1015.5701002762653,None,1015.5701002762653,None,1015.5701002762653,None,1016.5704864957515,None,,,,,,,,,,,,,,,,,,,,,,,,,,,,,,24238,2019_Nov_22_1325,Mmi_3levels,3.1.5,59.97697006457228,
,,,3,1,1.7,,,,,,,,,0,2,2,2,0,22,22,3,,,,,,,,,,,,,,,,,,,,,,,,,,,,,,,,,,,,,,,,,,,,,,,,,,,,,,,,,,,True,True,True,0.97,-0.030000000000000027,-1.1000000000000008,1.5200000000000011,1.7,0.17999999999999883,0.9399999999999994,gamble,win,1.7,102.94541666666665,1018.5879230095306,None,1018.5879230095306,None,1018.5879230095306,None,1018.5879230095306,None,1018.5879230095306,None,1018.5879230095306,None,1018.5879230095306,None,1,0.900593760467018,1018.5879230095306,None,1019.5216657291166,None,1019.5216657291166,None,1019.5216657291166,None,1019.5216657291166,None,1019.5216657291166,None,1019.5216657291166,None,1019.5216657291166,None,1023.5064665364916,None,1023.5064665364916,None,1023.5064665364916,None,1023.5064665364916,None,1023.5064665364916,None,1023.5064665364916,None,1023.5064665364916,None,1033.0100877841323,None,1024.5068837943254,None,1025.5072306559014,None,0.96,7.5028692875785055,1028.508279880174,None,None,1028.508279880174,None,,,,,,,,,,,,,,,,,,,24238,2019_Nov_22_1325,Mmi_3levels,3.1.5,59.97697006457228,
,,,3,1,5.1,,,,,,,,,0,2,2,2,0,23,23,0,,,,,,,,,,,,,,,,,,,,,,,,,,,,,,,,,,,,,,,,,,,,,,,,,,,,,,,,,,,True,False,True,0.96,-0.040000000000000036,-1.1400000000000008,-0.2350000000000002,5.1,4.864999999999999,2.4324999999999997,gamble,lose,4.864999999999999,107.81041666666664,1035.0275226979866,None,1035.0275226979866,None,1035.0275226979866,None,1035.0275226979866,None,1035.0275226979866,None,1035.0275226979866,None,1035.0275226979866,None,1,1.5175030702375807,1035.0275226979866,None,1036.5781152105192,None,1036.5781152105192,None,1036.5781152105192,None,1036.5781152105192,None,1036.5781152105192,None,1036.5781152105192,None,1036.5781152105192,None,1040.579680887342,None,1040.579680887342,None,1040.579680887342,None,1040.579680887342,None,1040.579680887342,None,1040.579680887342,None,1040.579680887342,None,1041.5633367955452,None,,,,,,,,,,,,,,,,,,,,,,,,,,,,,,24238,2019_Nov_22_1325,Mmi_3levels,3.1.5,59.97697006457228,
,,,3,1,3.9,,,,,,,,,0,2,2,2,0,24,24,23,,,,,,,,,,,,,,,,,,,,,,,,,,,,,,,,,,,,,,,,,,,,,,,,,,,,,,,,,,,True,False,True,0.96,-0.040000000000000036,-1.1800000000000008,-0.2383333333333335,3.9,3.661666666666666,1.830833333333333,gamble,lose,3.661666666666666,111.4720833333333,1043.5808462654386,None,1043.5808462654386,None,1043.5808462654386,None,1043.5808462654386,None,1043.5808462654386,None,1043.5808462654386,None,1043.5808462654386,None,1,1.10060905564751,1043.5808462654386,None,1044.6978819685028,None,1044.6978819685028,None,1044.6978819685028,None,1044.6978819685028,None,1044.6978819685028,None,1044.6978819685028,None,1044.6978819685028,None,1048.6993206120824,None,1048.6993206120824,None,1048.6993206120824,None,1048.6993206120824,None,1048.6993206120824,None,1048.6993206120824,None,1048.6993206120824,None,1058.2030832922173,None,1049.6997839474789,None,1050.700158007603,None,0.98,7.502694576862268,1053.7012968271156,None,None,1053.7012968271156,None,,,,,,,,,,,,,,,,,,,24238,2019_Nov_22_1325,Mmi_3levels,3.1.5,59.97697006457228,
,,,3,1,1.5,,,,,,,,,0,2,2,2,0,25,25,8,,,,,,,,,,,,,,,,,,,,,,,,,,,,,,,,,,,,,,,,,,,,,,,,,,,,,,,,,,,True,True,False,0.98,-0.020000000000000018,-1.2000000000000008,1.480000000000001,1.5,0.019999999999998908,0.7599999999999995,certain,certain,0.7599999999999995,112.2320833333333,1060.220465728853,None,1060.220465728853,None,1060.220465728853,None,1060.220465728853,None,1060.220465728853,None,1060.220465728853,None,1060.220465728853,None,3,1.8010025707480963,1060.220465728853,None,1062.0544630269287,None,1062.0544630269287,None,1062.0544630269287,None,1062.0544630269287,None,1062.0544630269287,None,1062.0544630269287,None,1062.0544630269287,None,1066.0394023869449,None,1066.0394023869449,None,1066.0394023869449,None,1066.0394023869449,None,1066.0394023869449,None,1066.0394023869449,None,1066.0394023869449,None,1067.0397383691015,None,,,,,,,,,,,,,,,,,,,,,,,,,,,,,,24238,2019_Nov_22_1325,Mmi_3levels,3.1.5,59.97697006457228,
,,,3,1,2.9,,,,,,,,,0,2,2,2,0,26,26,17,,,,,,,,,,,,,,,,,,,,,,,,,,,,,,,,,,,,,,,,,,,,,,,,,,,,,,,,,,,True,False,True,0.98,-0.020000000000000018,-1.2200000000000009,-0.1716666666666668,2.9,2.728333333333333,1.3641666666666665,gamble,lose,2.728333333333333,114.96041666666665,1069.0571720030275,None,1069.0571720030275,None,1069.0571720030275,None,1069.0571720030275,None,1069.0571720030275,None,1069.0571720030275,None,1069.0571720030275,None,1,1.3507682471972657,1069.0571720030275,None,1070.441033852272,None,1070.441033852272,None,1070.441033852272,None,1070.441033852272,None,1070.441033852272,None,1070.441033852272,None,1070.441033852272,None,1074.4259079357726,None,1074.4259079357726,None,1074.4259079357726,None,1074.4259079357726,None,1074.4259079357726,None,1074.4259079357726,None,1074.4259079357726,None,1083.9461388610944,None,1075.426269196585,None,1076.4266528562002,None,0.98,7.519425848091487,1079.4277779164404,None,None,1079.4277779164404,None,,,,,,,,,,,,,,,,,,,24238,2019_Nov_22_1325,Mmi_3levels,3.1.5,59.97697006457228,
,,,,,,,,,,,,,,,,,,,,,,,,,,,,,,0,0,0,0,,,,,,,,,,,,,,,,,,,,,,,,,,,,,,,,,,,,,,,,,,,,,,,,,,,,,,,,,,,,,,,,,,,,,,,,,,,,,,,,,,,,,,,,,,,,,,,,,,,,,,,,,,,,,,,,,,,,,,,,1085.9469359387585,None,4,4.4352268007496605,1085.9469359387585,None,114.96041666666665,3,1090.4153158584231,None,1090.4153158584231,None,1090.4153158584231,None,4,8.053284849505872,1090.4153158584231,None,24238,2019_Nov_22_1325,Mmi_3levels,3.1.5,59.97697006457228,
