currSlide,currImage,currText,blockNum,targetHappiness,highAmount,instructionLoop1.thisRepN,instructionLoop1.thisTrialN,instructionLoop1.thisN,instructionLoop1.thisIndex,instructionLoop2.thisRepN,instructionLoop2.thisTrialN,instructionLoop2.thisN,instructionLoop2.thisIndex,blockLoop.thisRepN,blockLoop.thisTrialN,blockLoop.thisN,blockLoop.thisIndex,trialLoop.thisRepN,trialLoop.thisTrialN,trialLoop.thisN,trialLoop.thisIndex,doRatingLoop.thisRepN,doRatingLoop.thisTrialN,doRatingLoop.thisN,doRatingLoop.thisIndex,trialHappyLoop.thisRepN,trialHappyLoop.thisTrialN,trialHappyLoop.thisN,trialHappyLoop.thisIndex,logWinningsLoop.thisRepN,logWinningsLoop.thisTrialN,logWinningsLoop.thisN,logWinningsLoop.thisIndex,instrImage.started,instrImage.stopped,instrText.started,instrText.stopped,instrContinueText.started,instrContinueText.stopped,instrKeyResp.keys,instrKeyResp.rt,instrKeyResp.started,instrKeyResp.stopped,lifeHappyText.started,lifeHappyText.stopped,lifeHappySlider.response,lifeHappySlider.rt,lifeHappySlider.started,lifeHappySlider.stopped,lifeHappyResp.keys,lifeHappyResp.started,lifeHappyResp.stopped,instrImage_2.started,instrImage_2.stopped,instrText_2.started,instrText_2.stopped,instrContinueText_2.started,instrContinueText_2.stopped,instrKeyResp_2.keys,instrKeyResp_2.rt,instrKeyResp_2.started,instrKeyResp_2.stopped,localizing.started,localizing.stopped,start_exp.keys,start_exp.rt,start_exp.started,start_exp.stopped,blockHappyText.started,blockHappyText.stopped,blockHappySlider.response,blockHappySlider.rt,blockHappySlider.started,blockHappySlider.stopped,blockHappyResp.keys,blockHappyResp.rt,blockHappyResp.started,blockHappyResp.stopped,blankText.started,blankText.stopped,isHappyBlock,isCongruent,isWinOnTop,lastHappyRating,diff,sumDiff,RPE,winAmount,loseAmount,certainAmount,choice,outcome,outcomeAmount,currentWinnings,fixCross.started,fixCross.stopped,certainBox.started,certainBox.stopped,outcome1Box.started,outcome1Box.stopped,outcome2Box.started,outcome2Box.stopped,certainText.started,certainText.stopped,outcome1Text.started,outcome1Text.stopped,outcome2Text.started,outcome2Text.stopped,choiceKey.keys,choiceKey.started,choiceKey.stopped,fixCross_2.started,fixCross_2.stopped,certainBox_2.started,certainBox_2.stopped,outcome1Box_2.started,outcome1Box_2.stopped,outcome2Box_2.started,outcome2Box_2.stopped,certainText_2.started,certainText_2.stopped,outcome1Text_2.started,outcome1Text_2.stopped,outcome2Text_2.started,outcome2Text_2.stopped,fixCross_3.started,fixCross_3.stopped,certainBox_3.started,certainBox_3.stopped,outcome1Box_3.started,outcome1Box_3.stopped,outcome2Box_3.started,outcome2Box_3.stopped,certainText_3.started,certainText_3.stopped,outcome1Text_3.started,outcome1Text_3.stopped,outcome2Text_3.started,outcome2Text_3.stopped,fixCross_ITI.started,fixCross_ITI.stopped,choiceKey.rt,fixCross_ISI.started,fixCross_ISI.stopped,happyText.started,happyText.stopped,happySlider.response,happySlider.rt,happySlider.started,happySlider.stopped,happyResp.keys,happyResp.started,happyResp.stopped,endOfBlockText.started,endOfBlockText.stopped,restKeyResp.keys,restKeyResp.rt,restKeyResp.started,restKeyResp.stopped,finalWinnings,cashBonus,goodbyeText.started,goodbyeText.stopped,finalWinningsText.started,finalWinningsText.stopped,spaceToContinue.started,spaceToContinue.stopped,goodbyeKeyResp_2.keys,goodbyeKeyResp_2.rt,goodbyeKeyResp_2.started,goodbyeKeyResp_2.stopped,participant,date,expName,psychopyVersion,frameRate,
1,black.png,"Welcome! You are about to play our gambling task.
This task has 3 blocks and takes about 15 minutes.",,,,0,0,0,0,,,,,,,,,,,,,,,,,,,,,,,,,14.464611535076983,None,14.464611535076983,None,14.464611535076983,None,4,12.656146436114796,14.464611535076983,None,,,,,,,,,,,,,,,,,,,,,,,,,,,,,,,,,,,,,,,,,,,,,,,,,,,,,,,,,,,,,,,,,,,,,,,,,,,,,,,,,,,,,,,,,,,,,,,,,,,,,,,,,,,,,,,,,,,,,,,,,,,,,,,,,24185,2019_Oct_21_1612,Mmi_3levels,3.1.5,59.97100451762503,
2,black.png,"In this game, you may win or lose points. Your goal is to get as many points as possible. These points will be converted to a cash bonus at the end.
Sometimes we will ask you to rate your mood.",,,,0,1,1,1,,,,,,,,,,,,,,,,,,,,,,,,,27.17055598308798,None,27.17055598308798,None,27.17055598308798,None,4,6.719418850378133,27.17055598308798,None,,,,,,,,,,,,,,,,,,,,,,,,,,,,,,,,,,,,,,,,,,,,,,,,,,,,,,,,,,,,,,,,,,,,,,,,,,,,,,,,,,,,,,,,,,,,,,,,,,,,,,,,,,,,,,,,,,,,,,,,,,,,,,,,,24185,2019_Oct_21_1612,Mmi_3levels,3.1.5,59.97100451762503,
3,black.png,"On the next screen, please rate how you feel about your life these days. Use the LEFT (green) and RIGHT (blue) buttons to move the slider (you can press and hold them to slide gradually) and the TOP (red) button to lock in your response.
Make your rating as accurately and quickly as you can!",,,,0,2,2,2,,,,,,,,,,,,,,,,,,,,,,,,,33.93975204671733,None,33.93975204671733,None,33.93975204671733,None,4,9.43720579741057,33.93975204671733,None,,,,,,,,,,,,,,,,,,,,,,,,,,,,,,,,,,,,,,,,,,,,,,,,,,,,,,,,,,,,,,,,,,,,,,,,,,,,,,,,,,,,,,,,,,,,,,,,,,,,,,,,,,,,,,,,,,,,,,,,,,,,,,,,,24185,2019_Oct_21_1612,Mmi_3levels,3.1.5,59.97100451762503,
,,,,,,,,,,,,,,,,,,,,,,,,,,,,,,,,,,,,,,,,,,,,43.393363592913374,None,0.84,10.502777275512926,47.39482366642915,None,None,47.39482366642915,None,,,,,,,,,,,,,,,,,,,,,,,,,,,,,,,,,,,,,,,,,,,,,,,,,,,,,,,,,,,,,,,,,,,,,,,,,,,,,,,,,,,,,,,,,,,,,,,,,,,,,,,,,,,,,,,,,,,,,,,,24185,2019_Oct_21_1612,Mmi_3levels,3.1.5,59.97100451762503,
4,black.png,"In this game you can win money by earning points according to your choices. You will decide whether to gamble a number of points or stick with a guaranteed number of points. 
Make your choice by pressing the left or right arrow key once. An example of one trial is shown on the next screen.",,,,,,,,0,0,0,0,,,,,,,,,,,,,,,,,,,,,,,,,,,,,,,,,,,,,,,,53.94727544137277,None,53.94727544137277,None,53.94727544137277,None,4,9.737306111492217,53.94727544137277,None,,,,,,,,,,,,,,,,,,,,,,,,,,,,,,,,,,,,,,,,,,,,,,,,,,,,,,,,,,,,,,,,,,,,,,,,,,,,,,,,,,,,,,,,,,,,,,,,,,,,,,,,,,,,,,24185,2019_Oct_21_1612,Mmi_3levels,3.1.5,59.97100451762503,
5,example_start.png,"The GAMBLING OPTION will be shown on the RIGHT SIDE. 
Select this option using the RIGHT (blue) button on your keypad.",,,,,,,,0,1,1,1,,,,,,,,,,,,,,,,,,,,,,,,,,,,,,,,,,,,,,,,63.75097570230719,None,63.75097570230719,None,63.75097570230719,None,4,6.436040106462315,63.75097570230719,None,,,,,,,,,,,,,,,,,,,,,,,,,,,,,,,,,,,,,,,,,,,,,,,,,,,,,,,,,,,,,,,,,,,,,,,,,,,,,,,,,,,,,,,,,,,,,,,,,,,,,,,,,,,,,,24185,2019_Oct_21_1612,Mmi_3levels,3.1.5,59.97100451762503,
6,example_gamble.png,"Once you select the gambling choice, the choice you made will remain on the screen.",,,,,,,,0,2,2,2,,,,,,,,,,,,,,,,,,,,,,,,,,,,,,,,,,,,,,,,70.22010568971746,None,70.22010568971746,None,70.22010568971746,None,4,5.669073030818254,70.22010568971746,None,,,,,,,,,,,,,,,,,,,,,,,,,,,,,,,,,,,,,,,,,,,,,,,,,,,,,,,,,,,,,,,,,,,,,,,,,,,,,,,,,,,,,,,,,,,,,,,,,,,,,,,,,,,,,,24185,2019_Oct_21_1612,Mmi_3levels,3.1.5,59.97100451762503,
7,example_win.png,"The outcome you received will then be shown on the screen. In this example , you WON 10 points.",,,,,,,,0,3,3,3,,,,,,,,,,,,,,,,,,,,,,,,,,,,,,,,,,,,,,,,75.92224460316356,None,75.92224460316356,None,75.92224460316356,None,4,4.135068163974211,75.92224460316356,None,,,,,,,,,,,,,,,,,,,,,,,,,,,,,,,,,,,,,,,,,,,,,,,,,,,,,,,,,,,,,,,,,,,,,,,,,,,,,,,,,,,,,,,,,,,,,,,,,,,,,,,,,,,,,,24185,2019_Oct_21_1612,Mmi_3levels,3.1.5,59.97100451762503,
8,example_start.png,"The GUARANTEED OPTION will be shown on the LEFT SIDE. You are 100% guaranteed to gain or lose this amount. In this example, you have a 100% chance of winning 1 point. Select this option using the LEFT (green) button on your keyboard.",,,,,,,,0,4,4,4,,,,,,,,,,,,,,,,,,,,,,,,,,,,,,,,,,,,,,,,80.10711877862923,None,80.10711877862923,None,80.10711877862923,None,4,5.919196783564985,80.10711877862923,None,,,,,,,,,,,,,,,,,,,,,,,,,,,,,,,,,,,,,,,,,,,,,,,,,,,,,,,,,,,,,,,,,,,,,,,,,,,,,,,,,,,,,,,,,,,,,,,,,,,,,,,,,,,,,,24185,2019_Oct_21_1612,Mmi_3levels,3.1.5,59.97100451762503,
9,example_certain.png,"Once you select the guaranteed choice, your selection will remain on the screen.",,,,,,,,0,5,5,5,,,,,,,,,,,,,,,,,,,,,,,,,,,,,,,,,,,,,,,,86.05938176461495,None,86.05938176461495,None,86.05938176461495,None,4,1.5508499497082084,86.05938176461495,None,,,,,,,,,,,,,,,,,,,,,,,,,,,,,,,,,,,,,,,,,,,,,,,,,,,,,,,,,,,,,,,,,,,,,,,,,,,,,,,,,,,,,,,,,,,,,,,,,,,,,,,,,,,,,,24185,2019_Oct_21_1612,Mmi_3levels,3.1.5,59.97100451762503,
10,black.png,"Please make your choices as fast as possible.
You will be given a break at the end of each block.
Let's play!",,,,,,,,0,6,6,6,,,,,,,,,,,,,,,,,,,,,,,,,,,,,,,,,,,,,,,,87.64331679570023,None,87.64331679570023,None,87.64331679570023,None,4,2.9513769585173577,87.64331679570023,None,,,,,,,,,,,,,,,,,,,,,,,,,,,,,,,,,,,,,,,,,,,,,,,,,,,,,,,,,,,,,,,,,,,,,,,,,,,,,,,,,,,,,,,,,,,,,,,,,,,,,,,,,,,,,,24185,2019_Oct_21_1612,Mmi_3levels,3.1.5,59.97100451762503,
,,,,,,,,,,,,,,,,,,,,,,,,,,,,,,,,,,,,,,,,,,,,,,,,,,,,,,,,,,,,,,,90.61110366263893,None,space,64.12428800214548,90.61110366263893,None,,,,,,,,,,,,,,,,,,,,,,,,,,,,,,,,,,,,,,,,,,,,,,,,,,,,,,,,,,,,,,,,,,,,,,,,,,,,,,,,,,,,,,,,,,,,,,,,,,,,,,,,24185,2019_Oct_21_1612,Mmi_3levels,3.1.5,59.97100451762503,
,,,1,1,8.1,,,,,,,,,0,0,0,0,0,0,0,22,,,,,,,,,,,,,,,,,,,,,,,,,,,,,,,,,,,,,,,,,,,,,,,,154.7518300516531,None,0.8,7.062793722609058,157.76966323598754,None,4,4.035139359766617,157.76966323598754,None,161.82114018849097,None,True,False,True,0.8,-0.19999999999999996,-0.19999999999999996,-0.7166666666666666,8.1,7.383333333333333,3.6916666666666664,gamble,lose,7.383333333333333,7.383333333333333,164.85566326475237,None,164.85566326475237,None,164.85566326475237,None,164.85566326475237,None,164.85566326475237,None,164.85566326475237,None,164.85566326475237,None,None,164.85566326475237,None,167.85679535777308,None,167.85679535777308,None,167.85679535777308,None,167.85679535777308,None,167.85679535777308,None,167.85679535777308,None,167.85679535777308,None,171.84162025607657,None,171.84162025607657,None,171.84162025607657,None,171.84162025607657,None,171.84162025607657,None,171.84162025607657,None,171.84162025607657,None,172.84199303400237,None,,,,,,,,,,,,,,,,,,,,,,,,,,,,,,,24185,2019_Oct_21_1612,Mmi_3levels,3.1.5,59.97100451762503,
,,,1,1,7.7,,,,,,,,,0,0,0,0,0,1,1,19,,,,,,,,,,,,,,,,,,,,,,,,,,,,,,,,,,,,,,,,,,,,,,,,,,,,,,,,,,,,True,False,True,0.8,-0.19999999999999996,-0.3999999999999999,-0.7333333333333332,7.7,6.966666666666667,3.4833333333333334,certain,certain,3.4833333333333334,10.866666666666667,174.85942656197585,None,174.85942656197585,None,174.85942656197585,None,174.85942656197585,None,174.85942656197585,None,174.85942656197585,None,174.85942656197585,None,3,174.85942656197585,None,177.61046018078923,None,177.61046018078923,None,177.61046018078923,None,177.61046018078923,None,177.61046018078923,None,177.61046018078923,None,177.61046018078923,None,181.59527387982234,None,181.59527387982234,None,181.59527387982234,None,181.59527387982234,None,181.59527387982234,None,181.59527387982234,None,181.59527387982234,None,182.59564889757894,None,2.7180042141117156,,,,,,,,,,,,,,,,,,,,,,,,,,,,,,24185,2019_Oct_21_1612,Mmi_3levels,3.1.5,59.97100451762503,
,,,1,1,2.7,,,,,,,,,0,0,0,0,0,2,2,23,,,,,,,,,,,,,,,,,,,,,,,,,,,,,,,,,,,,,,,,,,,,,,,,,,,,,,,,,,,,True,True,False,0.8,-0.19999999999999996,-0.5999999999999999,3.3999999999999995,2.7,-0.6999999999999993,1.0000000000000004,gamble,win,2.7,13.566666666666666,184.61308018572163,None,184.61308018572163,None,184.61308018572163,None,184.61308018572163,None,184.61308018572163,None,184.61308018572163,None,184.61308018572163,None,1,184.61308018572163,None,187.58086673275102,None,187.58086673275102,None,187.58086673275102,None,187.58086673275102,None,187.58086673275102,None,187.58086673275102,None,187.58086673275102,None,191.58237672329415,None,191.58237672329415,None,191.58237672329415,None,191.58237672329415,None,191.58237672329415,None,191.58237672329415,None,191.58237672329415,None,201.06927141919732,None,2.9347462630830705,192.56607624830212,None,193.56643878680188,None,0.82,7.502761916490272,196.56755872059148,None,None,196.56755872059148,None,,,,,,,,,,,,,,,,,,,24185,2019_Oct_21_1612,Mmi_3levels,3.1.5,59.97100451762503,
,,,1,1,2.5,,,,,,,,,0,0,0,0,0,3,3,17,,,,,,,,,,,,,,,,,,,,,,,,,,,,,,,,,,,,,,,,,,,,,,,,,,,,,,,,,,,,True,False,True,0.82,-0.18000000000000005,-0.7799999999999999,-0.6950000000000001,2.5,1.805,0.9025,gamble,lose,1.805,15.371666666666666,203.08670590701513,None,203.08670590701513,None,203.08670590701513,None,203.08670590701513,None,203.08670590701513,None,203.08670590701513,None,203.08670590701513,None,1,203.08670590701513,None,204.93738930660766,None,204.93738930660766,None,204.93738930660766,None,204.93738930660766,None,204.93738930660766,None,204.93738930660766,None,204.93738930660766,None,208.93889321759343,None,208.93889321759343,None,208.93889321759343,None,208.93889321759343,None,208.93889321759343,None,208.93889321759343,None,208.93889321759343,None,209.92259082267992,None,1.8176642342004925,,,,,,,,,,,,,,,,,,,,,,,,,,,,,,24185,2019_Oct_21_1612,Mmi_3levels,3.1.5,59.97100451762503,
,,,1,1,11.3,,,,,,,,,0,0,0,0,0,4,4,0,,,,,,,,,,,,,,,,,,,,,,,,,,,,,,,,,,,,,,,,,,,,,,,,,,,,,,,,,,,,True,True,True,0.82,-0.18000000000000005,-0.96,3.4800000000000004,11.3,7.82,3.91,gamble,win,11.3,26.671666666666667,211.93998403300066,None,211.93998403300066,None,211.93998403300066,None,211.93998403300066,None,211.93998403300066,None,211.93998403300066,None,211.93998403300066,None,1,211.93998403300066,None,213.30712997796945,None,213.30712997796945,None,213.30712997796945,None,213.30712997796945,None,213.30712997796945,None,213.30712997796945,None,213.30712997796945,None,217.30863420886453,None,217.30863420886453,None,217.30863420886453,None,217.30863420886453,None,217.30863420886453,None,217.30863420886453,None,217.30863420886453,None,226.7956053802045,None,1.3340586237609386,218.29236029228196,None,219.2927849071566,None,0.89,7.502769915969111,222.29385364393238,None,None,222.29385364393238,None,,,,,,,,,,,,,,,,,,,24185,2019_Oct_21_1612,Mmi_3levels,3.1.5,59.97100451762503,
,,,1,1,-0.5,,,,,,,,,0,0,0,0,0,5,5,12,,,,,,,,,,,,,,,,,,,,,,,,,,,,,,,,,,,,,,,,,,,,,,,,,,,,,,,,,,,,True,True,True,0.89,-0.10999999999999999,-1.0699999999999998,2.6099999999999994,-0.5,-3.1099999999999994,-1.8049999999999997,gamble,win,-0.5,26.171666666666667,228.81302386906464,None,228.81302386906464,None,228.81302386906464,None,228.81302386906464,None,228.81302386906464,None,228.81302386906464,None,228.81302386906464,None,None,228.81302386906464,None,231.8141572419554,None,231.8141572419554,None,231.8141572419554,None,231.8141572419554,None,231.8141572419554,None,231.8141572419554,None,231.8141572419554,None,235.815659552929,None,235.815659552929,None,235.815659552929,None,235.815659552929,None,235.815659552929,None,235.815659552929,None,235.815659552929,None,236.79941219487227,None,,,,,,,,,,,,,,,,,,,,,,,,,,,,,,,24185,2019_Oct_21_1612,Mmi_3levels,3.1.5,59.97100451762503,
,,,1,1,11.9,,,,,,,,,0,0,0,0,0,6,6,13,,,,,,,,,,,,,,,,,,,,,,,,,,,,,,,,,,,,,,,,,,,,,,,,,,,,,,,,,,,,True,True,False,0.89,-0.10999999999999999,-1.1799999999999997,2.7199999999999998,11.9,9.18,4.59,gamble,win,11.9,38.071666666666665,238.81678556627594,None,238.81678556627594,None,238.81678556627594,None,238.81678556627594,None,238.81678556627594,None,238.81678556627594,None,238.81678556627594,None,1,238.81678556627594,None,240.11720938119106,None,240.11720938119106,None,240.11720938119106,None,240.11720938119106,None,240.11720938119106,None,240.11720938119106,None,240.11720938119106,None,244.118735690834,None,244.118735690834,None,244.118735690834,None,244.118735690834,None,244.118735690834,None,244.118735690834,None,244.118735690834,None,245.1024774534162,None,1.2674686458194628,,,,,,,,,,,,,,,,,,,,,,,,,,,,,,24185,2019_Oct_21_1612,Mmi_3levels,3.1.5,59.97100451762503,
,,,1,1,4.3,,,,,,,,,0,0,0,0,0,7,7,6,,,,,,,,,,,,,,,,,,,,,,,,,,,,,,,,,,,,,,,,,,,,,,,,,,,,,,,,,,,,True,True,False,0.89,-0.10999999999999999,-1.2899999999999996,2.829999999999999,4.3,1.4700000000000006,0.7350000000000003,gamble,win,4.3,42.37166666666666,247.11989914195146,None,247.11989914195146,None,247.11989914195146,None,247.11989914195146,None,247.11989914195146,None,247.11989914195146,None,247.11989914195146,None,1,247.11989914195146,None,248.37037807365414,None,248.37037807365414,None,248.37037807365414,None,248.37037807365414,None,248.37037807365414,None,248.37037807365414,None,248.37037807365414,None,252.3718749450054,None,252.3718749450054,None,252.3718749450054,None,252.3718749450054,None,252.3718749450054,None,252.3718749450054,None,252.3718749450054,None,261.8587795603089,None,1.2174434473272413,253.35557830973994,None,254.35595332761295,None,0.89,7.502597766229883,257.35706206189934,None,None,257.35706206189934,None,,,,,,,,,,,,,,,,,,,24185,2019_Oct_21_1612,Mmi_3levels,3.1.5,59.97100451762503,
,,,1,1,1.5,,,,,,,,,0,0,0,0,0,8,8,26,,,,,,,,,,,,,,,,,,,,,,,,,,,,,,,,,,,,,,,,,,,,,,,,,,,,,,,,,,,,True,True,False,0.89,-0.10999999999999999,-1.3999999999999995,2.9399999999999995,1.5,-1.4399999999999995,0.03000000000000025,gamble,win,1.5,43.87166666666666,263.8761932493653,None,263.8761932493653,None,263.8761932493653,None,263.8761932493653,None,263.8761932493653,None,263.8761932493653,None,263.8761932493653,None,1,263.8761932493653,None,265.7102165152319,None,265.7102165152319,None,265.7102165152319,None,265.7102165152319,None,265.7102165152319,None,265.7102165152319,None,265.7102165152319,None,269.71169066790026,None,269.71169066790026,None,269.71169066790026,None,269.71169066790026,None,269.71169066790026,None,269.71169066790026,None,269.71169066790026,None,270.69538379332516,None,1.8009010666282848,,,,,,,,,,,,,,,,,,,,,,,,,,,,,,24185,2019_Oct_21_1612,Mmi_3levels,3.1.5,59.97100451762503,
,,,1,1,-1.1,,,,,,,,,0,0,0,0,0,9,9,3,,,,,,,,,,,,,,,,,,,,,,,,,,,,,,,,,,,,,,,,,,,,,,,,,,,,,,,,,,,,True,True,False,0.89,-0.10999999999999999,-1.5099999999999993,3.049999999999999,-1.1,-4.149999999999999,-2.624999999999999,certain,certain,-2.624999999999999,41.24666666666666,272.7128416397609,None,272.7128416397609,None,272.7128416397609,None,272.7128416397609,None,272.7128416397609,None,272.7128416397609,None,272.7128416397609,None,3,272.7128416397609,None,275.48055843100883,None,275.48055843100883,None,275.48055843100883,None,275.48055843100883,None,275.48055843100883,None,275.48055843100883,None,275.48055843100883,None,279.48205882217735,None,279.48205882217735,None,279.48205882217735,None,279.48205882217735,None,279.48205882217735,None,279.48205882217735,None,279.48205882217735,None,288.9689573578071,None,2.7346707474207506,280.4657669865992,None,281.4661381646292,None,0.75,7.502747517428361,284.46725169871934,None,None,284.46725169871934,None,,,,,,,,,,,,,,,,,,,24185,2019_Oct_21_1612,Mmi_3levels,3.1.5,59.97100451762503,
,,,1,1,1.9,,,,,,,,,0,0,0,0,0,10,10,1,,,,,,,,,,,,,,,,,,,,,,,,,,,,,,,,,,,,,,,,,,,,,,,,,,,,,,,,,,,,True,True,True,0.75,-0.25,-1.7599999999999993,5.26,1.9,-3.36,-0.73,gamble,win,1.9,43.14666666666666,290.9863796863938,None,290.9863796863938,None,290.9863796863938,None,290.9863796863938,None,290.9863796863938,None,290.9863796863938,None,290.9863796863938,None,None,290.9863796863938,None,293.98750217992347,None,293.98750217992347,None,293.98750217992347,None,293.98750217992347,None,293.98750217992347,None,293.98750217992347,None,293.98750217992347,None,297.98897601268254,None,297.98897601268254,None,297.98897601268254,None,297.98897601268254,None,297.98897601268254,None,297.98897601268254,None,297.98897601268254,None,298.9727152152918,None,,,,,,,,,,,,,,,,,,,,,,,,,,,,,,,24185,2019_Oct_21_1612,Mmi_3levels,3.1.5,59.97100451762503,
,,,1,1,10.7,,,,,,,,,0,0,0,0,0,11,11,10,,,,,,,,,,,,,,,,,,,,,,,,,,,,,,,,,,,,,,,,,,,,,,,,,,,,,,,,,,,,True,True,False,0.75,-0.25,-2.0099999999999993,5.51,10.7,5.1899999999999995,2.5949999999999998,gamble,win,10.7,53.846666666666664,300.990130504244,None,300.990130504244,None,300.990130504244,None,300.990130504244,None,300.990130504244,None,300.990130504244,None,300.990130504244,None,1,300.990130504244,None,301.9071443771245,None,301.9071443771245,None,301.9071443771245,None,301.9071443771245,None,301.9071443771245,None,301.9071443771245,None,301.9071443771245,None,305.90864988800604,None,305.90864988800604,None,305.90864988800604,None,305.90864988800604,None,305.90864988800604,None,305.90864988800604,None,305.90864988800604,None,315.3955497035058,None,0.8839751887135208,306.8923519727541,None,307.8927260306664,None,0.91,7.502629124443047,310.89383444504347,None,None,310.89383444504347,None,,,,,,,,,,,,,,,,,,,24185,2019_Oct_21_1612,Mmi_3levels,3.1.5,59.97100451762503,
,,,1,1,10.9,,,,,,,,,0,0,0,0,0,12,12,18,,,,,,,,,,,,,,,,,,,,,,,,,,,,,,,,,,,,,,,,,,,,,,,,,,,,,,,,,,,,True,True,True,0.91,-0.08999999999999997,-2.099999999999999,3.3599999999999985,10.9,7.540000000000002,3.770000000000001,gamble,win,10.9,64.74666666666667,317.4129006762523,None,317.4129006762523,None,317.4129006762523,None,317.4129006762523,None,317.4129006762523,None,317.4129006762523,None,317.4129006762523,None,1,317.4129006762523,None,318.17992918821983,None,318.17992918821983,None,318.17992918821983,None,318.17992918821983,None,318.17992918821983,None,318.17992918821983,None,318.17992918821983,None,322.1647668858059,None,322.1647668858059,None,322.1647668858059,None,322.1647668858059,None,322.1647668858059,None,322.1647668858059,None,322.1647668858059,None,323.16513230418786,None,0.7338243975536898,,,,,,,,,,,,,,,,,,,,,,,,,,,,,,24185,2019_Oct_21_1612,Mmi_3levels,3.1.5,59.97100451762503,
,,,1,1,5.5,,,,,,,,,0,0,0,0,0,13,13,16,,,,,,,,,,,,,,,,,,,,,,,,,,,,,,,,,,,,,,,,,,,,,,,,,,,,,,,,,,,,True,True,False,0.91,-0.08999999999999997,-2.189999999999999,3.4499999999999984,5.5,2.0500000000000016,1.0250000000000008,gamble,win,5.5,70.24666666666667,325.1824563986156,None,325.1824563986156,None,325.1824563986156,None,325.1824563986156,None,325.1824563986156,None,325.1824563986156,None,325.1824563986156,None,1,325.1824563986156,None,326.0495157886762,None,326.0495157886762,None,326.0495157886762,None,326.0495157886762,None,326.0495157886762,None,326.0495157886762,None,326.0495157886762,None,330.01761143747717,None,330.01761143747717,None,330.01761143747717,None,330.01761143747717,None,330.01761143747717,None,330.01761143747717,None,330.01761143747717,None,331.00138775783125,None,0.8007167575415224,,,,,,,,,,,,,,,,,,,,,,,,,,,,,,24185,2019_Oct_21_1612,Mmi_3levels,3.1.5,59.97100451762503,
,,,1,1,-1.3,,,,,,,,,0,0,0,0,0,14,14,8,,,,,,,,,,,,,,,,,,,,,,,,,,,,,,,,,,,,,,,,,,,,,,,,,,,,,,,,,,,,True,False,False,0.91,-0.08999999999999997,-2.279999999999999,-0.5049999999999998,-1.3,-1.8049999999999997,-1.5524999999999998,gamble,lose,-1.8049999999999997,68.44166666666666,333.0188318451401,None,333.0188318451401,None,333.0188318451401,None,333.0188318451401,None,333.0188318451401,None,333.0188318451401,None,333.0188318451401,None,1,333.0188318451401,None,335.4197373915231,None,335.4197373915231,None,335.4197373915231,None,335.4197373915231,None,335.4197373915231,None,335.4197373915231,None,335.4197373915231,None,339.4212416225346,None,339.4212416225346,None,339.4212416225346,None,339.4212416225346,None,339.4212416225346,None,339.4212416225346,None,339.4212416225346,None,348.9081420779694,None,2.367861102684401,340.40493922762107,None,341.4053148854291,None,0.67,7.502613765303977,344.40644089877605,None,None,344.40644089877605,None,,,,,,,,,,,,,,,,,,,24185,2019_Oct_21_1612,Mmi_3levels,3.1.5,59.97100451762503,
,,,1,1,-1.5,,,,,,,,,0,0,0,0,0,15,15,25,,,,,,,,,,,,,,,,,,,,,,,,,,,,,,,,,,,,,,,,,,,,,,,,,,,,,,,,,,,,True,True,True,0.67,-0.32999999999999996,-2.609999999999999,7.229999999999999,-1.5,-8.729999999999999,-5.114999999999999,gamble,win,-1.5,66.94166666666666,350.9255554471165,None,350.9255554471165,None,350.9255554471165,None,350.9255554471165,None,350.9255554471165,None,350.9255554471165,None,350.9255554471165,None,None,350.9255554471165,None,353.92664882238023,None,353.92664882238023,None,353.92664882238023,None,353.92664882238023,None,353.92664882238023,None,353.92664882238023,None,353.92664882238023,None,357.9281895312015,None,357.9281895312015,None,357.9281895312015,None,357.9281895312015,None,357.9281895312015,None,357.9281895312015,None,357.9281895312015,None,358.9118941759225,None,,,,,,,,,,,,,,,,,,,,,,,,,,,,,,,24185,2019_Oct_21_1612,Mmi_3levels,3.1.5,59.97100451762503,
,,,1,1,8.9,,,,,,,,,0,0,0,0,0,16,16,2,,,,,,,,,,,,,,,,,,,,,,,,,,,,,,,,,,,,,,,,,,,,,,,,,,,,,,,,,,,,True,False,False,0.67,-0.32999999999999996,-2.939999999999999,-1.3999999999999997,8.9,7.500000000000001,3.7500000000000004,gamble,lose,7.500000000000001,74.44166666666666,360.9293171444442,None,360.9293171444442,None,360.9293171444442,None,360.9293171444442,None,360.9293171444442,None,360.9293171444442,None,360.9293171444442,None,1,360.9293171444442,None,362.5965547639644,None,362.5965547639644,None,362.5965547639644,None,362.5965547639644,None,362.5965547639644,None,362.5965547639644,None,362.5965547639644,None,366.58138862182386,None,366.58138862182386,None,366.58138862182386,None,366.58138862182386,None,366.58138862182386,None,366.58138862182386,None,366.58138862182386,None,376.1016675813589,None,1.6342606917023659,367.58181675651576,None,368.58214249718003,None,0.82,7.519289258052595,371.58330754819326,None,None,371.58330754819326,None,,,,,,,,,,,,,,,,,,,24185,2019_Oct_21_1612,Mmi_3levels,3.1.5,59.97100451762503,
,,,1,1,2.9,,,,,,,,,0,0,0,0,0,17,17,7,,,,,,,,,,,,,,,,,,,,,,,,,,,,,,,,,,,,,,,,,,,,,,,,,,,,,,,,,,,,True,True,False,0.82,-0.18000000000000005,-3.119999999999999,5.64,2.9,-2.7399999999999998,0.08000000000000007,gamble,win,2.9,77.34166666666667,378.1191075089155,None,378.1191075089155,None,378.1191075089155,None,378.1191075089155,None,378.1191075089155,None,378.1191075089155,None,378.1191075089155,None,1,378.1191075089155,None,380.3032082901336,None,380.3032082901336,None,380.3032082901336,None,380.3032082901336,None,380.3032082901336,None,380.3032082901336,None,380.3032082901336,None,384.2880376682151,None,384.2880376682151,None,384.2880376682151,None,384.2880376682151,None,384.2880376682151,None,384.2880376682151,None,384.2880376682151,None,385.2884123660624,None,2.1511164938565344,,,,,,,,,,,,,,,,,,,,,,,,,,,,,,24185,2019_Oct_21_1612,Mmi_3levels,3.1.5,59.97100451762503,
,,,1,1,7.1,,,,,,,,,0,0,0,0,0,18,18,15,,,,,,,,,,,,,,,,,,,,,,,,,,,,,,,,,,,,,,,,,,,,,,,,,,,,,,,,,,,,True,True,False,0.82,-0.18000000000000005,-3.2999999999999994,5.82,7.1,1.2799999999999994,0.6399999999999997,gamble,win,7.1,84.44166666666666,387.3058954910375,None,387.3058954910375,None,387.3058954910375,None,387.3058954910375,None,387.3058954910375,None,387.3058954910375,None,387.3058954910375,None,1,387.3058954910375,None,388.3896278140601,None,388.3896278140601,None,388.3896278140601,None,388.3896278140601,None,388.3896278140601,None,388.3896278140601,None,388.3896278140601,None,392.39113396487664,None,392.39113396487664,None,392.39113396487664,None,392.39113396487664,None,392.39113396487664,None,392.39113396487664,None,392.39113396487664,None,393.3747918923618,None,1.050650121527724,,,,,,,,,,,,,,,,,,,,,,,,,,,,,,24185,2019_Oct_21_1612,Mmi_3levels,3.1.5,59.97100451762503,
,,,1,1,12.3,,,,,,,,,0,0,0,0,0,19,19,5,,,,,,,,,,,,,,,,,,,,,,,,,,,,,,,,,,,,,,,,,,,,,,,,,,,,,,,,,,,,True,False,True,0.82,-0.18000000000000005,-3.4799999999999995,-0.9200000000000002,12.3,11.38,5.69,gamble,lose,11.38,95.82166666666666,395.3922558184713,None,395.3922558184713,None,395.3922558184713,None,395.3922558184713,None,395.3922558184713,None,395.3922558184713,None,395.3922558184713,None,1,395.3922558184713,None,396.4092567319749,None,396.4092567319749,None,396.4092567319749,None,396.4092567319749,None,396.4092567319749,None,396.4092567319749,None,396.4092567319749,None,400.39413858705666,None,400.39413858705666,None,400.39413858705666,None,400.39413858705666,None,400.39413858705666,None,400.39413858705666,None,400.39413858705666,None,409.8977119755,None,0.9839254316175357,401.39445152843837,None,402.3948959822301,None,0.88,7.502665922162123,405.3960047165165,None,None,405.3960047165165,None,,,,,,,,,,,,,,,,,,,24185,2019_Oct_21_1612,Mmi_3levels,3.1.5,59.97100451762503,
,,,1,1,12.9,,,,,,,,,0,0,0,0,0,20,20,21,,,,,,,,,,,,,,,,,,,,,,,,,,,,,,,,,,,,,,,,,,,,,,,,,,,,,,,,,,,,True,True,False,0.88,-0.12,-3.5999999999999996,5.279999999999999,12.9,7.620000000000001,3.8100000000000005,gamble,win,12.9,108.72166666666666,411.9150888667209,None,411.9150888667209,None,411.9150888667209,None,411.9150888667209,None,411.9150888667209,None,411.9150888667209,None,411.9150888667209,None,1,411.9150888667209,None,412.865442845854,None,412.865442845854,None,412.865442845854,None,412.865442845854,None,412.865442845854,None,412.865442845854,None,412.865442845854,None,416.8502712639747,None,416.8502712639747,None,416.8502712639747,None,416.8502712639747,None,416.8502712639747,None,416.8502712639747,None,416.8502712639747,None,417.85064532177057,None,0.9172714576125145,,,,,,,,,,,,,,,,,,,,,,,,,,,,,,24185,2019_Oct_21_1612,Mmi_3levels,3.1.5,59.97100451762503,
,,,1,1,3.1,,,,,,,,,0,0,0,0,0,21,21,14,,,,,,,,,,,,,,,,,,,,,,,,,,,,,,,,,,,,,,,,,,,,,,,,,,,,,,,,,,,,True,True,True,0.88,-0.12,-3.7199999999999998,5.3999999999999995,3.1,-2.2999999999999994,0.40000000000000036,certain,certain,0.40000000000000036,109.12166666666667,419.86807405005675,None,419.86807405005675,None,419.86807405005675,None,419.86807405005675,None,419.86807405005675,None,419.86807405005675,None,419.86807405005675,None,3,419.86807405005675,None,422.31907327088993,None,422.31907327088993,None,422.31907327088993,None,422.31907327088993,None,422.31907327088993,None,422.31907327088993,None,422.31907327088993,None,426.3038184939651,None,426.3038184939651,None,426.3038184939651,None,426.3038184939651,None,426.3038184939651,None,426.3038184939651,None,426.3038184939651,None,435.8073726835428,None,2.4178338241763413,427.3041823124513,None,428.30457780906,None,0.76,7.5027119994629174,431.3056862234371,None,None,431.3056862234371,None,,,,,,,,,,,,,,,,,,,24185,2019_Oct_21_1612,Mmi_3levels,3.1.5,59.97100451762503,
,,,1,1,11.1,,,,,,,,,0,0,0,0,0,22,22,11,,,,,,,,,,,,,,,,,,,,,,,,,,,,,,,,,,,,,,,,,,,,,,,,,,,,,,,,,,,,True,True,False,0.76,-0.24,-3.96,7.32,11.1,3.7799999999999994,1.8899999999999997,gamble,win,11.1,120.22166666666666,437.8248286101734,None,437.8248286101734,None,437.8248286101734,None,437.8248286101734,None,437.8248286101734,None,437.8248286101734,None,437.8248286101734,None,1,437.8248286101734,None,438.85855845338665,None,438.85855845338665,None,438.85855845338665,None,438.85855845338665,None,438.85855845338665,None,438.85855845338665,None,438.85855845338665,None,442.8601385197835,None,442.8601385197835,None,442.8601385197835,None,442.8601385197835,None,442.8601385197835,None,442.8601385197835,None,442.8601385197835,None,443.84377916832455,None,1.0006121237529442,,,,,,,,,,,,,,,,,,,,,,,,,,,,,,24185,2019_Oct_21_1612,Mmi_3levels,3.1.5,59.97100451762503,
,,,1,1,8.3,,,,,,,,,0,0,0,0,0,23,23,9,,,,,,,,,,,,,,,,,,,,,,,,,,,,,,,,,,,,,,,,,,,,,,,,,,,,,,,,,,,,True,True,True,0.76,-0.24,-4.2,7.5600000000000005,8.3,0.7400000000000002,0.3700000000000001,gamble,win,8.3,128.52166666666668,445.8611662989715,None,445.8611662989715,None,445.8611662989715,None,445.8611662989715,None,445.8611662989715,None,445.8611662989715,None,445.8611662989715,None,1,445.8611662989715,None,447.59515580674633,None,447.59515580674633,None,447.59515580674633,None,447.59515580674633,None,447.59515580674633,None,447.59515580674633,None,447.59515580674633,None,451.57998102519196,None,451.57998102519196,None,451.57998102519196,None,451.57998102519196,None,451.57998102519196,None,451.57998102519196,None,451.57998102519196,None,461.0836526477942,None,1.7009524236200377,452.58040436008014,None,453.5807326606009,None,0.83,7.50270591978915,456.5819271499058,None,None,456.5819271499058,None,,,,,,,,,,,,,,,,,,,24185,2019_Oct_21_1612,Mmi_3levels,3.1.5,59.97100451762503,
,,,1,1,5.3,,,,,,,,,0,0,0,0,0,24,24,4,,,,,,,,,,,,,,,,,,,,,,,,,,,,,,,,,,,,,,,,,,,,,,,,,,,,,,,,,,,,True,True,True,0.83,-0.17000000000000004,-4.37,6.750000000000001,5.3,-1.450000000000001,1.9249999999999994,gamble,win,5.3,133.8216666666667,463.1009377045557,None,463.1009377045557,None,463.1009377045557,None,463.1009377045557,None,463.1009377045557,None,463.1009377045557,None,463.1009377045557,None,1,463.1009377045557,None,465.1017366972519,None,465.1017366972519,None,465.1017366972519,None,465.1017366972519,None,465.1017366972519,None,465.1017366972519,None,465.1017366972519,None,469.1032114898553,None,469.1032114898553,None,469.1032114898553,None,469.1032114898553,None,469.1032114898553,None,469.1032114898553,None,469.1032114898553,None,470.0869231742108,None,1.967709111631848,,,,,,,,,,,,,,,,,,,,,,,,,,,,,,24185,2019_Oct_21_1612,Mmi_3levels,3.1.5,59.97100451762503,
,,,1,1,9.9,,,,,,,,,0,0,0,0,0,25,25,24,,,,,,,,,,,,,,,,,,,,,,,,,,,,,,,,,,,,,,,,,,,,,,,,,,,,,,,,,,,,True,False,True,0.83,-0.17000000000000004,-4.54,-0.9733333333333336,9.9,8.926666666666666,4.463333333333333,gamble,lose,8.926666666666666,142.74833333333336,472.1043551021721,None,472.1043551021721,None,472.1043551021721,None,472.1043551021721,None,472.1043551021721,None,472.1043551021721,None,472.1043551021721,None,1,472.1043551021721,None,473.0046944421483,None,473.0046944421483,None,473.0046944421483,None,473.0046944421483,None,473.0046944421483,None,473.0046944421483,None,473.0046944421483,None,476.9895231802948,None,476.9895231802948,None,476.9895231802948,None,476.9895231802948,None,476.9895231802948,None,476.9895231802948,None,476.9895231802948,None,477.989947155118,None,0.8672609780915082,,,,,,,,,,,,,,,,,,,,,,,,,,,,,,24185,2019_Oct_21_1612,Mmi_3levels,3.1.5,59.97100451762503,
,,,1,1,1.1,,,,,,,,,0,0,0,0,0,26,26,20,,,,,,,,,,,,,,,,,,,,,,,,,,,,,,,,,,,,,,,,,,,,,,,,,,,,,,,,,,,,True,True,True,0.83,-0.17000000000000004,-4.71,7.090000000000001,1.1,-5.99,-2.4450000000000003,gamble,win,1.1,143.84833333333336,480.00732916616835,None,480.00732916616835,None,480.00732916616835,None,480.00732916616835,None,480.00732916616835,None,480.00732916616835,None,480.00732916616835,None,1,480.00732916616835,None,482.1914782645181,None,482.1914782645181,None,482.1914782645181,None,482.1914782645181,None,482.1914782645181,None,482.1914782645181,None,482.1914782645181,None,486.1929735359736,None,486.1929735359736,None,486.1929735359736,None,486.1929735359736,None,486.1929735359736,None,486.1929735359736,None,486.1929735359736,None,495.6799859848106,None,2.151056657428853,487.1766900200164,None,488.17706407781225,None,0.93,7.502492492436431,491.1781766519416,None,None,491.1781766519416,None,,,,,,,,,,,,,,,,,,,24185,2019_Oct_21_1612,Mmi_3levels,3.1.5,59.97100451762503,
,,,2,0,4.5,,,,,,,,,0,1,1,1,0,0,0,4,,,,,,,,,,,,,,,,,,,,,,,,,,,,,,,,,,,,,,,,,,,,,,,,499.9314558978658,None,0.9,6.701250006095506,502.9492487645475,None,4,3.6681450859177858,502.9492487645475,None,506.63401750614867,None,False,True,False,0.9,0.9,0.9,-13.5,4.5,-9.0,-2.25,gamble,lose,-9.0,134.84833333333336,509.66846890666056,None,509.66846890666056,None,509.66846890666056,None,509.66846890666056,None,509.66846890666056,None,509.66846890666056,None,509.66846890666056,None,1,509.66846890666056,None,511.60257456765976,None,511.60257456765976,None,511.60257456765976,None,511.60257456765976,None,511.60257456765976,None,511.60257456765976,None,511.60257456765976,None,515.6040631195065,None,515.6040631195065,None,515.6040631195065,None,515.6040631195065,None,515.6040631195065,None,515.6040631195065,None,515.6040631195065,None,516.587732246262,None,1.901073696441017,,,,,,,,,,,,497.68072514107917,None,4,2.234270611195825,497.68072514107917,None,,,,,,,,,,,,,24185,2019_Oct_21_1612,Mmi_3levels,3.1.5,59.97100451762503,
,,,2,0,12.5,,,,,,,,,0,1,1,1,0,1,1,16,,,,,,,,,,,,,,,,,,,,,,,,,,,,,,,,,,,,,,,,,,,,,,,,,,,,,,,,,,,,False,True,True,0.9,0.9,1.8,-14.4,12.5,-1.9000000000000004,-0.9500000000000002,gamble,lose,-1.9000000000000004,132.94833333333335,518.6052073717583,None,518.6052073717583,None,518.6052073717583,None,518.6052073717583,None,518.6052073717583,None,518.6052073717583,None,518.6052073717583,None,1,518.6052073717583,None,520.8059798059985,None,520.8059798059985,None,520.8059798059985,None,520.8059798059985,None,520.8059798059985,None,520.8059798059985,None,520.8059798059985,None,524.807473797584,None,524.807473797584,None,524.807473797584,None,524.807473797584,None,524.807473797584,None,524.807473797584,None,524.807473797584,None,534.2943681734614,None,2.1676927926018834,525.7912216397235,None,526.7915982573759,None,0.61,7.502617925056256,529.7926519550383,None,None,529.7926519550383,None,,,,,,,,,,,,,,,,,,,24185,2019_Oct_21_1612,Mmi_3levels,3.1.5,59.97100451762503,
,,,2,0,13.3,,,,,,,,,0,1,1,1,0,2,2,20,,,,,,,,,,,,,,,,,,,,,,,,,,,,,,,,,,,,,,,,,,,,,,,,,,,,,,,,,,,,False,True,True,0.61,0.61,2.41,-10.95,13.3,2.3500000000000014,1.1750000000000007,gamble,lose,2.3500000000000014,135.29833333333335,536.3118084209273,None,536.3118084209273,None,536.3118084209273,None,536.3118084209273,None,536.3118084209273,None,536.3118084209273,None,536.3118084209273,None,1,536.3118084209273,None,537.7290042029927,None,537.7290042029927,None,537.7290042029927,None,537.7290042029927,None,537.7290042029927,None,537.7290042029927,None,537.7290042029927,None,541.7305295526749,None,541.7305295526749,None,541.7305295526749,None,541.7305295526749,None,541.7305295526749,None,541.7305295526749,None,541.7305295526749,None,542.7142943538493,None,1.383949430193752,,,,,,,,,,,,,,,,,,,,,,,,,,,,,,24185,2019_Oct_21_1612,Mmi_3levels,3.1.5,59.97100451762503,
,,,2,0,3.3,,,,,,,,,0,1,1,1,0,3,3,0,,,,,,,,,,,,,,,,,,,,,,,,,,,,,,,,,,,,,,,,,,,,,,,,,,,,,,,,,,,,False,False,False,0.61,0.61,3.02,2.3866666666666663,0.825,-1.5616666666666663,-0.3683333333333332,gamble,win,0.825,136.12333333333333,544.7316347672604,None,544.7316347672604,None,544.7316347672604,None,544.7316347672604,None,544.7316347672604,None,544.7316347672604,None,544.7316347672604,None,None,544.7316347672604,None,547.732775499695,None,547.732775499695,None,547.732775499695,None,547.732775499695,None,547.732775499695,None,547.732775499695,None,547.732775499695,None,551.7343008493772,None,551.7343008493772,None,551.7343008493772,None,551.7343008493772,None,551.7343008493772,None,551.7343008493772,None,551.7343008493772,None,561.2212073846022,None,,552.7180118936813,None,553.7183251552051,None,0.7,7.50269120070152,556.7194697273662,None,None,556.7194697273662,None,,,,,,,,,,,,,,,,,,,24185,2019_Oct_21_1612,Mmi_3levels,3.1.5,59.97100451762503,
,,,2,0,2.9,,,,,,,,,0,1,1,1,0,4,4,5,,,,,,,,,,,,,,,,,,,,,,,,,,,,,,,,,,,,,,,,,,,,,,,,,,,,,,,,,,,,False,True,True,0.7,0.7,3.7199999999999998,-13.52,2.9,-10.62,-3.8599999999999994,certain,certain,-3.8599999999999994,132.26333333333332,563.2385599572444,None,563.2385599572444,None,563.2385599572444,None,563.2385599572444,None,563.2385599572444,None,563.2385599572444,None,563.2385599572444,None,3,563.2385599572444,None,564.8225132272346,None,564.8225132272346,None,564.8225132272346,None,564.8225132272346,None,564.8225132272346,None,564.8225132272346,None,564.8225132272346,None,568.8240129784681,None,568.8240129784681,None,568.8240129784681,None,568.8240129784681,None,568.8240129784681,None,568.8240129784681,None,568.8240129784681,None,569.8077557008946,None,1.5508589091477916,,,,,,,,,,,,,,,,,,,,,,,,,,,,,,24185,2019_Oct_21_1612,Mmi_3levels,3.1.5,59.97100451762503,
,,,2,0,12.1,,,,,,,,,0,1,1,1,0,5,5,6,,,,,,,,,,,,,,,,,,,,,,,,,,,,,,,,,,,,,,,,,,,,,,,,,,,,,,,,,,,,False,True,False,0.7,0.7,4.42,-14.219999999999999,12.1,-2.119999999999999,-1.0599999999999996,gamble,lose,-2.119999999999999,130.14333333333332,571.8251482712803,None,571.8251482712803,None,571.8251482712803,None,571.8251482712803,None,571.8251482712803,None,571.8251482712803,None,571.8251482712803,None,1,571.8251482712803,None,573.2256452018628,None,573.2256452018628,None,573.2256452018628,None,573.2256452018628,None,573.2256452018628,None,573.2256452018628,None,573.2256452018628,None,577.2272182287415,None,577.2272182287415,None,577.2272182287415,None,577.2272182287415,None,577.2272182287415,None,577.2272182287415,None,577.2272182287415,None,578.2108892754186,None,1.3674505669623613,,,,,,,,,,,,,,,,,,,,,,,,,,,,,,24185,2019_Oct_21_1612,Mmi_3levels,3.1.5,59.97100451762503,
,,,2,0,1.3,,,,,,,,,0,1,1,1,0,6,6,8,,,,,,,,,,,,,,,,,,,,,,,,,,,,,,,,,,,,,,,,,,,,,,,,,,,,,,,,,,,,False,True,True,0.7,0.7,5.12,-14.919999999999998,1.3,-13.619999999999997,-6.159999999999998,gamble,lose,-13.619999999999997,116.52333333333331,580.2283458419843,None,580.2283458419843,None,580.2283458419843,None,580.2283458419843,None,580.2283458419843,None,580.2283458419843,None,580.2283458419843,None,None,580.2283458419843,None,583.2294040193083,None,583.2294040193083,None,583.2294040193083,None,583.2294040193083,None,583.2294040193083,None,583.2294040193083,None,583.2294040193083,None,587.2309239293681,None,587.2309239293681,None,587.2309239293681,None,587.2309239293681,None,587.2309239293681,None,587.2309239293681,None,587.2309239293681,None,596.7178759017261,None,,588.2146308139199,None,589.2150080715073,None,0.54,7.502604165812954,592.2161193657666,None,None,592.2161193657666,None,,,,,,,,,,,,,,,,,,,24185,2019_Oct_21_1612,Mmi_3levels,3.1.5,59.97100451762503,
,,,2,0,6.9,,,,,,,,,0,1,1,1,0,7,7,17,,,,,,,,,,,,,,,,,,,,,,,,,,,,,,,,,,,,,,,,,,,,,,,,,,,,,,,,,,,,False,False,True,0.54,0.54,5.66,2.361666666666667,1.725,-0.6366666666666667,0.5441666666666667,gamble,win,1.725,118.2483333333333,598.735262392438,None,598.735262392438,None,598.735262392438,None,598.735262392438,None,598.735262392438,None,598.735262392438,None,598.735262392438,None,1,598.735262392438,None,600.6192689392483,None,600.6192689392483,None,600.6192689392483,None,600.6192689392483,None,600.6192689392483,None,600.6192689392483,None,600.6192689392483,None,604.6208048483822,None,604.6208048483822,None,604.6208048483822,None,604.6208048483822,None,604.6208048483822,None,604.6208048483822,None,604.6208048483822,None,605.6044976537814,None,1.8509246652247384,,,,,,,,,,,,,,,,,,,,,,,,,,,,,,24185,2019_Oct_21_1612,Mmi_3levels,3.1.5,59.97100451762503,
,,,2,0,11.7,,,,,,,,,0,1,1,1,0,8,8,15,,,,,,,,,,,,,,,,,,,,,,,,,,,,,,,,,,,,,,,,,,,,,,,,,,,,,,,,,,,,False,True,False,0.54,0.54,6.2,-13.760000000000002,11.7,-2.0600000000000023,-1.0300000000000011,gamble,lose,-2.0600000000000023,116.1883333333333,607.6218985436717,None,607.6218985436717,None,607.6218985436717,None,607.6218985436717,None,607.6218985436717,None,607.6218985436717,None,607.6218985436717,None,1,607.6218985436717,None,609.6893876682734,None,609.6893876682734,None,609.6893876682734,None,609.6893876682734,None,609.6893876682734,None,609.6893876682734,None,609.6893876682734,None,613.6908685405506,None,613.6908685405506,None,613.6908685405506,None,613.6908685405506,None,613.6908685405506,None,613.6908685405506,None,613.6908685405506,None,623.1778153933119,None,2.0343544462230057,614.6745875844499,None,615.6750467572128,None,0.57,7.502634884091094,618.6760364586953,None,None,618.6760364586953,None,,,,,,,,,,,,,,,,,,,24185,2019_Oct_21_1612,Mmi_3levels,3.1.5,59.97100451762503,
,,,2,0,5.7,,,,,,,,,0,1,1,1,0,9,9,2,,,,,,,,,,,,,,,,,,,,,,,,,,,,,,,,,,,,,,,,,,,,,,,,,,,,,,,,,,,,False,False,True,0.57,0.57,6.7700000000000005,2.5591666666666666,1.425,-1.1341666666666665,0.14541666666666675,gamble,win,1.425,117.6133333333333,625.1951890848577,None,625.1951890848577,None,625.1951890848577,None,625.1951890848577,None,625.1951890848577,None,625.1951890848577,None,625.1951890848577,None,1,625.1951890848577,None,627.3293046652107,None,627.3293046652107,None,627.3293046652107,None,627.3293046652107,None,627.3293046652107,None,627.3293046652107,None,627.3293046652107,None,631.3308239352191,None,631.3308239352191,None,631.3308239352191,None,631.3308239352191,None,631.3308239352191,None,631.3308239352191,None,631.3308239352191,None,632.3145269800443,None,2.101050977827981,,,,,,,,,,,,,,,,,,,,,,,,,,,,,,24185,2019_Oct_21_1612,Mmi_3levels,3.1.5,59.97100451762503,
,,,2,0,-0.3,,,,,,,,,0,1,1,1,0,10,10,10,,,,,,,,,,,,,,,,,,,,,,,,,,,,,,,,,,,,,,,,,,,,,,,,,,,,,,,,,,,,False,False,False,0.57,0.57,7.340000000000001,2.6066666666666665,-0.075,-2.6816666666666666,-1.3783333333333334,gamble,win,-0.075,117.5383333333333,634.3320040253457,None,634.3320040253457,None,634.3320040253457,None,634.3320040253457,None,634.3320040253457,None,634.3320040253457,None,634.3320040253457,None,None,634.3320040253457,None,637.3330730821472,None,637.3330730821472,None,637.3330730821472,None,637.3330730821472,None,637.3330730821472,None,637.3330730821472,None,637.3330730821472,None,641.3345824327553,None,641.3345824327553,None,641.3345824327553,None,641.3345824327553,None,641.3345824327553,None,641.3345824327553,None,641.3345824327553,None,642.3182854775805,None,,,,,,,,,,,,,,,,,,,,,,,,,,,,,,,24185,2019_Oct_21_1612,Mmi_3levels,3.1.5,59.97100451762503,
,,,2,0,7.5,,,,,,,,,0,1,1,1,0,11,11,7,,,,,,,,,,,,,,,,,,,,,,,,,,,,,,,,,,,,,,,,,,,,,,,,,,,,,,,,,,,,False,True,True,0.57,0.57,7.910000000000001,-15.89,7.5,-8.39,-0.4450000000000003,gamble,lose,-8.39,109.1483333333333,644.3357580431039,None,644.3357580431039,None,644.3357580431039,None,644.3357580431039,None,644.3357580431039,None,644.3357580431039,None,644.3357580431039,None,1,644.3357580431039,None,645.752989663044,None,645.752989663044,None,645.752989663044,None,645.752989663044,None,645.752989663044,None,645.752989663044,None,645.752989663044,None,649.754388620262,None,649.754388620262,None,649.754388620262,None,649.754388620262,None,649.754388620262,None,649.754388620262,None,649.754388620262,None,659.2413050747709,None,1.384033905225806,650.7380750259617,None,651.738519479637,None,0.51,7.5027254385640845,654.7396176547045,None,None,654.7396176547045,None,,,,,,,,,,,,,,,,,,,24185,2019_Oct_21_1612,Mmi_3levels,3.1.5,59.97100451762503,
,,,2,0,13.5,,,,,,,,,0,1,1,1,0,12,12,1,,,,,,,,,,,,,,,,,,,,,,,,,,,,,,,,,,,,,,,,,,,,,,,,,,,,,,,,,,,,False,True,False,0.51,0.51,8.420000000000002,-15.560000000000002,13.5,-2.0600000000000023,-1.0300000000000011,gamble,lose,-2.0600000000000023,107.0883333333333,661.2587120442186,None,661.2587120442186,None,661.2587120442186,None,661.2587120442186,None,661.2587120442186,None,661.2587120442186,None,661.2587120442186,None,1,661.2587120442186,None,663.2928265046794,None,663.2928265046794,None,663.2928265046794,None,663.2928265046794,None,663.2928265046794,None,663.2928265046794,None,663.2928265046794,None,667.2943355353782,None,667.2943355353782,None,667.2943355353782,None,667.2943355353782,None,667.2943355353782,None,667.2943355353782,None,667.2943355353782,None,668.2780600188999,None,2.001047617988661,,,,,,,,,,,,,,,,,,,,,,,,,,,,,,24185,2019_Oct_21_1612,Mmi_3levels,3.1.5,59.97100451762503,
,,,2,0,4.3,,,,,,,,,0,1,1,1,0,13,13,18,,,,,,,,,,,,,,,,,,,,,,,,,,,,,,,,,,,,,,,,,,,,,,,,,,,,,,,,,,,,False,True,True,0.51,0.51,8.930000000000001,-16.07,4.3,-11.77,-3.735,certain,certain,-3.735,103.3533333333333,670.2955009064171,None,670.2955009064171,None,670.2955009064171,None,670.2955009064171,None,670.2955009064171,None,670.2955009064171,None,670.2955009064171,None,3,670.2955009064171,None,672.2795850485563,None,672.2795850485563,None,672.2795850485563,None,672.2795850485563,None,672.2795850485563,None,672.2795850485563,None,672.2795850485563,None,676.2810220834799,None,676.2810220834799,None,676.2810220834799,None,676.2810220834799,None,676.2810220834799,None,676.2810220834799,None,676.2810220834799,None,685.7679839753546,None,1.9509878614917397,677.26478720468,None,678.2651587026194,None,0.51,7.5027340782107785,681.2662322390825,None,None,681.2662322390825,None,,,,,,,,,,,,,,,,,,,24185,2019_Oct_21_1612,Mmi_3levels,3.1.5,59.97100451762503,
,,,2,0,5.1,,,,,,,,,0,1,1,1,0,14,14,23,,,,,,,,,,,,,,,,,,,,,,,,,,,,,,,,,,,,,,,,,,,,,,,,,,,,,,,,,,,,False,False,False,0.51,0.51,9.440000000000001,2.5716666666666668,1.275,-1.2966666666666669,-0.010833333333333472,certain,certain,-0.010833333333333472,103.34249999999996,687.7854632606031,None,687.7854632606031,None,687.7854632606031,None,687.7854632606031,None,687.7854632606031,None,687.7854632606031,None,687.7854632606031,None,3,687.7854632606031,None,689.9361461801454,None,689.9361461801454,None,689.9361461801454,None,689.9361461801454,None,689.9361461801454,None,689.9361461801454,None,689.9361461801454,None,693.9376545709092,None,693.9376545709092,None,693.9376545709092,None,693.9376545709092,None,693.9376545709092,None,693.9376545709092,None,693.9376545709092,None,694.9213915336877,None,2.117595278308727,,,,,,,,,,,,,,,,,,,,,,,,,,,,,,24185,2019_Oct_21_1612,Mmi_3levels,3.1.5,59.97100451762503,
,,,2,0,10.7,,,,,,,,,0,1,1,1,0,15,15,11,,,,,,,,,,,,,,,,,,,,,,,,,,,,,,,,,,,,,,,,,,,,,,,,,,,,,,,,,,,,False,True,True,0.51,0.51,9.950000000000001,-17.090000000000003,10.7,-6.390000000000004,-3.195000000000002,gamble,lose,-6.390000000000004,96.95249999999996,696.9387975431746,None,696.9387975431746,None,696.9387975431746,None,696.9387975431746,None,696.9387975431746,None,696.9387975431746,None,696.9387975431746,None,1,696.9387975431746,None,699.4898039635736,None,699.4898039635736,None,699.4898039635736,None,699.4898039635736,None,699.4898039635736,None,699.4898039635736,None,699.4898039635736,None,703.4912355588749,None,703.4912355588749,None,703.4912355588749,None,703.4912355588749,None,703.4912355588749,None,703.4912355588749,None,703.4912355588749,None,712.9781056161737,None,2.517912059556693,704.4749603624223,None,705.4753117015352,None,0.5,7.502643843530677,708.4764805923915,None,None,708.4764805923915,None,,,,,,,,,,,,,,,,,,,24185,2019_Oct_21_1612,Mmi_3levels,3.1.5,59.97100451762503,
,,,2,0,4.7,,,,,,,,,0,1,1,1,0,16,16,9,,,,,,,,,,,,,,,,,,,,,,,,,,,,,,,,,,,,,,,,,,,,,,,,,,,,,,,,,,,,False,True,True,0.5,0.5,10.450000000000001,-17.450000000000003,4.7,-12.750000000000004,-4.025000000000002,gamble,lose,-12.750000000000004,84.20249999999996,714.9955733821262,None,714.9955733821262,None,714.9955733821262,None,714.9955733821262,None,714.9955733821262,None,714.9955733821262,None,714.9955733821262,None,1,714.9955733821262,None,717.0796704834793,None,717.0796704834793,None,717.0796704834793,None,717.0796704834793,None,717.0796704834793,None,717.0796704834793,None,717.0796704834793,None,721.0812572696013,None,721.0812572696013,None,721.0812572696013,None,721.0812572696013,None,721.0812572696013,None,721.0812572696013,None,721.0812572696013,None,722.0648828789126,None,2.0510008208220825,,,,,,,,,,,,,,,,,,,,,,,,,,,,,,24185,2019_Oct_21_1612,Mmi_3levels,3.1.5,59.97100451762503,
,,,2,0,3.9,,,,,,,,,0,1,1,1,0,17,17,12,,,,,,,,,,,,,,,,,,,,,,,,,,,,,,,,,,,,,,,,,,,,,,,,,,,,,,,,,,,,False,True,False,0.5,0.5,10.950000000000001,-17.950000000000003,3.9,-14.050000000000002,-5.075000000000001,gamble,lose,-14.050000000000002,70.15249999999996,724.0823266463121,None,724.0823266463121,None,724.0823266463121,None,724.0823266463121,None,724.0823266463121,None,724.0823266463121,None,724.0823266463121,None,1,724.0823266463121,None,726.8667406890308,None,726.8667406890308,None,726.8667406890308,None,726.8667406890308,None,726.8667406890308,None,726.8667406890308,None,726.8667406890308,None,730.868251319509,None,730.868251319509,None,730.868251319509,None,730.868251319509,None,730.868251319509,None,730.868251319509,None,730.868251319509,None,731.8519543643342,None,2.7513132822932675,,,,,,,,,,,,,,,,,,,,,,,,,,,,,,24185,2019_Oct_21_1612,Mmi_3levels,3.1.5,59.97100451762503,
,,,2,0,0.3,,,,,,,,,0,1,1,1,0,18,18,25,,,,,,,,,,,,,,,,,,,,,,,,,,,,,,,,,,,,,,,,,,,,,,,,,,,,,,,,,,,,False,False,True,0.5,0.5,11.450000000000001,2.7041666666666666,0.075,-2.6291666666666664,-1.2770833333333331,certain,certain,-1.2770833333333331,68.87541666666662,733.8693318956066,None,733.8693318956066,None,733.8693318956066,None,733.8693318956066,None,733.8693318956066,None,733.8693318956066,None,733.8693318956066,None,3,733.8693318956066,None,735.8867695832159,None,735.8867695832159,None,735.8867695832159,None,735.8867695832159,None,735.8867695832159,None,735.8867695832159,None,735.8867695832159,None,739.8715784825617,None,739.8715784825617,None,739.8715784825617,None,739.8715784825617,None,739.8715784825617,None,739.8715784825617,None,739.8715784825617,None,749.3752078677062,None,1.984330847626552,740.8719602199271,None,741.8723320380086,None,0.42,7.5024355358909816,744.8734500517603,None,None,744.8734500517603,None,,,,,,,,,,,,,,,,,,,24185,2019_Oct_21_1612,Mmi_3levels,3.1.5,59.97100451762503,
,,,2,0,8.9,,,,,,,,,0,1,1,1,0,19,19,14,,,,,,,,,,,,,,,,,,,,,,,,,,,,,,,,,,,,,,,,,,,,,,,,,,,,,,,,,,,,False,True,True,0.42,0.42,11.870000000000001,-17.75,8.9,-8.85,0.025000000000000355,certain,certain,0.025000000000000355,68.90041666666663,751.3925953183789,None,751.3925953183789,None,751.3925953183789,None,751.3925953183789,None,751.3925953183789,None,751.3925953183789,None,751.3925953183789,None,3,751.3925953183789,None,753.5100206867792,None,753.5100206867792,None,753.5100206867792,None,753.5100206867792,None,753.5100206867792,None,753.5100206867792,None,753.5100206867792,None,757.5115604356397,None,757.5115604356397,None,757.5115604356397,None,757.5115604356397,None,757.5115604356397,None,757.5115604356397,None,757.5115604356397,None,758.4952366020298,None,2.0843262078706175,,,,,,,,,,,,,,,,,,,,,,,,,,,,,,24185,2019_Oct_21_1612,Mmi_3levels,3.1.5,59.97100451762503,
,,,2,0,-1.5,,,,,,,,,0,1,1,1,0,20,20,26,,,,,,,,,,,,,,,,,,,,,,,,,,,,,,,,,,,,,,,,,,,,,,,,,,,,,,,,,,,,False,False,False,0.42,0.42,12.290000000000001,2.4941666666666666,-0.375,-2.8691666666666666,-1.6220833333333333,gamble,win,-0.375,68.52541666666663,760.5127702839673,None,760.5127702839673,None,760.5127702839673,None,760.5127702839673,None,760.5127702839673,None,760.5127702839673,None,760.5127702839673,None,1,760.5127702839673,None,763.1136956692208,None,763.1136956692208,None,763.1136956692208,None,763.1136956692208,None,763.1136956692208,None,763.1136956692208,None,763.1136956692208,None,767.115167262149,None,767.115167262149,None,767.115167262149,None,767.115167262149,None,767.115167262149,None,767.115167262149,None,767.115167262149,None,776.6020302798133,None,2.5678326243069023,768.0988994251238,None,769.0992264457745,None,0.44,7.502631044248119,772.1003409398254,None,None,772.1003409398254,None,,,,,,,,,,,,,,,,,,,24185,2019_Oct_21_1612,Mmi_3levels,3.1.5,59.97100451762503,
,,,2,0,5.5,,,,,,,,,0,1,1,1,0,21,21,13,,,,,,,,,,,,,,,,,,,,,,,,,,,,,,,,,,,,,,,,,,,,,,,,,,,,,,,,,,,,False,True,False,0.44,0.44,12.73,-18.89,5.5,-13.39,-3.9450000000000003,certain,certain,-3.9450000000000003,64.58041666666662,778.6194666875526,None,778.6194666875526,None,778.6194666875526,None,778.6194666875526,None,778.6194666875526,None,778.6194666875526,None,778.6194666875526,None,3,778.6194666875526,None,780.9703342362773,None,780.9703342362773,None,780.9703342362773,None,780.9703342362773,None,780.9703342362773,None,780.9703342362773,None,780.9703342362773,None,784.9551815332379,None,784.9551815332379,None,784.9551815332379,None,784.9551815332379,None,784.9551815332379,None,784.9551815332379,None,784.9551815332379,None,785.9555415119976,None,2.317800386226736,,,,,,,,,,,,,,,,,,,,,,,,,,,,,,24185,2019_Oct_21_1612,Mmi_3levels,3.1.5,59.97100451762503,
,,,2,0,10.5,,,,,,,,,0,1,1,1,0,22,22,19,,,,,,,,,,,,,,,,,,,,,,,,,,,,,,,,,,,,,,,,,,,,,,,,,,,,,,,,,,,,False,True,False,0.44,0.44,13.17,-19.33,10.5,-8.829999999999998,0.8350000000000009,certain,certain,0.8350000000000009,65.41541666666663,787.9729913589545,None,787.9729913589545,None,787.9729913589545,None,787.9729913589545,None,787.9729913589545,None,787.9729913589545,None,787.9729913589545,None,3,787.9729913589545,None,790.0738071505912,None,790.0738071505912,None,790.0738071505912,None,790.0738071505912,None,790.0738071505912,None,790.0738071505912,None,790.0738071505912,None,794.0752589047188,None,794.0752589047188,None,794.0752589047188,None,794.0752589047188,None,794.0752589047188,None,794.0752589047188,None,794.0752589047188,None,803.5621756792534,None,2.0676363159436733,795.0589641893748,None,796.0594454408856,None,0.5,7.502691520610824,799.060444421717,None,None,799.060444421717,None,,,,,,,,,,,,,,,,,,,24185,2019_Oct_21_1612,Mmi_3levels,3.1.5,59.97100451762503,
,,,2,0,4.1,,,,,,,,,0,1,1,1,0,23,23,22,,,,,,,,,,,,,,,,,,,,,,,,,,,,,,,,,,,,,,,,,,,,,,,,,,,,,,,,,,,,False,True,False,0.5,0.5,13.67,-20.67,4.1,-16.57,-6.235,gamble,lose,-16.57,48.84541666666663,805.5796389654279,None,805.5796389654279,None,805.5796389654279,None,805.5796389654279,None,805.5796389654279,None,805.5796389654279,None,805.5796389654279,None,None,805.5796389654279,None,808.5806993825827,None,808.5806993825827,None,808.5806993825827,None,808.5806993825827,None,808.5806993825827,None,808.5806993825827,None,808.5806993825827,None,812.5822240923299,None,812.5822240923299,None,812.5822240923299,None,812.5822240923299,None,812.5822240923299,None,812.5822240923299,None,812.5822240923299,None,813.5659277770901,None,,,,,,,,,,,,,,,,,,,,,,,,,,,,,,,24185,2019_Oct_21_1612,Mmi_3levels,3.1.5,59.97100451762503,
,,,2,0,5.9,,,,,,,,,0,1,1,1,0,24,24,3,,,,,,,,,,,,,,,,,,,,,,,,,,,,,,,,,,,,,,,,,,,,,,,,,,,,,,,,,,,,False,True,False,0.5,0.5,14.17,-21.17,5.9,-15.270000000000001,-4.6850000000000005,gamble,lose,-15.270000000000001,33.57541666666663,815.5834540994838,None,815.5834540994838,None,815.5834540994838,None,815.5834540994838,None,815.5834540994838,None,815.5834540994838,None,815.5834540994838,None,1,815.5834540994838,None,817.1339306313312,None,817.1339306313312,None,817.1339306313312,None,817.1339306313312,None,817.1339306313312,None,817.1339306313312,None,817.1339306313312,None,821.1187612893991,None,821.1187612893991,None,821.1187612893991,None,821.1187612893991,None,821.1187612893991,None,821.1187612893991,None,821.1187612893991,None,822.119248300558,None,1.5175815192051232,,,,,,,,,,,,,,,,,,,,,,,,,,,,,,24185,2019_Oct_21_1612,Mmi_3levels,3.1.5,59.97100451762503,
,,,2,0,11.5,,,,,,,,,0,1,1,1,0,25,25,24,,,,,,,,,,,,,,,,,,,,,,,,,,,,,,,,,,,,,,,,,,,,,,,,,,,,,,,,,,,,False,False,False,0.5,0.5,14.67,2.9725,2.875,-0.09750000000000014,1.38875,certain,certain,1.38875,34.96416666666663,824.1365618355339,None,824.1365618355339,None,824.1365618355339,None,824.1365618355339,None,824.1365618355339,None,824.1365618355339,None,824.1365618355339,None,3,824.1365618355339,None,825.4703977524769,None,825.4703977524769,None,825.4703977524769,None,825.4703977524769,None,825.4703977524769,None,825.4703977524769,None,825.4703977524769,None,829.4718559061876,None,829.4718559061876,None,829.4718559061876,None,829.4718559061876,None,829.4718559061876,None,829.4718559061876,None,829.4718559061876,None,838.9587781203445,None,1.3007457158528268,830.4556063081836,None,831.4559925252106,None,0.41,7.502668801927939,834.4571303778794,None,None,834.4571303778794,None,,,,,,,,,,,,,,,,,,,24185,2019_Oct_21_1612,Mmi_3levels,3.1.5,59.97100451762503,
,,,2,0,-0.7,,,,,,,,,0,1,1,1,0,26,26,21,,,,,,,,,,,,,,,,,,,,,,,,,,,,,,,,,,,,,,,,,,,,,,,,,,,,,,,,,,,,False,False,True,0.41,0.41,15.08,2.6916666666666664,-0.175,-2.8666666666666663,-1.520833333333333,gamble,win,-0.175,34.78916666666663,840.9762177279918,None,840.9762177279918,None,840.9762177279918,None,840.9762177279918,None,840.9762177279918,None,840.9762177279918,None,840.9762177279918,None,1,840.9762177279918,None,843.1604205830954,None,843.1604205830954,None,843.1604205830954,None,843.1604205830954,None,843.1604205830954,None,843.1604205830954,None,843.1604205830954,None,847.1618297797395,None,847.1618297797395,None,847.1618297797395,None,847.1618297797395,None,847.1618297797395,None,847.1618297797395,None,847.1618297797395,None,848.1455974606797,None,2.1511750505305827,,,,,,,,,,,,,,,,,,,,,,,,,,,,,,24185,2019_Oct_21_1612,Mmi_3levels,3.1.5,59.97100451762503,
,,,3,1,11.5,,,,,,,,,0,2,2,2,0,0,0,2,,,,,,,,,,,,,,,,,,,,,,,,,,,,,,,,,,,,,,,,,,,,,,,,851.7136364727048,None,0.46,7.50202276033815,854.7147404074203,None,None,,854.7147404074203,None,859.2163852700032,None,True,True,True,0.46,-0.54,-0.54,8.100000000000001,11.5,3.3999999999999986,1.6999999999999993,gamble,win,11.5,46.28916666666663,862.2508865875425,None,862.2508865875425,None,862.2508865875425,None,862.2508865875425,None,862.2508865875425,None,862.2508865875425,None,862.2508865875425,None,1,862.2508865875425,None,864.101524869795,None,864.101524869795,None,864.101524869795,None,864.101524869795,None,864.101524869795,None,864.101524869795,None,864.101524869795,None,868.1031270149397,None,868.1031270149397,None,868.1031270149397,None,868.1031270149397,None,868.1031270149397,None,868.1031270149397,None,868.1031270149397,None,877.5899701938033,None,1.8176437554648146,869.0867788627511,None,870.0871673197253,None,0.54,7.502604165812954,873.088265174767,None,None,873.088265174767,None,850.146329257288,None,4,1.550796192837879,850.146329257288,None,,,,,,,,,,,,,24185,2019_Oct_21_1612,Mmi_3levels,3.1.5,59.97100451762503,
,,,3,1,3.9,,,,,,,,,0,2,2,2,0,1,1,6,,,,,,,,,,,,,,,,,,,,,,,,,,,,,,,,,,,,,,,,,,,,,,,,,,,,,,,,,,,,True,True,False,0.54,-0.45999999999999996,-1.0,7.4399999999999995,3.9,-3.5399999999999996,0.18000000000000016,certain,certain,0.18000000000000016,46.46916666666663,879.6074353998993,None,879.6074353998993,None,879.6074353998993,None,879.6074353998993,None,879.6074353998993,None,879.6074353998993,None,879.6074353998993,None,3,879.6074353998993,None,881.7082179135177,None,881.7082179135177,None,881.7082179135177,None,881.7082179135177,None,881.7082179135177,None,881.7082179135177,None,881.7082179135177,None,885.7097759012831,None,885.7097759012831,None,885.7097759012831,None,885.7097759012831,None,885.7097759012831,None,885.7097759012831,None,885.7097759012831,None,886.6934427882079,None,2.0674932844704017,,,,,,,,,,,,,,,,,,,,,,,,,,,,,,24185,2019_Oct_21_1612,Mmi_3levels,3.1.5,59.97100451762503,
,,,3,1,0.1,,,,,,,,,0,2,2,2,0,2,2,5,,,,,,,,,,,,,,,,,,,,,,,,,,,,,,,,,,,,,,,,,,,,,,,,,,,,,,,,,,,,True,True,False,0.54,-0.45999999999999996,-1.46,7.8999999999999995,0.1,-7.8,-3.85,certain,certain,-3.85,42.61916666666663,888.7108104000799,None,888.7108104000799,None,888.7108104000799,None,888.7108104000799,None,888.7108104000799,None,888.7108104000799,None,888.7108104000799,None,3,888.7108104000799,None,891.5452128434554,None,891.5452128434554,None,891.5452128434554,None,891.5452128434554,None,891.5452128434554,None,891.5452128434554,None,891.5452128434554,None,895.5467279537115,None,895.5467279537115,None,895.5467279537115,None,895.5467279537115,None,895.5467279537115,None,895.5467279537115,None,895.5467279537115,None,896.5303948406363,None,2.8012824840843678,,,,,,,,,,,,,,,,,,,,,,,,,,,,,,24185,2019_Oct_21_1612,Mmi_3levels,3.1.5,59.97100451762503,
,,,3,1,0.9,,,,,,,,,0,2,2,2,0,3,3,8,,,,,,,,,,,,,,,,,,,,,,,,,,,,,,,,,,,,,,,,,,,,,,,,,,,,,,,,,,,,True,False,True,0.54,-0.45999999999999996,-1.92,-1.7699999999999998,0.9,-0.8699999999999998,0.015000000000000124,gamble,lose,-0.8699999999999998,41.74916666666663,898.5478405278409,None,898.5478405278409,None,898.5478405278409,None,898.5478405278409,None,898.5478405278409,None,898.5478405278409,None,898.5478405278409,None,1,898.5478405278409,None,899.981756919995,None,899.981756919995,None,899.981756919995,None,899.981756919995,None,899.981756919995,None,899.981756919995,None,899.981756919995,None,903.9833197074477,None,903.9833197074477,None,903.9833197074477,None,903.9833197074477,None,903.9833197074477,None,903.9833197074477,None,903.9833197074477,None,913.4700924905483,None,1.4009042663965374,904.9669184384402,None,905.9672707376303,None,0.47,7.502654402866028,908.9684476279654,None,None,908.9684476279654,None,,,,,,,,,,,,,,,,,,,24185,2019_Oct_21_1612,Mmi_3levels,3.1.5,59.97100451762503,
,,,3,1,3.3,,,,,,,,,0,2,2,2,0,4,4,22,,,,,,,,,,,,,,,,,,,,,,,,,,,,,,,,,,,,,,,,,,,,,,,,,,,,,,,,,,,,True,False,False,0.47,-0.53,-2.45,-2.0591666666666666,3.3,1.2408333333333332,0.6204166666666666,gamble,lose,1.2408333333333332,42.98999999999997,915.4875314581441,None,915.4875314581441,None,915.4875314581441,None,915.4875314581441,None,915.4875314581441,None,915.4875314581441,None,915.4875314581441,None,1,915.4875314581441,None,916.6546447650762,None,916.6546447650762,None,916.6546447650762,None,916.6546447650762,None,916.6546447650762,None,916.6546447650762,None,916.6546447650762,None,920.6561611553188,None,920.6561611553188,None,920.6561611553188,None,920.6561611553188,None,920.6561611553188,None,920.6561611553188,None,920.6561611553188,None,921.6398587604053,None,1.1340759026352316,,,,,,,,,,,,,,,,,,,,,,,,,,,,,,24185,2019_Oct_21_1612,Mmi_3levels,3.1.5,59.97100451762503,
,,,3,1,7.3,,,,,,,,,0,2,2,2,0,5,5,0,,,,,,,,,,,,,,,,,,,,,,,,,,,,,,,,,,,,,,,,,,,,,,,,,,,,,,,,,,,,True,True,False,0.47,-0.53,-2.9800000000000004,10.4,7.3,-3.1000000000000005,-1.5500000000000003,gamble,win,7.3,50.289999999999964,923.6572641299572,None,923.6572641299572,None,923.6572641299572,None,923.6572641299572,None,923.6572641299572,None,923.6572641299572,None,923.6572641299572,None,1,923.6572641299572,None,925.5413129143417,None,925.5413129143417,None,925.5413129143417,None,925.5413129143417,None,925.5413129143417,None,925.5413129143417,None,925.5413129143417,None,929.5428120255237,None,929.5428120255237,None,929.5428120255237,None,929.5428120255237,None,929.5428120255237,None,929.5428120255237,None,929.5428120255237,None,939.0464894078905,None,1.8509550634771585,930.5265141103882,None,931.5269419250544,None,0.6,7.5193199762143195,934.5279809035128,None,None,934.5279809035128,None,,,,,,,,,,,,,,,,,,,24185,2019_Oct_21_1612,Mmi_3levels,3.1.5,59.97100451762503,
,,,3,1,1.7,,,,,,,,,0,2,2,2,0,6,6,4,,,,,,,,,,,,,,,,,,,,,,,,,,,,,,,,,,,,,,,,,,,,,,,,,,,,,,,,,,,,True,True,True,0.6,-0.4,-3.3800000000000003,8.98,1.7,-7.28,-2.79,certain,certain,-2.79,47.499999999999964,941.0637687048875,None,941.0637687048875,None,941.0637687048875,None,941.0637687048875,None,941.0637687048875,None,941.0637687048875,None,941.0637687048875,None,3,941.0637687048875,None,944.0148970381124,None,944.0148970381124,None,944.0148970381124,None,944.0148970381124,None,944.0148970381124,None,944.0148970381124,None,944.0148970381124,None,948.0164156681858,None,948.0164156681858,None,948.0164156681858,None,948.0164156681858,None,948.0164156681858,None,948.0164156681858,None,948.0164156681858,None,949.0001791893737,None,2.9180522112874314,,,,,,,,,,,,,,,,,,,,,,,,,,,,,,24185,2019_Oct_21_1612,Mmi_3levels,3.1.5,59.97100451762503,
,,,3,1,0.3,,,,,,,,,0,2,2,2,0,7,7,18,,,,,,,,,,,,,,,,,,,,,,,,,,,,,,,,,,,,,,,,,,,,,,,,,,,,,,,,,,,,True,True,True,0.6,-0.4,-3.7800000000000002,9.38,0.3,-9.08,-4.39,gamble,win,0.3,47.79999999999996,951.0175231226021,None,951.0175231226021,None,951.0175231226021,None,951.0175231226021,None,951.0175231226021,None,951.0175231226021,None,951.0175231226021,None,1,951.0175231226021,None,953.9020691575715,None,953.9020691575715,None,953.9020691575715,None,953.9020691575715,None,953.9020691575715,None,953.9020691575715,None,953.9020691575715,None,957.9035154719604,None,957.9035154719604,None,957.9035154719604,None,957.9035154719604,None,957.9035154719604,None,957.9035154719604,None,957.9035154719604,None,967.3903708100552,None,2.851330721285194,958.8872047575423,None,959.8876335321693,None,0.5,7.502747517311946,962.8886392326094,None,None,962.8886392326094,None,,,,,,,,,,,,,,,,,,,24185,2019_Oct_21_1612,Mmi_3levels,3.1.5,59.97100451762503,
,,,3,1,4.5,,,,,,,,,0,2,2,2,0,8,8,9,,,,,,,,,,,,,,,,,,,,,,,,,,,,,,,,,,,,,,,,,,,,,,,,,,,,,,,,,,,,True,False,True,0.5,-0.5,-4.28,-2.1066666666666665,4.5,2.3933333333333335,1.1966666666666668,gamble,lose,2.3933333333333335,50.19333333333329,969.4077819393715,None,969.4077819393715,None,969.4077819393715,None,969.4077819393715,None,969.4077819393715,None,969.4077819393715,None,969.4077819393715,None,1,969.4077819393715,None,970.2747814930044,None,970.2747814930044,None,970.2747814930044,None,970.2747814930044,None,970.2747814930044,None,970.2747814930044,None,970.2747814930044,None,974.2596233503427,None,974.2596233503427,None,974.2596233503427,None,974.2596233503427,None,974.2596233503427,None,974.2596233503427,None,974.2596233503427,None,975.2600332460133,None,0.8338661551242694,,,,,,,,,,,,,,,,,,,,,,,,,,,,,,24185,2019_Oct_21_1612,Mmi_3levels,3.1.5,59.97100451762503,
,,,3,1,11.1,,,,,,,,,0,2,2,2,0,9,9,13,,,,,,,,,,,,,,,,,,,,,,,,,,,,,,,,,,,,,,,,,,,,,,,,,,,,,,,,,,,,True,True,True,0.5,-0.5,-4.78,11.780000000000001,11.1,-0.6800000000000015,-0.34000000000000075,gamble,win,11.1,61.293333333333294,977.2774574945215,None,977.2774574945215,None,977.2774574945215,None,977.2774574945215,None,977.2774574945215,None,977.2774574945215,None,977.2774574945215,None,1,977.2774574945215,None,979.2114665212575,None,979.2114665212575,None,979.2114665212575,None,979.2114665212575,None,979.2114665212575,None,979.2114665212575,None,979.2114665212575,None,983.2129704321269,None,983.2129704321269,None,983.2129704321269,None,983.2129704321269,None,983.2129704321269,None,983.2129704321269,None,983.2129704321269,None,984.19665171823,None,1.9009444240946323,,,,,,,,,,,,,,,,,,,,,,,,,,,,,,24185,2019_Oct_21_1612,Mmi_3levels,3.1.5,59.97100451762503,
,,,3,1,1.5,,,,,,,,,0,2,2,2,0,10,10,11,,,,,,,,,,,,,,,,,,,,,,,,,,,,,,,,,,,,,,,,,,,,,,,,,,,,,,,,,,,,True,False,True,0.5,-0.5,-5.28,-2.19,1.5,-0.69,0.405,gamble,lose,-0.69,60.603333333333296,986.2140900458908,None,986.2140900458908,None,986.2140900458908,None,986.2140900458908,None,986.2140900458908,None,986.2140900458908,None,986.2140900458908,None,1,986.2140900458908,None,987.5479266027687,None,987.5479266027687,None,987.5479266027687,None,987.5479266027687,None,987.5479266027687,None,987.5479266027687,None,987.5479266027687,None,991.5327313423622,None,991.5327313423622,None,991.5327313423622,None,991.5327313423622,None,991.5327313423622,None,991.5327313423622,None,991.5327313423622,None,1001.0363264895277,None,1.3007591549539939,992.5332436319441,None,993.5335101762321,None,0.61,7.502856950857677,996.5345808328129,None,None,996.5345808328129,None,,,,,,,,,,,,,,,,,,,24185,2019_Oct_21_1612,Mmi_3levels,3.1.5,59.97100451762503,
,,,3,1,13.9,,,,,,,,,0,2,2,2,0,11,11,15,,,,,,,,,,,,,,,,,,,,,,,,,,,,,,,,,,,,,,,,,,,,,,,,,,,,,,,,,,,,True,False,True,0.61,-0.39,-5.67,-1.8375,13.9,12.0625,6.03125,gamble,lose,12.0625,72.6658333333333,1003.0537552176975,None,1003.0537552176975,None,1003.0537552176975,None,1003.0537552176975,None,1003.0537552176975,None,1003.0537552176975,None,1003.0537552176975,None,1,1003.0537552176975,None,1004.2375612964388,None,1004.2375612964388,None,1004.2375612964388,None,1004.2375612964388,None,1004.2375612964388,None,1004.2375612964388,None,1004.2375612964388,None,1008.2890955255134,None,1008.2890955255134,None,1008.2890955255134,None,1008.2890955255134,None,1008.2890955255134,None,1008.2890955255134,None,1008.2890955255134,None,1009.2227410537889,None,1.1505418078741059,,,,,,,,,,,,,,,,,,,,,,,,,,,,,,24185,2019_Oct_21_1612,Mmi_3levels,3.1.5,59.97100451762503,
,,,3,1,10.9,,,,,,,,,0,2,2,2,0,12,12,23,,,,,,,,,,,,,,,,,,,,,,,,,,,,,,,,,,,,,,,,,,,,,,,,,,,,,,,,,,,,True,True,True,0.61,-0.39,-6.06,11.52,10.9,-0.6199999999999992,-0.3099999999999996,gamble,win,10.9,83.5658333333333,1011.2401560228318,None,1011.2401560228318,None,1011.2401560228318,None,1011.2401560228318,None,1011.2401560228318,None,1011.2401560228318,None,1011.2401560228318,None,1,1011.2401560228318,None,1012.5906837515067,None,1012.5906837515067,None,1012.5906837515067,None,1012.5906837515067,None,1012.5906837515067,None,1012.5906837515067,None,1012.5906837515067,None,1016.5921646239003,None,1016.5921646239003,None,1016.5921646239003,None,1016.5921646239003,None,1016.5921646239003,None,1016.5921646239003,None,1016.5921646239003,None,1026.0790797985392,None,1.3174308080924675,1017.5758859076304,None,1018.5762452463387,None,0.67,7.502692480687983,1021.5773392615374,None,None,1021.5773392615374,None,,,,,,,,,,,,,,,,,,,24185,2019_Oct_21_1612,Mmi_3levels,3.1.5,59.97100451762503,
,,,3,1,2.7,,,,,,,,,0,2,2,2,0,13,13,19,,,,,,,,,,,,,,,,,,,,,,,,,,,,,,,,,,,,,,,,,,,,,,,,,,,,,,,,,,,,True,False,True,0.67,-0.32999999999999996,-6.39,-1.6874999999999998,2.7,1.0125000000000004,1.8562500000000002,gamble,lose,1.0125000000000004,84.5783333333333,1028.0965242057573,None,1028.0965242057573,None,1028.0965242057573,None,1028.0965242057573,None,1028.0965242057573,None,1028.0965242057573,None,1028.0965242057573,None,1,1028.0965242057573,None,1029.2470036174636,None,1029.2470036174636,None,1029.2470036174636,None,1029.2470036174636,None,1029.2470036174636,None,1029.2470036174636,None,1029.2470036174636,None,1033.2484406523872,None,1033.2484406523872,None,1033.2484406523872,None,1033.2484406523872,None,1033.2484406523872,None,1033.2484406523872,None,1033.2484406523872,None,1034.2321286579827,None,1.117454806691967,,,,,,,,,,,,,,,,,,,,,,,,,,,,,,24185,2019_Oct_21_1612,Mmi_3levels,3.1.5,59.97100451762503,
,,,3,1,3.5,,,,,,,,,0,2,2,2,0,14,14,20,,,,,,,,,,,,,,,,,,,,,,,,,,,,,,,,,,,,,,,,,,,,,,,,,,,,,,,,,,,,True,True,True,0.67,-0.32999999999999996,-6.72,11.34,3.5,-7.84,-2.17,gamble,win,3.5,88.0783333333333,1036.2495842645876,None,1036.2495842645876,None,1036.2495842645876,None,1036.2495842645876,None,1036.2495842645876,None,1036.2495842645876,None,1036.2495842645876,None,1,1036.2495842645876,None,1038.2669541162904,None,1038.2669541162904,None,1038.2669541162904,None,1038.2669541162904,None,1038.2669541162904,None,1038.2669541162904,None,1038.2669541162904,None,1042.2517950137844,None,1042.2517950137844,None,1042.2517950137844,None,1042.2517950137844,None,1042.2517950137844,None,1042.2517950137844,None,1042.2517950137844,None,1043.2521834707586,None,1.9842953296611086,,,,,,,,,,,,,,,,,,,,,,,,,,,,,,24185,2019_Oct_21_1612,Mmi_3levels,3.1.5,59.97100451762503,
,,,3,1,4.1,,,,,,,,,0,2,2,2,0,15,15,26,,,,,,,,,,,,,,,,,,,,,,,,,,,,,,,,,,,,,,,,,,,,,,,,,,,,,,,,,,,,True,True,False,0.67,-0.32999999999999996,-7.05,11.669999999999998,4.1,-7.5699999999999985,-1.7349999999999994,gamble,win,4.1,92.1783333333333,1045.2695993997622,None,1045.2695993997622,None,1045.2695993997622,None,1045.2695993997622,None,1045.2695993997622,None,1045.2695993997622,None,1045.2695993997622,None,1,1045.2695993997622,None,1046.6534381165402,None,1046.6534381165402,None,1046.6534381165402,None,1046.6534381165402,None,1046.6534381165402,None,1046.6534381165402,None,1046.6534381165402,None,1050.6549583465094,None,1050.6549583465094,None,1050.6549583465094,None,1050.6549583465094,None,1050.6549583465094,None,1050.6549583465094,None,1050.6549583465094,None,1060.1419624758419,None,1.350762274931185,1051.6386636311654,None,1052.639085046132,None,0.76,7.502884469227865,1055.6401918606134,None,None,1055.6401918606134,None,,,,,,,,,,,,,,,,,,,24185,2019_Oct_21_1612,Mmi_3levels,3.1.5,59.97100451762503,
,,,3,1,6.9,,,,,,,,,0,2,2,2,0,16,16,14,,,,,,,,,,,,,,,,,,,,,,,,,,,,,,,,,,,,,,,,,,,,,,,,,,,,,,,,,,,,True,True,True,0.76,-0.24,-7.29,10.65,6.9,-3.75,1.5750000000000002,gamble,win,6.9,99.0783333333333,1062.159292009892,None,1062.159292009892,None,1062.159292009892,None,1062.159292009892,None,1062.159292009892,None,1062.159292009892,None,1062.159292009892,None,1,1062.159292009892,None,1063.3930791297462,None,1063.3930791297462,None,1063.3930791297462,None,1063.3930791297462,None,1063.3930791297462,None,1063.3930791297462,None,1063.3930791297462,None,1067.3779008282581,None,1067.3779008282581,None,1067.3779008282581,None,1067.3779008282581,None,1067.3779008282581,None,1067.3779008282581,None,1067.3779008282581,None,1068.3782707264181,None,1.2007084380602464,,,,,,,,,,,,,,,,,,,,,,,,,,,,,,24185,2019_Oct_21_1612,Mmi_3levels,3.1.5,59.97100451762503,
,,,3,1,9.7,,,,,,,,,0,2,2,2,0,17,17,25,,,,,,,,,,,,,,,,,,,,,,,,,,,,,,,,,,,,,,,,,,,,,,,,,,,,,,,,,,,,True,True,False,0.76,-0.24,-7.53,10.89,9.7,-1.1900000000000013,-0.5950000000000006,gamble,win,9.7,108.77833333333331,1070.3957557713147,None,1070.3957557713147,None,1070.3957557713147,None,1070.3957557713147,None,1070.3957557713147,None,1070.3957557713147,None,1070.3957557713147,None,1,1070.3957557713147,None,1071.5628559589386,None,1071.5628559589386,None,1071.5628559589386,None,1071.5628559589386,None,1071.5628559589386,None,1071.5628559589386,None,1071.5628559589386,None,1075.5643141126493,None,1075.5643141126493,None,1075.5643141126493,None,1075.5643141126493,None,1075.5643141126493,None,1075.5643141126493,None,1075.5643141126493,None,1085.0511902495055,None,1.133897353312932,1076.5480891531333,None,1077.5484379325062,None,0.89,7.502742717624642,1080.5494881103514,None,None,1080.5494881103514,None,,,,,,,,,,,,,,,,,,,24185,2019_Oct_21_1612,Mmi_3levels,3.1.5,59.97100451762503,
,,,3,1,-0.1,,,,,,,,,0,2,2,2,0,18,18,12,,,,,,,,,,,,,,,,,,,,,,,,,,,,,,,,,,,,,,,,,,,,,,,,,,,,,,,,,,,,True,False,True,0.89,-0.10999999999999999,-7.640000000000001,-1.0216666666666667,-0.1,-1.1216666666666668,-0.6108333333333335,gamble,lose,-1.1216666666666668,107.65666666666664,1087.0686887336196,None,1087.0686887336196,None,1087.0686887336196,None,1087.0686887336196,None,1087.0686887336196,None,1087.0686887336196,None,1087.0686887336196,None,1,1087.0686887336196,None,1089.5196015596157,None,1089.5196015596157,None,1089.5196015596157,None,1089.5196015596157,None,1089.5196015596157,None,1089.5196015596157,None,1089.5196015596157,None,1093.5210248354124,None,1093.5210248354124,None,1093.5210248354124,None,1093.5210248354124,None,1093.5210248354124,None,1093.5210248354124,None,1093.5210248354124,None,1094.5048014757922,None,2.417882141424343,,,,,,,,,,,,,,,,,,,,,,,,,,,,,,24185,2019_Oct_21_1612,Mmi_3levels,3.1.5,59.97100451762503,
,,,3,1,12.5,,,,,,,,,0,2,2,2,0,19,19,21,,,,,,,,,,,,,,,,,,,,,,,,,,,,,,,,,,,,,,,,,,,,,,,,,,,,,,,,,,,,True,False,True,0.89,-0.10999999999999999,-7.750000000000001,-1.0308333333333333,12.5,11.469166666666666,5.734583333333333,gamble,lose,11.469166666666666,119.1258333333333,1096.522181566921,None,1096.522181566921,None,1096.522181566921,None,1096.522181566921,None,1096.522181566921,None,1096.522181566921,None,1096.522181566921,None,1,1096.522181566921,None,1097.5225572246127,None,1097.5225572246127,None,1097.5225572246127,None,1097.5225572246127,None,1097.5225572246127,None,1097.5225572246127,None,1097.5225572246127,None,1101.5241209720261,None,1101.5241209720261,None,1101.5241209720261,None,1101.5241209720261,None,1101.5241209720261,None,1101.5241209720261,None,1101.5241209720261,None,1111.010960631189,None,0.9672867365879938,1102.5078201771248,None,1103.5081763160415,None,0.83,7.502752957050689,1106.5092309735483,None,None,1106.5092309735483,None,,,,,,,,,,,,,,,,,,,24185,2019_Oct_21_1612,Mmi_3levels,3.1.5,59.97100451762503,
,,,3,1,7.1,,,,,,,,,0,2,2,2,0,20,20,1,,,,,,,,,,,,,,,,,,,,,,,,,,,,,,,,,,,,,,,,,,,,,,,,,,,,,,,,,,,,True,True,True,0.83,-0.17000000000000004,-7.920000000000001,10.3,7.1,-3.200000000000001,1.9499999999999993,gamble,win,7.1,126.2258333333333,1113.0283829597756,None,1113.0283829597756,None,1113.0283829597756,None,1113.0283829597756,None,1113.0283829597756,None,1113.0283829597756,None,1113.0283829597756,None,1,1113.0283829597756,None,1114.662329110084,None,1114.662329110084,None,1114.662329110084,None,1114.662329110084,None,1114.662329110084,None,1114.662329110084,None,1114.662329110084,None,1118.6471456889994,None,1118.6471456889994,None,1118.6471456889994,None,1118.6471456889994,None,1118.6471456889994,None,1118.6471456889994,None,1118.6471456889994,None,1119.6475312662078,None,1.600866828695871,,,,,,,,,,,,,,,,,,,,,,,,,,,,,,24185,2019_Oct_21_1612,Mmi_3levels,3.1.5,59.97100451762503,
,,,3,1,11.3,,,,,,,,,0,2,2,2,0,21,21,17,,,,,,,,,,,,,,,,,,,,,,,,,,,,,,,,,,,,,,,,,,,,,,,,,,,,,,,,,,,,True,True,True,0.83,-0.17000000000000004,-8.090000000000002,10.470000000000002,11.3,0.8299999999999983,0.41499999999999915,gamble,win,11.3,137.5258333333333,1121.6649535947945,None,1121.6649535947945,None,1121.6649535947945,None,1121.6649535947945,None,1121.6649535947945,None,1121.6649535947945,None,1121.6649535947945,None,1,1121.6649535947945,None,1122.982133857673,None,1122.982133857673,None,1122.982133857673,None,1122.982133857673,None,1122.982133857673,None,1122.982133857673,None,1122.982133857673,None,1126.983670406742,None,1126.983670406742,None,1126.983670406742,None,1126.983670406742,None,1126.983670406742,None,1126.983670406742,None,1126.983670406742,None,1127.9673273742665,None,1.2840862221783027,,,,,,,,,,,,,,,,,,,,,,,,,,,,,,24185,2019_Oct_21_1612,Mmi_3levels,3.1.5,59.97100451762503,
,,,3,1,13.5,,,,,,,,,0,2,2,2,0,22,22,10,,,,,,,,,,,,,,,,,,,,,,,,,,,,,,,,,,,,,,,,,,,,,,,,,,,,,,,,,,,,True,False,True,0.83,-0.17000000000000004,-8.260000000000002,-1.2833333333333337,13.5,12.216666666666667,6.108333333333333,gamble,lose,12.216666666666667,149.74249999999998,1129.9847618620843,None,1129.9847618620843,None,1129.9847618620843,None,1129.9847618620843,None,1129.9847618620843,None,1129.9847618620843,None,1129.9847618620843,None,1,1129.9847618620843,None,1130.8517607757822,None,1130.8517607757822,None,1130.8517607757822,None,1130.8517607757822,None,1130.8517607757822,None,1130.8517607757822,None,1130.8517607757822,None,1134.8533475619042,None,1134.8533475619042,None,1134.8533475619042,None,1134.8533475619042,None,1134.8533475619042,None,1134.8533475619042,None,1134.8533475619042,None,1144.3401773015503,None,0.8338879138464108,1135.8369536523242,None,1136.8373270703014,None,0.88,7.502745277481154,1139.8384921213146,None,None,1139.8384921213146,None,,,,,,,,,,,,,,,,,,,24185,2019_Oct_21_1612,Mmi_3levels,3.1.5,59.97100451762503,
,,,3,1,13.7,,,,,,,,,0,2,2,2,0,23,23,7,,,,,,,,,,,,,,,,,,,,,,,,,,,,,,,,,,,,,,,,,,,,,,,,,,,,,,,,,,,,True,False,False,0.88,-0.12,-8.38,-1.1183333333333334,13.7,12.581666666666665,6.290833333333333,gamble,lose,12.581666666666665,162.32416666666666,1146.3576146692503,None,1146.3576146692503,None,1146.3576146692503,None,1146.3576146692503,None,1146.3576146692503,None,1146.3576146692503,None,1146.3576146692503,None,1,1146.3576146692503,None,1147.5913182740333,None,1147.5913182740333,None,1147.5913182740333,None,1147.5913182740333,None,1147.5913182740333,None,1147.5913182740333,None,1147.5913182740333,None,1151.5928621825296,None,1151.5928621825296,None,1151.5928621825296,None,1151.5928621825296,None,1151.5928621825296,None,1151.5928621825296,None,1151.5928621825296,None,1152.5765543479938,None,1.2006348423892632,,,,,,,,,,,,,,,,,,,,,,,,,,,,,,24185,2019_Oct_21_1612,Mmi_3levels,3.1.5,59.97100451762503,
,,,3,1,10.3,,,,,,,,,0,2,2,2,0,24,24,3,,,,,,,,,,,,,,,,,,,,,,,,,,,,,,,,,,,,,,,,,,,,,,,,,,,,,,,,,,,,True,False,False,0.88,-0.12,-8.5,-1.1283333333333334,10.3,9.171666666666667,4.585833333333333,gamble,lose,9.171666666666667,171.49583333333334,1154.5939917156938,None,1154.5939917156938,None,1154.5939917156938,None,1154.5939917156938,None,1154.5939917156938,None,1154.5939917156938,None,1154.5939917156938,None,1,1154.5939917156938,None,1155.4776571627008,None,1155.4776571627008,None,1155.4776571627008,None,1155.4776571627008,None,1155.4776571627008,None,1155.4776571627008,None,1155.4776571627008,None,1159.4791924317833,None,1159.4791924317833,None,1159.4791924317833,None,1159.4791924317833,None,1159.4791924317833,None,1159.4791924317833,None,1159.4791924317833,None,1168.966141204466,None,0.8505970046389848,1160.4628647584468,None,1161.4632356164511,None,0.91,7.5027257587062195,1164.4643433908932,None,None,1164.4643433908932,None,,,,,,,,,,,,,,,,,,,24185,2019_Oct_21_1612,Mmi_3levels,3.1.5,59.97100451762503,
,,,3,1,-0.9,,,,,,,,,0,2,2,2,0,25,25,16,,,,,,,,,,,,,,,,,,,,,,,,,,,,,,,,,,,,,,,,,,,,,,,,,,,,,,,,,,,,True,True,False,0.91,-0.08999999999999997,-8.59,9.85,-0.9,-10.75,-5.825,gamble,win,-0.9,170.59583333333333,1170.9834748982685,None,1170.9834748982685,None,1170.9834748982685,None,1170.9834748982685,None,1170.9834748982685,None,1170.9834748982685,None,1170.9834748982685,None,1,1170.9834748982685,None,1173.1843094088836,None,1173.1843094088836,None,1173.1843094088836,None,1173.1843094088836,None,1173.1843094088836,None,1173.1843094088836,None,1173.1843094088836,None,1177.185808520182,None,1177.185808520182,None,1177.185808520182,None,1177.185808520182,None,1177.185808520182,None,1177.185808520182,None,1177.185808520182,None,1178.1696174786193,None,2.1677167911548167,,,,,,,,,,,,,,,,,,,,,,,,,,,,,,24185,2019_Oct_21_1612,Mmi_3levels,3.1.5,59.97100451762503,
,,,3,1,7.5,,,,,,,,,0,2,2,2,0,26,26,24,,,,,,,,,,,,,,,,,,,,,,,,,,,,,,,,,,,,,,,,,,,,,,,,,,,,,,,,,,,,True,False,True,0.91,-0.08999999999999997,-8.68,-1.038333333333333,7.5,6.461666666666667,3.2308333333333334,gamble,lose,6.461666666666667,177.0575,1180.1869828506606,None,1180.1869828506606,None,1180.1869828506606,None,1180.1869828506606,None,1180.1869828506606,None,1180.1869828506606,None,1180.1869828506606,None,1,1180.1869828506606,None,1181.220694454969,None,1181.220694454969,None,1181.220694454969,None,1181.220694454969,None,1181.220694454969,None,1181.220694454969,None,1181.220694454969,None,1185.2054790356196,None,1185.2054790356196,None,1185.2054790356196,None,1185.2054790356196,None,1185.2054790356196,None,1185.2054790356196,None,1185.2054790356196,None,1194.709107780829,None,1.0006194834131747,1186.2058825318236,None,1187.206283148029,None,0.83,7.502671041875146,1190.2073477250524,None,None,1190.2073477250524,None,,,,,,,,,,,,,,,,,,,24185,2019_Oct_21_1612,Mmi_3levels,3.1.5,59.97100451762503,
,,,,,,,,,,,,,,,,,,,,,,,,,,,,,,0,0,0,0,,,,,,,,,,,,,,,,,,,,,,,,,,,,,,,,,,,,,,,,,,,,,,,,,,,,,,,,,,,,,,,,,,,,,,,,,,,,,,,,,,,,,,,,,,,,,,,,,,,,,,,,,,,,,,,,,,,,,,,,,1196.7098421374103,None,4,1.117289056419395,1196.7098421374103,None,177.0575,4,1197.8602178751025,None,1197.8602178751025,None,1197.8602178751025,None,4,4.785360226756893,1197.8602178751025,None,24185,2019_Oct_21_1612,Mmi_3levels,3.1.5,59.97100451762503,
