currSlide,currImage,currText,blockNum,targetHappiness,highAmount,instructionLoop1.thisRepN,instructionLoop1.thisTrialN,instructionLoop1.thisN,instructionLoop1.thisIndex,instructionLoop2.thisRepN,instructionLoop2.thisTrialN,instructionLoop2.thisN,instructionLoop2.thisIndex,blockLoop.thisRepN,blockLoop.thisTrialN,blockLoop.thisN,blockLoop.thisIndex,trialLoop.thisRepN,trialLoop.thisTrialN,trialLoop.thisN,trialLoop.thisIndex,doRatingLoop.thisRepN,doRatingLoop.thisTrialN,doRatingLoop.thisN,doRatingLoop.thisIndex,trialHappyLoop.thisRepN,trialHappyLoop.thisTrialN,trialHappyLoop.thisN,trialHappyLoop.thisIndex,logWinningsLoop.thisRepN,logWinningsLoop.thisTrialN,logWinningsLoop.thisN,logWinningsLoop.thisIndex,instrImage.started,instrImage.stopped,instrText.started,instrText.stopped,instrContinueText.started,instrContinueText.stopped,instrKeyResp.keys,instrKeyResp.rt,instrKeyResp.started,instrKeyResp.stopped,lifeHappyText.started,lifeHappyText.stopped,lifeHappySlider.response,lifeHappySlider.rt,lifeHappySlider.started,lifeHappySlider.stopped,lifeHappyResp.keys,lifeHappyResp.started,lifeHappyResp.stopped,instrImage_2.started,instrImage_2.stopped,instrText_2.started,instrText_2.stopped,instrContinueText_2.started,instrContinueText_2.stopped,instrKeyResp_2.keys,instrKeyResp_2.rt,instrKeyResp_2.started,instrKeyResp_2.stopped,localizing.started,localizing.stopped,start_exp.keys,start_exp.rt,start_exp.started,start_exp.stopped,blockHappyText.started,blockHappyText.stopped,blockHappySlider.response,blockHappySlider.rt,blockHappySlider.started,blockHappySlider.stopped,blockHappyResp.keys,blockHappyResp.rt,blockHappyResp.started,blockHappyResp.stopped,blankText.started,blankText.stopped,isHappyBlock,isCongruent,isWinOnTop,lastHappyRating,diff,sumDiff,RPE,winAmount,loseAmount,certainAmount,choice,outcome,outcomeAmount,currentWinnings,fixCross.started,fixCross.stopped,certainBox.started,certainBox.stopped,outcome1Box.started,outcome1Box.stopped,outcome2Box.started,outcome2Box.stopped,certainText.started,certainText.stopped,outcome1Text.started,outcome1Text.stopped,outcome2Text.started,outcome2Text.stopped,choiceKey.keys,choiceKey.started,choiceKey.stopped,fixCross_2.started,fixCross_2.stopped,certainBox_2.started,certainBox_2.stopped,outcome1Box_2.started,outcome1Box_2.stopped,outcome2Box_2.started,outcome2Box_2.stopped,certainText_2.started,certainText_2.stopped,outcome1Text_2.started,outcome1Text_2.stopped,outcome2Text_2.started,outcome2Text_2.stopped,fixCross_3.started,fixCross_3.stopped,certainBox_3.started,certainBox_3.stopped,outcome1Box_3.started,outcome1Box_3.stopped,outcome2Box_3.started,outcome2Box_3.stopped,certainText_3.started,certainText_3.stopped,outcome1Text_3.started,outcome1Text_3.stopped,outcome2Text_3.started,outcome2Text_3.stopped,fixCross_ITI.started,fixCross_ITI.stopped,choiceKey.rt,fixCross_ISI.started,fixCross_ISI.stopped,happyText.started,happyText.stopped,happySlider.response,happySlider.rt,happySlider.started,happySlider.stopped,happyResp.keys,happyResp.started,happyResp.stopped,endOfBlockText.started,endOfBlockText.stopped,restKeyResp.keys,restKeyResp.rt,restKeyResp.started,restKeyResp.stopped,finalWinnings,cashBonus,goodbyeText.started,goodbyeText.stopped,finalWinningsText.started,finalWinningsText.stopped,spaceToContinue.started,spaceToContinue.stopped,goodbyeKeyResp_2.keys,goodbyeKeyResp_2.rt,goodbyeKeyResp_2.started,goodbyeKeyResp_2.stopped,participant,date,expName,psychopyVersion,frameRate,
1,black.png,"Welcome! You are about to play our gambling task.
This task has 3 blocks and takes about 15 minutes.",,,,0,0,0,0,,,,,,,,,,,,,,,,,,,,,,,,,9.753602060198318,None,9.753602060198318,None,9.753602060198318,None,4,4.735554001148557,9.753602060198318,None,,,,,,,,,,,,,,,,,,,,,,,,,,,,,,,,,,,,,,,,,,,,,,,,,,,,,,,,,,,,,,,,,,,,,,,,,,,,,,,,,,,,,,,,,,,,,,,,,,,,,,,,,,,,,,,,,,,,,,,,,,,,,,,,,24225,2019_Oct_25_1533,Mmi_3levels,3.1.5,59.963428930216246,
2,black.png,"In this game, you may win or lose points. Your goal is to get as many points as possible. These points will be converted to a cash bonus at the end.
Sometimes we will ask you to rate your mood.",,,,0,1,1,1,,,,,,,,,,,,,,,,,,,,,,,,,14.522194412071258,None,14.522194412071258,None,14.522194412071258,None,4,4.736502433777787,14.522194412071258,None,,,,,,,,,,,,,,,,,,,,,,,,,,,,,,,,,,,,,,,,,,,,,,,,,,,,,,,,,,,,,,,,,,,,,,,,,,,,,,,,,,,,,,,,,,,,,,,,,,,,,,,,,,,,,,,,,,,,,,,,,,,,,,,,,24225,2019_Oct_25_1533,Mmi_3levels,3.1.5,59.963428930216246,
3,black.png,"On the next screen, please rate how you feel about your life these days. Use the LEFT (green) and RIGHT (blue) buttons to move the slider (you can press and hold them to slide gradually) and the TOP (red) button to lock in your response.
Make your rating as accurately and quickly as you can!",,,,0,2,2,2,,,,,,,,,,,,,,,,,,,,,,,,,19.308500759652816,None,19.308500759652816,None,19.308500759652816,None,4,5.46898650820367,19.308500759652816,None,,,,,,,,,,,,,,,,,,,,,,,,,,,,,,,,,,,,,,,,,,,,,,,,,,,,,,,,,,,,,,,,,,,,,,,,,,,,,,,,,,,,,,,,,,,,,,,,,,,,,,,,,,,,,,,,,,,,,,,,,,,,,,,,,24225,2019_Oct_25_1533,Mmi_3levels,3.1.5,59.963428930216246,
,,,,,,,,,,,,,,,,,,,,,,,,,,,,,,,,,,,,,,,,,,,,24.79396100548911,None,0.38,10.502965291962028,28.79543101208401,None,None,28.79543101208401,None,,,,,,,,,,,,,,,,,,,,,,,,,,,,,,,,,,,,,,,,,,,,,,,,,,,,,,,,,,,,,,,,,,,,,,,,,,,,,,,,,,,,,,,,,,,,,,,,,,,,,,,,,,,,,,,,,,,,,,,,24225,2019_Oct_25_1533,Mmi_3levels,3.1.5,59.963428930216246,
4,black.png,"In this game you can win money by earning points according to your choices. You will decide whether to gamble a number of points or stick with a guaranteed number of points. 
Make your choice by pressing the left or right arrow key once. An example of one trial is shown on the next screen.",,,,,,,,0,0,0,0,,,,,,,,,,,,,,,,,,,,,,,,,,,,,,,,,,,,,,,,35.33136713816202,None,35.33136713816202,None,35.33136713816202,None,4,2.56780589511618,35.33136713816202,None,,,,,,,,,,,,,,,,,,,,,,,,,,,,,,,,,,,,,,,,,,,,,,,,,,,,,,,,,,,,,,,,,,,,,,,,,,,,,,,,,,,,,,,,,,,,,,,,,,,,,,,,,,,,,,24225,2019_Oct_25_1533,Mmi_3levels,3.1.5,59.963428930216246,
5,example_start.png,"The GAMBLING OPTION will be shown on the RIGHT SIDE. 
Select this option using the RIGHT (blue) button on your keypad.",,,,,,,,0,1,1,1,,,,,,,,,,,,,,,,,,,,,,,,,,,,,,,,,,,,,,,,37.96558795784949,None,37.96558795784949,None,37.96558795784949,None,4,3.268246769119287,37.96558795784949,None,,,,,,,,,,,,,,,,,,,,,,,,,,,,,,,,,,,,,,,,,,,,,,,,,,,,,,,,,,,,,,,,,,,,,,,,,,,,,,,,,,,,,,,,,,,,,,,,,,,,,,,,,,,,,,24225,2019_Oct_25_1533,Mmi_3levels,3.1.5,59.963428930216246,
6,example_gamble.png,"Once you select the gambling choice, the choice you made will remain on the screen.",,,,,,,,0,2,2,2,,,,,,,,,,,,,,,,,,,,,,,,,,,,,,,,,,,,,,,,41.266901236289414,None,41.266901236289414,None,41.266901236289414,None,4,2.7013131504354533,41.266901236289414,None,,,,,,,,,,,,,,,,,,,,,,,,,,,,,,,,,,,,,,,,,,,,,,,,,,,,,,,,,,,,,,,,,,,,,,,,,,,,,,,,,,,,,,,,,,,,,,,,,,,,,,,,,,,,,,24225,2019_Oct_25_1533,Mmi_3levels,3.1.5,59.963428930216246,
7,example_win.png,"The outcome you received will then be shown on the screen. In this example , you WON 10 points.",,,,,,,,0,3,3,3,,,,,,,,,,,,,,,,,,,,,,,,,,,,,,,,,,,,,,,,44.001285695820116,None,44.001285695820116,None,44.001285695820116,None,4,2.1843709561799187,44.001285695820116,None,,,,,,,,,,,,,,,,,,,,,,,,,,,,,,,,,,,,,,,,,,,,,,,,,,,,,,,,,,,,,,,,,,,,,,,,,,,,,,,,,,,,,,,,,,,,,,,,,,,,,,,,,,,,,,24225,2019_Oct_25_1533,Mmi_3levels,3.1.5,59.963428930216246,
8,example_start.png,"The GUARANTEED OPTION will be shown on the LEFT SIDE. You are 100% guaranteed to gain or lose this amount. In this example, you have a 100% chance of winning 1 point. Select this option using the LEFT (green) button on your keyboard.",,,,,,,,0,4,4,4,,,,,,,,,,,,,,,,,,,,,,,,,,,,,,,,,,,,,,,,46.23549256421393,None,46.23549256421393,None,46.23549256421393,None,4,3.4515083407168277,46.23549256421393,None,,,,,,,,,,,,,,,,,,,,,,,,,,,,,,,,,,,,,,,,,,,,,,,,,,,,,,,,,,,,,,,,,,,,,,,,,,,,,,,,,,,,,,,,,,,,,,,,,,,,,,,,,,,,,,24225,2019_Oct_25_1533,Mmi_3levels,3.1.5,59.963428930216246,
9,example_certain.png,"Once you select the guaranteed choice, your selection will remain on the screen.",,,,,,,,0,5,5,5,,,,,,,,,,,,,,,,,,,,,,,,,,,,,,,,,,,,,,,,49.72015572982491,None,49.72015572982491,None,49.72015572982491,None,4,2.1011053528054617,49.72015572982491,None,,,,,,,,,,,,,,,,,,,,,,,,,,,,,,,,,,,,,,,,,,,,,,,,,,,,,,,,,,,,,,,,,,,,,,,,,,,,,,,,,,,,,,,,,,,,,,,,,,,,,,,,,,,,,,24225,2019_Oct_25_1533,Mmi_3levels,3.1.5,59.963428930216246,
10,black.png,"Please make your choices as fast as possible.
You will be given a break at the end of each block.
Let's play!",,,,,,,,0,6,6,6,,,,,,,,,,,,,,,,,,,,,,,,,,,,,,,,,,,,,,,,51.854345511092106,None,51.854345511092106,None,51.854345511092106,None,4,4.2519035849836655,51.854345511092106,None,,,,,,,,,,,,,,,,,,,,,,,,,,,,,,,,,,,,,,,,,,,,,,,,,,,,,,,,,,,,,,,,,,,,,,,,,,,,,,,,,,,,,,,,,,,,,,,,,,,,,,,,,,,,,,24225,2019_Oct_25_1533,Mmi_3levels,3.1.5,59.963428930216246,
,,,,,,,,,,,,,,,,,,,,,,,,,,,,,,,,,,,,,,,,,,,,,,,,,,,,,,,,,,,,,,,56.12267195622553,None,space,83.78257917365409,56.12267195622553,None,,,,,,,,,,,,,,,,,,,,,,,,,,,,,,,,,,,,,,,,,,,,,,,,,,,,,,,,,,,,,,,,,,,,,,,,,,,,,,,,,,,,,,,,,,,,,,,,,,,,,,,,24225,2019_Oct_25_1533,Mmi_3levels,3.1.5,59.963428930216246,
,,,1,1,4.7,,,,,,,,,0,0,0,0,0,0,0,6,,,,,,,,,,,,,,,,,,,,,,,,,,,,,,,,,,,,,,,,,,,,,,,,139.92159655390424,None,0.66,5.995580700633582,142.9393723065441,None,4,2.9680934327770956,142.9393723065441,None,145.9238959591312,None,True,True,False,0.66,-0.33999999999999997,-0.33999999999999997,5.1,4.7,-0.39999999999999947,-0.19999999999999973,gamble,win,4.7,4.7,148.95841359600308,None,148.95841359600308,None,148.95841359600308,None,148.95841359600308,None,148.95841359600308,None,148.95841359600308,None,148.95841359600308,None,None,148.95841359600308,None,151.95957609798643,None,151.95957609798643,None,151.95957609798643,None,151.95957609798643,None,151.95957609798643,None,151.95957609798643,None,151.95957609798643,None,155.9444370137062,None,155.9444370137062,None,155.9444370137062,None,155.9444370137062,None,155.9444370137062,None,155.9444370137062,None,155.9444370137062,None,156.94482291446184,None,,,,,,,,,,,,,,,,,,,,,,,,,,,,,,,24225,2019_Oct_25_1533,Mmi_3levels,3.1.5,59.963428930216246,
,,,1,1,12.5,,,,,,,,,0,0,0,0,0,1,1,0,,,,,,,,,,,,,,,,,,,,,,,,,,,,,,,,,,,,,,,,,,,,,,,,,,,,,,,,,,,,True,True,False,0.66,-0.33999999999999997,-0.6799999999999999,5.4399999999999995,12.5,7.0600000000000005,3.5300000000000002,gamble,win,12.5,17.2,158.9622834828333,None,158.9622834828333,None,158.9622834828333,None,158.9622834828333,None,158.9622834828333,None,158.9622834828333,None,158.9622834828333,None,None,158.9622834828333,None,161.96337494833278,None,161.96337494833278,None,161.96337494833278,None,161.96337494833278,None,161.96337494833278,None,161.96337494833278,None,161.96337494833278,None,165.96496942875092,None,165.96496942875092,None,165.96496942875092,None,165.96496942875092,None,165.96496942875092,None,165.96496942875092,None,165.96496942875092,None,166.94867648207583,None,,,,,,,,,,,,,,,,,,,,,,,,,,,,,,,24225,2019_Oct_25_1533,Mmi_3levels,3.1.5,59.963428930216246,
,,,1,1,13.5,,,,,,,,,0,0,0,0,0,2,2,26,,,,,,,,,,,,,,,,,,,,,,,,,,,,,,,,,,,,,,,,,,,,,,,,,,,,,,,,,,,,True,True,False,0.66,-0.33999999999999997,-1.02,5.779999999999999,13.5,7.720000000000001,3.8600000000000003,gamble,win,13.5,30.7,168.96611561151803,None,168.96611561151803,None,168.96611561151803,None,168.96611561151803,None,168.96611561151803,None,168.96611561151803,None,168.96611561151803,None,1,168.96611561151803,None,171.85051306241076,None,171.85051306241076,None,171.85051306241076,None,171.85051306241076,None,171.85051306241076,None,171.85051306241076,None,171.85051306241076,None,175.85205666534603,None,175.85205666534603,None,175.85205666534603,None,175.85205666534603,None,175.85205666534603,None,175.85205666534603,None,175.85205666534603,None,185.33904995463672,None,2.8513111025386024,176.8358168360428,None,177.8361048216466,None,0.69,7.503072486608289,180.83728140292806,None,None,180.83728140292806,None,,,,,,,,,,,,,,,,,,,24225,2019_Oct_25_1533,Mmi_3levels,3.1.5,59.963428930216246,
,,,1,1,-1.3,,,,,,,,,0,0,0,0,0,3,3,15,,,,,,,,,,,,,,,,,,,,,,,,,,,,,,,,,,,,,,,,,,,,,,,,,,,,,,,,,,,,True,True,True,0.69,-0.31000000000000005,-1.33,5.670000000000001,-1.3,-6.970000000000001,-4.135000000000001,gamble,win,-1.3,29.4,187.35653292189818,None,187.35653292189818,None,187.35653292189818,None,187.35653292189818,None,187.35653292189818,None,187.35653292189818,None,187.35653292189818,None,None,187.35653292189818,None,190.3576794246619,None,190.3576794246619,None,190.3576794246619,None,190.3576794246619,None,190.3576794246619,None,190.3576794246619,None,190.3576794246619,None,194.35918238962768,None,194.35918238962768,None,194.35918238962768,None,194.35918238962768,None,194.35918238962768,None,194.35918238962768,None,194.35918238962768,None,195.34293200084358,None,,,,,,,,,,,,,,,,,,,,,,,,,,,,,,,24225,2019_Oct_25_1533,Mmi_3levels,3.1.5,59.963428930216246,
,,,1,1,13.1,,,,,,,,,0,0,0,0,0,4,4,2,,,,,,,,,,,,,,,,,,,,,,,,,,,,,,,,,,,,,,,,,,,,,,,,,,,,,,,,,,,,True,True,False,0.69,-0.31000000000000005,-1.6400000000000001,5.98,13.1,7.119999999999999,3.5599999999999996,gamble,win,13.1,42.5,197.36041304818355,None,197.36041304818355,None,197.36041304818355,None,197.36041304818355,None,197.36041304818355,None,197.36041304818355,None,197.36041304818355,None,1,197.36041304818355,None,198.96096386871068,None,198.96096386871068,None,198.96096386871068,None,198.96096386871068,None,198.96096386871068,None,198.96096386871068,None,198.96096386871068,None,202.96249211241957,None,202.96249211241957,None,202.96249211241957,None,202.96249211241957,None,202.96249211241957,None,202.96249211241957,None,202.96249211241957,None,212.4495311594219,None,1.567451032839017,203.94614668836584,None,204.94663754387875,None,0.7,7.502768181817373,207.94778148675687,None,None,207.94778148675687,None,,,,,,,,,,,,,,,,,,,24225,2019_Oct_25_1533,Mmi_3levels,3.1.5,59.963428930216246,
,,,1,1,7.7,,,,,,,,,0,0,0,0,0,5,5,8,,,,,,,,,,,,,,,,,,,,,,,,,,,,,,,,,,,,,,,,,,,,,,,,,,,,,,,,,,,,True,False,False,0.7,-0.30000000000000004,-1.9400000000000002,-1.211666666666667,7.7,6.488333333333333,3.2441666666666666,gamble,lose,6.488333333333333,48.98833333333333,214.46697412867798,None,214.46697412867798,None,214.46697412867798,None,214.46697412867798,None,214.46697412867798,None,214.46697412867798,None,214.46697412867798,None,1,214.46697412867798,None,216.30095649627037,None,216.30095649627037,None,216.30095649627037,None,216.30095649627037,None,216.30095649627037,None,216.30095649627037,None,216.30095649627037,None,220.28587244925438,None,220.28587244925438,None,220.28587244925438,None,220.28587244925438,None,220.28587244925438,None,220.28587244925438,None,220.28587244925438,None,221.28625675008516,None,1.800908178644022,,,,,,,,,,,,,,,,,,,,,,,,,,,,,,24225,2019_Oct_25_1533,Mmi_3levels,3.1.5,59.963428930216246,
,,,1,1,10.1,,,,,,,,,0,0,0,0,0,6,6,10,,,,,,,,,,,,,,,,,,,,,,,,,,,,,,,,,,,,,,,,,,,,,,,,,,,,,,,,,,,,True,False,False,0.7,-0.30000000000000004,-2.24,-1.236666666666667,10.1,8.863333333333333,4.431666666666667,gamble,lose,8.863333333333333,57.85166666666666,223.30370643897913,None,223.30370643897913,None,223.30370643897913,None,223.30370643897913,None,223.30370643897913,None,223.30370643897913,None,223.30370643897913,None,1,223.30370643897913,None,224.75421034984174,None,224.75421034984174,None,224.75421034984174,None,224.75421034984174,None,224.75421034984174,None,224.75421034984174,None,224.75421034984174,None,228.73907958515338,None,228.73907958515338,None,228.73907958515338,None,228.73907958515338,None,228.73907958515338,None,228.73907958515338,None,228.73907958515338,None,229.73950708381017,None,1.4174185224692337,,,,,,,,,,,,,,,,,,,,,,,,,,,,,,24225,2019_Oct_25_1533,Mmi_3levels,3.1.5,59.963428930216246,
,,,1,1,7.9,,,,,,,,,0,0,0,0,0,7,7,24,,,,,,,,,,,,,,,,,,,,,,,,,,,,,,,,,,,,,,,,,,,,,,,,,,,,,,,,,,,,True,True,False,0.7,-0.30000000000000004,-2.54,6.740000000000001,7.9,1.1599999999999993,0.5799999999999996,certain,certain,0.5799999999999996,58.43166666666666,231.756951013027,None,231.756951013027,None,231.756951013027,None,231.756951013027,None,231.756951013027,None,231.756951013027,None,231.756951013027,None,3,231.756951013027,None,234.6914227641828,None,234.6914227641828,None,234.6914227641828,None,234.6914227641828,None,234.6914227641828,None,234.6914227641828,None,234.6914227641828,None,238.67627888015704,None,238.67627888015704,None,238.67627888015704,None,238.67627888015704,None,238.67627888015704,None,238.67627888015704,None,238.67627888015704,None,248.17989149983623,None,2.9013825229776558,239.67667278050794,None,240.67706412097323,None,0.75,7.502740983152762,243.67814726690995,None,None,243.67814726690995,None,,,,,,,,,,,,,,,,,,,24225,2019_Oct_25_1533,Mmi_3levels,3.1.5,59.963428930216246,
,,,1,1,-1.1,,,,,,,,,0,0,0,0,0,8,8,21,,,,,,,,,,,,,,,,,,,,,,,,,,,,,,,,,,,,,,,,,,,,,,,,,,,,,,,,,,,,True,True,False,0.75,-0.25,-2.79,6.29,-1.1,-7.390000000000001,-4.245,gamble,win,-1.1,57.331666666666656,250.19738886636333,None,250.19738886636333,None,250.19738886636333,None,250.19738886636333,None,250.19738886636333,None,250.19738886636333,None,250.19738886636333,None,None,250.19738886636333,None,253.1985433687223,None,253.1985433687223,None,253.1985433687223,None,253.1985433687223,None,253.1985433687223,None,253.1985433687223,None,253.1985433687223,None,257.20008409180446,None,257.20008409180446,None,257.20008409180446,None,257.20008409180446,None,257.20008409180446,None,257.20008409180446,None,257.20008409180446,None,258.1837940250116,None,,,,,,,,,,,,,,,,,,,,,,,,,,,,,,,24225,2019_Oct_25_1533,Mmi_3levels,3.1.5,59.963428930216246,
,,,1,1,0.3,,,,,,,,,0,0,0,0,0,9,9,3,,,,,,,,,,,,,,,,,,,,,,,,,,,,,,,,,,,,,,,,,,,,,,,,,,,,,,,,,,,,True,True,False,0.75,-0.25,-3.04,6.54,0.3,-6.24,-2.97,certain,certain,-2.97,54.36166666666666,260.2012328344572,None,260.2012328344572,None,260.2012328344572,None,260.2012328344572,None,260.2012328344572,None,260.2012328344572,None,260.2012328344572,None,3,260.2012328344572,None,262.96892123145517,None,262.96892123145517,None,262.96892123145517,None,262.96892123145517,None,262.96892123145517,None,262.96892123145517,None,262.96892123145517,None,266.9537853470538,None,266.9537853470538,None,266.9537853470538,None,266.9537853470538,None,266.9537853470538,None,266.9537853470538,None,266.9537853470538,None,276.4574882021989,None,2.734588929306483,267.95422148526995,None,268.9546096259146,None,0.79,7.502860977168893,271.95570045144996,None,None,271.95570045144996,None,,,,,,,,,,,,,,,,,,,24225,2019_Oct_25_1533,Mmi_3levels,3.1.5,59.963428930216246,
,,,1,1,12.1,,,,,,,,,0,0,0,0,0,10,10,17,,,,,,,,,,,,,,,,,,,,,,,,,,,,,,,,,,,,,,,,,,,,,,,,,,,,,,,,,,,,True,True,True,0.79,-0.20999999999999996,-3.25,6.1899999999999995,12.1,5.91,2.955,gamble,win,12.1,66.46166666666666,278.4748556552222,None,278.4748556552222,None,278.4748556552222,None,278.4748556552222,None,278.4748556552222,None,278.4748556552222,None,278.4748556552222,None,1,278.4748556552222,None,280.84243826550664,None,280.84243826550664,None,280.84243826550664,None,280.84243826550664,None,280.84243826550664,None,280.84243826550664,None,280.84243826550664,None,284.82736573790316,None,284.82736573790316,None,284.82736573790316,None,284.82736573790316,None,284.82736573790316,None,284.82736573790316,None,284.82736573790316,None,285.8277193202521,None,2.3345794577908237,,,,,,,,,,,,,,,,,,,,,,,,,,,,,,24225,2019_Oct_25_1533,Mmi_3levels,3.1.5,59.963428930216246,
,,,1,1,9.1,,,,,,,,,0,0,0,0,0,11,11,22,,,,,,,,,,,,,,,,,,,,,,,,,,,,,,,,,,,,,,,,,,,,,,,,,,,,,,,,,,,,True,True,True,0.79,-0.20999999999999996,-3.46,6.3999999999999995,9.1,2.7,1.35,gamble,win,9.1,75.56166666666665,287.8452102871088,None,287.8452102871088,None,287.8452102871088,None,287.8452102871088,None,287.8452102871088,None,287.8452102871088,None,287.8452102871088,None,1,287.8452102871088,None,290.36278604972176,None,290.36278604972176,None,290.36278604972176,None,290.36278604972176,None,290.36278604972176,None,290.36278604972176,None,290.36278604972176,None,294.364387889771,None,294.364387889771,None,294.364387889771,None,294.364387889771,None,294.364387889771,None,294.364387889771,None,294.364387889771,None,303.85137253950234,None,2.484600448748097,295.34808662353316,None,296.34837268924457,None,0.81,7.502157972281566,299.3495777490898,None,None,299.3495777490898,None,,,,,,,,,,,,,,,,,,,24225,2019_Oct_25_1533,Mmi_3levels,3.1.5,59.963428930216246,
,,,1,1,9.7,,,,,,,,,0,0,0,0,0,12,12,9,,,,,,,,,,,,,,,,,,,,,,,,,,,,,,,,,,,,,,,,,,,,,,,,,,,,,,,,,,,,True,True,True,0.81,-0.18999999999999995,-3.65,6.309999999999999,9.7,3.3900000000000006,1.6950000000000003,gamble,win,9.7,85.26166666666666,305.86876239138655,None,305.86876239138655,None,305.86876239138655,None,305.86876239138655,None,305.86876239138655,None,305.86876239138655,None,305.86876239138655,None,1,305.86876239138655,None,308.1530150815088,None,308.1530150815088,None,308.1530150815088,None,308.1530150815088,None,308.1530150815088,None,308.1530150815088,None,308.1530150815088,None,312.1545574045158,None,312.1545574045158,None,312.1545574045158,None,312.1545574045158,None,312.1545574045158,None,312.1545574045158,None,312.1545574045158,None,313.188300680049,None,2.251254657370737,,,,,,,,,,,,,,,,,,,,,,,,,,,,,,24225,2019_Oct_25_1533,Mmi_3levels,3.1.5,59.963428930216246,
,,,1,1,0.1,,,,,,,,,0,0,0,0,0,13,13,20,,,,,,,,,,,,,,,,,,,,,,,,,,,,,,,,,,,,,,,,,,,,,,,,,,,,,,,,,,,,True,True,True,0.81,-0.18999999999999995,-3.84,6.499999999999999,0.1,-6.3999999999999995,-3.15,gamble,win,0.1,85.36166666666665,315.2057190105261,None,315.2057190105261,None,315.2057190105261,None,315.2057190105261,None,315.2057190105261,None,315.2057190105261,None,315.2057190105261,None,1,315.2057190105261,None,317.8734367180441,None,317.8734367180441,None,317.8734367180441,None,317.8734367180441,None,317.8734367180441,None,317.8734367180441,None,317.8734367180441,None,321.8749025648867,None,321.8749025648867,None,321.8749025648867,None,321.8749025648867,None,321.8749025648867,None,321.8749025648867,None,321.8749025648867,None,322.858674254996,None,2.634580801735865,,,,,,,,,,,,,,,,,,,,,,,,,,,,,,24225,2019_Oct_25_1533,Mmi_3levels,3.1.5,59.963428930216246,
,,,1,1,4.5,,,,,,,,,0,0,0,0,0,14,14,16,,,,,,,,,,,,,,,,,,,,,,,,,,,,,,,,,,,,,,,,,,,,,,,,,,,,,,,,,,,,True,True,True,0.81,-0.18999999999999995,-4.029999999999999,6.689999999999999,4.5,-2.1899999999999986,1.1550000000000007,gamble,win,4.5,89.86166666666665,324.87608970561996,None,324.87608970561996,None,324.87608970561996,None,324.87608970561996,None,324.87608970561996,None,324.87608970561996,None,324.87608970561996,None,1,324.87608970561996,None,326.8101915552397,None,326.8101915552397,None,326.8101915552397,None,326.8101915552397,None,326.8101915552397,None,326.8101915552397,None,326.8101915552397,None,330.7950755098427,None,330.7950755098427,None,330.7950755098427,None,330.7950755098427,None,330.7950755098427,None,330.7950755098427,None,330.7950755098427,None,340.2987358071259,None,1.9010759782977402,331.79546237053,None,332.79584795128903,None,0.75,7.502883696026402,335.7969205377449,None,None,335.7969205377449,None,,,,,,,,,,,,,,,,,,,24225,2019_Oct_25_1533,Mmi_3levels,3.1.5,59.963428930216246,
,,,1,1,-0.5,,,,,,,,,0,0,0,0,0,15,15,18,,,,,,,,,,,,,,,,,,,,,,,,,,,,,,,,,,,,,,,,,,,,,,,,,,,,,,,,,,,,True,True,True,0.75,-0.25,-4.279999999999999,7.779999999999999,-0.5,-8.28,-4.39,certain,certain,-4.39,85.47166666666665,342.3160949405574,None,342.3160949405574,None,342.3160949405574,None,342.3160949405574,None,342.3160949405574,None,342.3160949405574,None,342.3160949405574,None,3,342.3160949405574,None,344.20014872858883,None,344.20014872858883,None,344.20014872858883,None,344.20014872858883,None,344.20014872858883,None,344.20014872858883,None,344.20014872858883,None,348.2017377692682,None,348.2017377692682,None,348.2017377692682,None,348.2017377692682,None,348.2017377692682,None,348.2017377692682,None,348.2017377692682,None,349.1854870604875,None,1.8509869587433059,,,,,,,,,,,,,,,,,,,,,,,,,,,,,,24225,2019_Oct_25_1533,Mmi_3levels,3.1.5,59.963428930216246,
,,,1,1,2.5,,,,,,,,,0,0,0,0,0,16,16,1,,,,,,,,,,,,,,,,,,,,,,,,,,,,,,,,,,,,,,,,,,,,,,,,,,,,,,,,,,,,True,False,False,0.75,-0.25,-4.529999999999999,-1.2525,2.5,1.2475,1.87375,gamble,lose,1.2475,86.71916666666665,351.2029229901091,None,351.2029229901091,None,351.2029229901091,None,351.2029229901091,None,351.2029229901091,None,351.2029229901091,None,351.2029229901091,None,1,351.2029229901091,None,352.1032508457429,None,352.1032508457429,None,352.1032508457429,None,352.1032508457429,None,352.1032508457429,None,352.1032508457429,None,352.1032508457429,None,356.08816999857663,None,356.08816999857663,None,356.08816999857663,None,356.08816999857663,None,356.08816999857663,None,356.08816999857663,None,356.08816999857663,None,365.59177237874246,None,0.8672546266752761,357.0885024619638,None,358.0889104416128,None,0.77,7.502676986361621,361.09000030718744,None,None,361.09000030718744,None,,,,,,,,,,,,,,,,,,,24225,2019_Oct_25_1533,Mmi_3levels,3.1.5,59.963428930216246,
,,,1,1,2.1,,,,,,,,,0,0,0,0,0,17,17,7,,,,,,,,,,,,,,,,,,,,,,,,,,,,,,,,,,,,,,,,,,,,,,,,,,,,,,,,,,,,True,False,True,0.77,-0.22999999999999998,-4.76,-1.2016666666666667,2.1,0.8983333333333334,1.4991666666666668,gamble,lose,0.8983333333333334,87.61749999999998,367.6091827096243,None,367.6091827096243,None,367.6091827096243,None,367.6091827096243,None,367.6091827096243,None,367.6091827096243,None,367.6091827096243,None,1,367.6091827096243,None,369.143135894672,None,369.143135894672,None,369.143135894672,None,369.143135894672,None,369.143135894672,None,369.143135894672,None,369.143135894672,None,373.12796481201076,None,373.12796481201076,None,373.12796481201076,None,373.12796481201076,None,373.12796481201076,None,373.12796481201076,None,373.12796481201076,None,374.1284047900408,None,1.5009669917344581,,,,,,,,,,,,,,,,,,,,,,,,,,,,,,24225,2019_Oct_25_1533,Mmi_3levels,3.1.5,59.963428930216246,
,,,1,1,5.3,,,,,,,,,0,0,0,0,0,18,18,14,,,,,,,,,,,,,,,,,,,,,,,,,,,,,,,,,,,,,,,,,,,,,,,,,,,,,,,,,,,,True,True,False,0.77,-0.22999999999999998,-4.99,8.21,5.3,-2.910000000000001,1.1949999999999994,gamble,win,5.3,92.91749999999998,376.14583144010976,None,376.14583144010976,None,376.14583144010976,None,376.14583144010976,None,376.14583144010976,None,376.14583144010976,None,376.14583144010976,None,1,376.14583144010976,None,378.2466340880492,None,378.2466340880492,None,378.2466340880492,None,378.2466340880492,None,378.2466340880492,None,378.2466340880492,None,378.2466340880492,None,382.2315023634292,None,382.2315023634292,None,382.2315023634292,None,382.2315023634292,None,382.2315023634292,None,382.2315023634292,None,382.2315023634292,None,383.23188698422746,None,2.0677511778776534,,,,,,,,,,,,,,,,,,,,,,,,,,,,,,24225,2019_Oct_25_1533,Mmi_3levels,3.1.5,59.963428930216246,
,,,1,1,-0.7,,,,,,,,,0,0,0,0,0,19,19,5,,,,,,,,,,,,,,,,,,,,,,,,,,,,,,,,,,,,,,,,,,,,,,,,,,,,,,,,,,,,True,False,True,0.77,-0.22999999999999998,-5.220000000000001,-1.24,-0.7,-1.94,-1.3199999999999998,certain,certain,-1.3199999999999998,91.59749999999998,385.24927651611506,None,385.24927651611506,None,385.24927651611506,None,385.24927651611506,None,385.24927651611506,None,385.24927651611506,None,385.24927651611506,None,3,385.24927651611506,None,387.15006578873727,None,387.15006578873727,None,387.15006578873727,None,387.15006578873727,None,387.15006578873727,None,387.15006578873727,None,387.15006578873727,None,391.15158731277916,None,391.15158731277916,None,391.15158731277916,None,391.15158731277916,None,391.15158731277916,None,391.15158731277916,None,391.15158731277916,None,400.638552123477,None,1.8676494869287126,392.1352636476513,None,393.1356687474181,None,0.78,7.50262226909399,396.1367870916147,None,None,396.1367870916147,None,,,,,,,,,,,,,,,,,,,24225,2019_Oct_25_1533,Mmi_3levels,3.1.5,59.963428930216246,
,,,1,1,12.7,,,,,,,,,0,0,0,0,0,20,20,23,,,,,,,,,,,,,,,,,,,,,,,,,,,,,,,,,,,,,,,,,,,,,,,,,,,,,,,,,,,,True,False,True,0.78,-0.21999999999999997,-5.44,-1.2233333333333332,12.7,11.476666666666667,5.738333333333333,gamble,lose,11.476666666666667,103.07416666666666,402.65603509073844,None,402.65603509073844,None,402.65603509073844,None,402.65603509073844,None,402.65603509073844,None,402.65603509073844,None,402.65603509073844,None,1,402.65603509073844,None,404.0231697233685,None,404.0231697233685,None,404.0231697233685,None,404.0231697233685,None,404.0231697233685,None,404.0231697233685,None,404.0231697233685,None,408.0247395650076,None,408.0247395650076,None,408.0247395650076,None,408.0247395650076,None,408.0247395650076,None,408.0247395650076,None,408.0247395650076,None,409.00843509892,None,1.3341228406061418,,,,,,,,,,,,,,,,,,,,,,,,,,,,,,24225,2019_Oct_25_1533,Mmi_3levels,3.1.5,59.963428930216246,
,,,1,1,-1.5,,,,,,,,,0,0,0,0,0,21,21,19,,,,,,,,,,,,,,,,,,,,,,,,,,,,,,,,,,,,,,,,,,,,,,,,,,,,,,,,,,,,True,True,False,0.78,-0.21999999999999997,-5.66,8.74,-1.5,-10.24,-5.87,certain,certain,-5.87,97.20416666666665,411.0259203060705,None,411.0259203060705,None,411.0259203060705,None,411.0259203060705,None,411.0259203060705,None,411.0259203060705,None,411.0259203060705,None,3,411.0259203060705,None,412.32636098808143,None,412.32636098808143,None,412.32636098808143,None,412.32636098808143,None,412.32636098808143,None,412.32636098808143,None,412.32636098808143,None,416.3279250699852,None,416.3279250699852,None,416.3279250699852,None,416.3279250699852,None,416.3279250699852,None,416.3279250699852,None,416.3279250699852,None,425.81494203809416,None,1.26734281424433,417.31171371927485,None,418.31205834206776,None,0.81,7.502806579897879,421.31319940509275,None,None,421.31319940509275,None,,,,,,,,,,,,,,,,,,,24225,2019_Oct_25_1533,Mmi_3levels,3.1.5,59.963428930216246,
,,,1,1,8.3,,,,,,,,,0,0,0,0,0,22,22,12,,,,,,,,,,,,,,,,,,,,,,,,,,,,,,,,,,,,,,,,,,,,,,,,,,,,,,,,,,,,True,False,False,0.81,-0.18999999999999995,-5.85,-1.1524999999999999,8.3,7.147500000000001,3.5737500000000004,gamble,lose,7.147500000000001,104.35166666666666,427.8323885271675,None,427.8323885271675,None,427.8323885271675,None,427.8323885271675,None,427.8323885271675,None,427.8323885271675,None,427.8323885271675,None,1,427.8323885271675,None,428.8160440631036,None,428.8160440631036,None,428.8160440631036,None,428.8160440631036,None,428.8160440631036,None,428.8160440631036,None,428.8160440631036,None,432.80096481586224,None,432.80096481586224,None,432.80096481586224,None,432.80096481586224,None,432.80096481586224,None,432.80096481586224,None,432.80096481586224,None,433.80135263648117,None,0.9505755872523878,,,,,,,,,,,,,,,,,,,,,,,,,,,,,,24225,2019_Oct_25_1533,Mmi_3levels,3.1.5,59.963428930216246,
,,,1,1,7.5,,,,,,,,,0,0,0,0,0,23,23,11,,,,,,,,,,,,,,,,,,,,,,,,,,,,,,,,,,,,,,,,,,,,,,,,,,,,,,,,,,,,True,True,False,0.81,-0.18999999999999995,-6.039999999999999,8.7,7.5,-1.1999999999999993,-0.5999999999999996,certain,certain,-0.5999999999999996,103.75166666666667,435.81877352684387,None,435.81877352684387,None,435.81877352684387,None,435.81877352684387,None,435.81877352684387,None,435.81877352684387,None,435.81877352684387,None,3,435.81877352684387,None,437.18595231726067,None,437.18595231726067,None,437.18595231726067,None,437.18595231726067,None,437.18595231726067,None,437.18595231726067,None,437.18595231726067,None,441.18747576122405,None,441.18747576122405,None,441.18747576122405,None,441.18747576122405,None,441.18747576122405,None,441.18747576122405,None,441.18747576122405,None,450.67443961199024,None,1.3340866823855322,442.1712132130633,None,443.1716205527191,None,0.76,7.502783541043755,446.17271073829033,None,None,446.17271073829033,None,,,,,,,,,,,,,,,,,,,24225,2019_Oct_25_1533,Mmi_3levels,3.1.5,59.963428930216246,
,,,1,1,5.7,,,,,,,,,0,0,0,0,0,24,24,13,,,,,,,,,,,,,,,,,,,,,,,,,,,,,,,,,,,,,,,,,,,,,,,,,,,,,,,,,,,,True,True,False,0.76,-0.24,-6.279999999999999,9.639999999999999,5.7,-3.9399999999999986,0.8800000000000008,gamble,win,5.7,109.45166666666667,452.69195553759346,None,452.69195553759346,None,452.69195553759346,None,452.69195553759346,None,452.69195553759346,None,452.69195553759346,None,452.69195553759346,None,1,452.69195553759346,None,454.62599051056895,None,454.62599051056895,None,454.62599051056895,None,454.62599051056895,None,454.62599051056895,None,454.62599051056895,None,454.62599051056895,None,458.6274957154237,None,458.6274957154237,None,458.6274957154237,None,458.6274957154237,None,458.6274957154237,None,458.6274957154237,None,458.6274957154237,None,459.61124116685824,None,1.900937425205484,,,,,,,,,,,,,,,,,,,,,,,,,,,,,,24225,2019_Oct_25_1533,Mmi_3levels,3.1.5,59.963428930216246,
,,,1,1,1.5,,,,,,,,,0,0,0,0,0,25,25,4,,,,,,,,,,,,,,,,,,,,,,,,,,,,,,,,,,,,,,,,,,,,,,,,,,,,,,,,,,,,True,False,False,0.76,-0.24,-6.52,-1.3833333333333333,1.5,0.1166666666666667,0.8083333333333333,gamble,lose,0.1166666666666667,109.56833333333333,461.62870781493257,None,461.62870781493257,None,461.62870781493257,None,461.62870781493257,None,461.62870781493257,None,461.62870781493257,None,461.62870781493257,None,1,461.62870781493257,None,462.59573410096345,None,462.59573410096345,None,462.59573410096345,None,462.59573410096345,None,462.59573410096345,None,462.59573410096345,None,462.59573410096345,None,466.5806062161573,None,466.5806062161573,None,466.5806062161573,None,466.5806062161573,None,466.5806062161573,None,466.5806062161573,None,466.5806062161573,None,467.5810199554835,None,0.9339328980713617,,,,,,,,,,,,,,,,,,,,,,,,,,,,,,24225,2019_Oct_25_1533,Mmi_3levels,3.1.5,59.963428930216246,
,,,1,1,6.7,,,,,,,,,0,0,0,0,0,26,26,25,,,,,,,,,,,,,,,,,,,,,,,,,,,,,,,,,,,,,,,,,,,,,,,,,,,,,,,,,,,,True,True,True,0.76,-0.24,-6.76,10.12,6.7,-3.419999999999999,1.6400000000000006,gamble,win,6.7,116.26833333333333,469.5985176420072,None,469.5985176420072,None,469.5985176420072,None,469.5985176420072,None,469.5985176420072,None,469.5985176420072,None,469.5985176420072,None,1,469.5985176420072,None,471.1490619988472,None,471.1490619988472,None,471.1490619988472,None,471.1490619988472,None,471.1490619988472,None,471.1490619988472,None,471.1490619988472,None,475.15059632225893,None,475.15059632225893,None,475.15059632225893,None,475.15059632225893,None,475.15059632225893,None,475.15059632225893,None,475.15059632225893,None,484.6375531333615,None,1.5174781674868427,476.13435297310934,None,477.13469343612087,None,0.87,7.502791540668113,480.1358399388846,None,None,480.1358399388846,None,,,,,,,,,,,,,,,,,,,24225,2019_Oct_25_1533,Mmi_3levels,3.1.5,59.963428930216246,
,,,2,0,8.5,,,,,,,,,0,1,1,1,0,0,0,18,,,,,,,,,,,,,,,,,,,,,,,,,,,,,,,,,,,,,,,,,,,,,,,,489.67281697297585,None,0.8,6.518114935723133,492.6906301637646,None,4,3.4849354720208794,492.6906301637646,None,496.1920080149721,None,False,False,False,0.8,0.8,0.8,2.866666666666667,2.125,-0.7416666666666671,0.6916666666666664,gamble,win,2.125,118.39333333333333,499.22653173154686,None,499.22653173154686,None,499.22653173154686,None,499.22653173154686,None,499.22653173154686,None,499.22653173154686,None,499.22653173154686,None,1,499.22653173154686,None,501.5774335745373,None,501.5774335745373,None,501.5774335745373,None,501.5774335745373,None,501.5774335745373,None,501.5774335745373,None,501.5774335745373,None,505.56235752711655,None,505.56235752711655,None,505.56235752711655,None,505.56235752711655,None,505.56235752711655,None,505.56235752711655,None,505.56235752711655,None,506.5627328683913,None,2.317799495474901,,,,,,,,,,,,486.63840461085783,None,4,3.0178995864407625,486.63840461085783,None,,,,,,,,,,,,,24225,2019_Oct_25_1533,Mmi_3levels,3.1.5,59.963428930216246,
,,,2,0,12.9,,,,,,,,,0,1,1,1,0,1,1,4,,,,,,,,,,,,,,,,,,,,,,,,,,,,,,,,,,,,,,,,,,,,,,,,,,,,,,,,,,,,False,False,False,0.8,0.8,1.6,2.9333333333333336,3.225,0.2916666666666665,1.7583333333333333,gamble,win,3.225,121.61833333333333,508.5800785624888,None,508.5800785624888,None,508.5800785624888,None,508.5800785624888,None,508.5800785624888,None,508.5800785624888,None,508.5800785624888,None,1,508.5800785624888,None,509.46383796521695,None,509.46383796521695,None,509.46383796521695,None,509.46383796521695,None,509.46383796521695,None,509.46383796521695,None,509.46383796521695,None,513.4486592029571,None,513.4486592029571,None,513.4486592029571,None,513.4486592029571,None,513.4486592029571,None,513.4486592029571,None,513.4486592029571,None,522.952280142199,None,0.8506266566982958,514.4490214248654,None,515.44942140489,None,0.76,7.502752182626864,518.4505823069485,None,None,518.4505823069485,None,,,,,,,,,,,,,,,,,,,24225,2019_Oct_25_1533,Mmi_3levels,3.1.5,59.963428930216246,
,,,2,0,2.7,,,,,,,,,0,1,1,1,0,2,2,26,,,,,,,,,,,,,,,,,,,,,,,,,,,,,,,,,,,,,,,,,,,,,,,,,,,,,,,,,,,,False,True,False,0.76,0.76,2.3600000000000003,-13.0,2.7,-10.3,-3.8000000000000003,certain,certain,-3.8000000000000003,117.81833333333333,524.9697672692419,None,524.9697672692419,None,524.9697672692419,None,524.9697672692419,None,524.9697672692419,None,524.9697672692419,None,524.9697672692419,None,3,524.9697672692419,None,526.7204459553468,None,526.7204459553468,None,526.7204459553468,None,526.7204459553468,None,526.7204459553468,None,526.7204459553468,None,526.7204459553468,None,530.7219511602016,None,530.7219511602016,None,530.7219511602016,None,530.7219511602016,None,530.7219511602016,None,530.7219511602016,None,530.7219511602016,None,531.7056889320083,None,1.717531860806048,,,,,,,,,,,,,,,,,,,,,,,,,,,,,,24225,2019_Oct_25_1533,Mmi_3levels,3.1.5,59.963428930216246,
,,,2,0,-1.5,,,,,,,,,0,1,1,1,0,3,3,24,,,,,,,,,,,,,,,,,,,,,,,,,,,,,,,,,,,,,,,,,,,,,,,,,,,,,,,,,,,,False,False,True,0.76,0.76,3.12,2.92,-0.375,-3.295,-1.835,certain,certain,-1.835,115.98333333333333,533.7231200618553,None,533.7231200618553,None,533.7231200618553,None,533.7231200618553,None,533.7231200618553,None,533.7231200618553,None,533.7231200618553,None,3,533.7231200618553,None,535.1236651866348,None,535.1236651866348,None,535.1236651866348,None,535.1236651866348,None,535.1236651866348,None,535.1236651866348,None,535.1236651866348,None,539.1251883106015,None,539.1251883106015,None,539.1251883106015,None,539.1251883106015,None,539.1251883106015,None,539.1251883106015,None,539.1251883106015,None,548.6121966391511,None,1.3674571765586734,540.1088953639555,None,541.1093129431247,None,0.77,7.502769141778117,544.1104568860028,None,None,544.1104568860028,None,,,,,,,,,,,,,,,,,,,24225,2019_Oct_25_1533,Mmi_3levels,3.1.5,59.963428930216246,
,,,2,0,8.3,,,,,,,,,0,1,1,1,0,4,4,12,,,,,,,,,,,,,,,,,,,,,,,,,,,,,,,,,,,,,,,,,,,,,,,,,,,,,,,,,,,,False,True,True,0.77,0.77,3.89,-14.670000000000002,8.3,-6.370000000000001,0.9649999999999999,gamble,lose,-6.370000000000001,109.61333333333333,550.6296024902549,None,550.6296024902549,None,550.6296024902549,None,550.6296024902549,None,550.6296024902549,None,550.6296024902549,None,550.6296024902549,None,1,550.6296024902549,None,553.1639495756535,None,553.1639495756535,None,553.1639495756535,None,553.1639495756535,None,553.1639495756535,None,553.1639495756535,None,553.1639495756535,None,557.1654410212068,None,557.1654410212068,None,557.1654410212068,None,557.1654410212068,None,557.1654410212068,None,557.1654410212068,None,557.1654410212068,None,558.1491938322433,None,2.501300095114857,,,,,,,,,,,,,,,,,,,,,,,,,,,,,,24225,2019_Oct_25_1533,Mmi_3levels,3.1.5,59.963428930216246,
,,,2,0,5.7,,,,,,,,,0,1,1,1,0,5,5,6,,,,,,,,,,,,,,,,,,,,,,,,,,,,,,,,,,,,,,,,,,,,,,,,,,,,,,,,,,,,False,True,True,0.77,0.77,4.66,-15.440000000000001,5.7,-9.740000000000002,-2.020000000000001,certain,certain,-2.020000000000001,107.59333333333333,560.1666422412382,None,560.1666422412382,None,560.1666422412382,None,560.1666422412382,None,560.1666422412382,None,560.1666422412382,None,560.1666422412382,None,3,560.1666422412382,None,562.4675286609854,None,562.4675286609854,None,562.4675286609854,None,562.4675286609854,None,562.4675286609854,None,562.4675286609854,None,562.4675286609854,None,566.4690725839173,None,566.4690725839173,None,566.4690725839173,None,566.4690725839173,None,566.4690725839173,None,566.4690725839173,None,566.4690725839173,None,567.4528010761715,None,2.2678227903088555,,,,,,,,,,,,,,,,,,,,,,,,,,,,,,24225,2019_Oct_25_1533,Mmi_3levels,3.1.5,59.963428930216246,
,,,2,0,6.5,,,,,,,,,0,1,1,1,0,6,6,0,,,,,,,,,,,,,,,,,,,,,,,,,,,,,,,,,,,,,,,,,,,,,,,,,,,,,,,,,,,,False,True,False,0.77,0.77,5.43,-16.21,6.5,-9.71,-1.6050000000000004,certain,certain,-1.6050000000000004,105.98833333333333,569.470187728235,None,569.470187728235,None,569.470187728235,None,569.470187728235,None,569.470187728235,None,569.470187728235,None,569.470187728235,None,3,569.470187728235,None,571.4876406170079,None,571.4876406170079,None,571.4876406170079,None,571.4876406170079,None,571.4876406170079,None,571.4876406170079,None,571.4876406170079,None,575.4892107786145,None,575.4892107786145,None,575.4892107786145,None,575.4892107786145,None,575.4892107786145,None,575.4892107786145,None,575.4892107786145,None,584.9761845488683,None,1.984395338979084,576.4729251915996,None,577.4732906133577,None,0.69,7.502763702039374,580.474449275498,None,None,580.474449275498,None,,,,,,,,,,,,,,,,,,,24225,2019_Oct_25_1533,Mmi_3levels,3.1.5,59.963428930216246,
,,,2,0,1.1,,,,,,,,,0,1,1,1,0,7,7,13,,,,,,,,,,,,,,,,,,,,,,,,,,,,,,,,,,,,,,,,,,,,,,,,,,,,,,,,,,,,False,True,False,0.69,0.69,6.119999999999999,-15.78,1.1,-14.68,-6.79,certain,certain,-6.79,99.19833333333332,586.9935571216338,None,586.9935571216338,None,586.9935571216338,None,586.9935571216338,None,586.9935571216338,None,586.9935571216338,None,586.9935571216338,None,3,586.9935571216338,None,589.2111958571186,None,589.2111958571186,None,589.2111958571186,None,589.2111958571186,None,589.2111958571186,None,589.2111958571186,None,589.2111958571186,None,593.2126866627077,None,593.2126866627077,None,593.2126866627077,None,593.2126866627077,None,593.2126866627077,None,593.2126866627077,None,593.2126866627077,None,594.1963773968455,None,2.184533188090427,,,,,,,,,,,,,,,,,,,,,,,,,,,,,,24225,2019_Oct_25_1533,Mmi_3levels,3.1.5,59.963428930216246,
,,,2,0,12.3,,,,,,,,,0,1,1,1,0,8,8,23,,,,,,,,,,,,,,,,,,,,,,,,,,,,,,,,,,,,,,,,,,,,,,,,,,,,,,,,,,,,False,True,False,0.69,0.69,6.809999999999999,-16.47,12.3,-4.169999999999998,-2.084999999999999,gamble,lose,-4.169999999999998,95.02833333333332,596.213849164662,None,596.213849164662,None,596.213849164662,None,596.213849164662,None,596.213849164662,None,596.213849164662,None,596.213849164662,None,1,596.213849164662,None,597.6476598288282,None,597.6476598288282,None,597.6476598288282,None,597.6476598288282,None,597.6476598288282,None,597.6476598288282,None,597.6476598288282,None,601.6325988206663,None,601.6325988206663,None,601.6325988206663,None,601.6325988206663,None,601.6325988206663,None,601.6325988206663,None,601.6325988206663,None,611.1362635977275,None,1.4007844728184864,602.633004880423,None,603.6333818215935,None,0.61,7.50279986023088,606.6345728021406,None,None,606.6345728021406,None,,,,,,,,,,,,,,,,,,,24225,2019_Oct_25_1533,Mmi_3levels,3.1.5,59.963428930216246,
,,,2,0,3.5,,,,,,,,,0,1,1,1,0,9,9,5,,,,,,,,,,,,,,,,,,,,,,,,,,,,,,,,,,,,,,,,,,,,,,,,,,,,,,,,,,,,False,True,False,0.61,0.61,7.419999999999999,-15.959999999999997,3.5,-12.459999999999997,-4.479999999999999,gamble,lose,-12.459999999999997,82.56833333333333,613.1537091268401,None,613.1537091268401,None,613.1537091268401,None,613.1537091268401,None,613.1537091268401,None,613.1537091268401,None,613.1537091268401,None,1,613.1537091268401,None,614.9710491252481,None,614.9710491252481,None,614.9710491252481,None,614.9710491252481,None,614.9710491252481,None,614.9710491252481,None,614.9710491252481,None,618.9725607297732,None,618.9725607297732,None,618.9725607297732,None,618.9725607297732,None,618.9725607297732,None,618.9725607297732,None,618.9725607297732,None,619.9563221803983,None,1.7842280513141304,,,,,,,,,,,,,,,,,,,,,,,,,,,,,,24225,2019_Oct_25_1533,Mmi_3levels,3.1.5,59.963428930216246,
,,,2,0,9.1,,,,,,,,,0,1,1,1,0,10,10,20,,,,,,,,,,,,,,,,,,,,,,,,,,,,,,,,,,,,,,,,,,,,,,,,,,,,,,,,,,,,False,True,True,0.61,0.61,8.03,-16.57,9.1,-7.470000000000001,0.8149999999999995,gamble,lose,-7.470000000000001,75.09833333333333,621.9737657896185,None,621.9737657896185,None,621.9737657896185,None,621.9737657896185,None,621.9737657896185,None,621.9737657896185,None,621.9737657896185,None,1,621.9737657896185,None,623.8911315147416,None,623.8911315147416,None,623.8911315147416,None,623.8911315147416,None,623.8911315147416,None,623.8911315147416,None,623.8911315147416,None,627.8927147956856,None,627.8927147956856,None,627.8927147956856,None,627.8927147956856,None,627.8927147956856,None,627.8927147956856,None,627.8927147956856,None,628.876367131772,None,1.8843206547026057,,,,,,,,,,,,,,,,,,,,,,,,,,,,,,24225,2019_Oct_25_1533,Mmi_3levels,3.1.5,59.963428930216246,
,,,2,0,4.5,,,,,,,,,0,1,1,1,0,11,11,22,,,,,,,,,,,,,,,,,,,,,,,,,,,,,,,,,,,,,,,,,,,,,,,,,,,,,,,,,,,,False,True,False,0.61,0.61,8.639999999999999,-17.18,4.5,-12.68,-4.09,certain,certain,-4.09,71.00833333333333,630.8938808174862,None,630.8938808174862,None,630.8938808174862,None,630.8938808174862,None,630.8938808174862,None,630.8938808174862,None,630.8938808174862,None,3,630.8938808174862,None,633.1613535452343,None,633.1613535452343,None,633.1613535452343,None,633.1613535452343,None,633.1613535452343,None,633.1613535452343,None,633.1613535452343,None,637.1628702695307,None,637.1628702695307,None,637.1628702695307,None,637.1628702695307,None,637.1628702695307,None,637.1628702695307,None,637.1628702695307,None,646.649920515978,None,2.2343969389039557,638.1466045215202,None,639.1470115412085,None,0.52,7.502809779747622,642.1481743631593,None,None,642.1481743631593,None,,,,,,,,,,,,,,,,,,,24225,2019_Oct_25_1533,Mmi_3levels,3.1.5,59.963428930216246,
,,,2,0,7.7,,,,,,,,,0,1,1,1,0,12,12,2,,,,,,,,,,,,,,,,,,,,,,,,,,,,,,,,,,,,,,,,,,,,,,,,,,,,,,,,,,,,False,False,True,0.52,0.52,9.159999999999998,2.583333333333333,1.925,-0.658333333333333,0.6333333333333335,gamble,win,1.925,72.93333333333332,648.6673375665268,None,648.6673375665268,None,648.6673375665268,None,648.6673375665268,None,648.6673375665268,None,648.6673375665268,None,648.6673375665268,None,1,648.6673375665268,None,650.5514031939674,None,650.5514031939674,None,650.5514031939674,None,650.5514031939674,None,650.5514031939674,None,650.5514031939674,None,650.5514031939674,None,654.5362657096412,None,654.5362657096412,None,654.5362657096412,None,654.5362657096412,None,654.5362657096412,None,654.5362657096412,None,654.5362657096412,None,655.5366832887812,None,1.850776089268038,,,,,,,,,,,,,,,,,,,,,,,,,,,,,,24225,2019_Oct_25_1533,Mmi_3levels,3.1.5,59.963428930216246,
,,,2,0,8.7,,,,,,,,,0,1,1,1,0,13,13,8,,,,,,,,,,,,,,,,,,,,,,,,,,,,,,,,,,,,,,,,,,,,,,,,,,,,,,,,,,,,False,True,False,0.52,0.52,9.679999999999998,-16.959999999999997,8.7,-8.259999999999998,0.22000000000000064,gamble,lose,-8.259999999999998,64.67333333333332,657.5541169784847,None,657.5541169784847,None,657.5541169784847,None,657.5541169784847,None,657.5541169784847,None,657.5541169784847,None,657.5541169784847,None,1,657.5541169784847,None,660.0216984368162,None,660.0216984368162,None,660.0216984368162,None,660.0216984368162,None,660.0216984368162,None,660.0216984368162,None,660.0216984368162,None,664.0065964707173,None,664.0065964707173,None,664.0065964707173,None,664.0065964707173,None,664.0065964707173,None,664.0065964707173,None,664.0065964707173,None,673.510266047524,None,2.4345107892295346,665.0069887711434,None,666.0073490731593,None,0.59,7.502815859421389,669.0084654974053,None,None,669.0084654974053,None,,,,,,,,,,,,,,,,,,,24225,2019_Oct_25_1533,Mmi_3levels,3.1.5,59.963428930216246,
,,,2,0,0.3,,,,,,,,,0,1,1,1,0,14,14,7,,,,,,,,,,,,,,,,,,,,,,,,,,,,,,,,,,,,,,,,,,,,,,,,,,,,,,,,,,,,False,False,True,0.59,0.59,10.269999999999998,2.920833333333333,0.075,-2.8458333333333328,-1.3854166666666663,gamble,win,0.075,64.74833333333332,675.5277048569988,None,675.5277048569988,None,675.5277048569988,None,675.5277048569988,None,675.5277048569988,None,675.5277048569988,None,675.5277048569988,None,None,675.5277048569988,None,678.5288132816495,None,678.5288132816495,None,678.5288132816495,None,678.5288132816495,None,678.5288132816495,None,678.5288132816495,None,678.5288132816495,None,682.5136985161807,None,682.5136985161807,None,682.5136985161807,None,682.5136985161807,None,682.5136985161807,None,682.5136985161807,None,682.5136985161807,None,683.514076417312,None,,,,,,,,,,,,,,,,,,,,,,,,,,,,,,,24225,2019_Oct_25_1533,Mmi_3levels,3.1.5,59.963428930216246,
,,,2,0,5.1,,,,,,,,,0,1,1,1,0,15,15,3,,,,,,,,,,,,,,,,,,,,,,,,,,,,,,,,,,,,,,,,,,,,,,,,,,,,,,,,,,,,False,True,True,0.59,0.59,10.859999999999998,-19.119999999999997,5.1,-14.019999999999998,-4.459999999999999,certain,certain,-4.459999999999999,60.28833333333332,685.5315584246127,None,685.5315584246127,None,685.5315584246127,None,685.5315584246127,None,685.5315584246127,None,685.5315584246127,None,685.5315584246127,None,3,685.5315584246127,None,687.7990938692528,None,687.7990938692528,None,687.7990938692528,None,687.7990938692528,None,687.7990938692528,None,687.7990938692528,None,687.7990938692528,None,691.8005817949597,None,691.8005817949597,None,691.8005817949597,None,691.8005817949597,None,691.8005817949597,None,691.8005817949597,None,691.8005817949597,None,701.2876163622132,None,2.234284304548055,692.7843397257675,None,693.7847214667127,None,0.58,7.502817459346261,696.785870529362,None,None,696.785870529362,None,,,,,,,,,,,,,,,,,,,24225,2019_Oct_25_1533,Mmi_3levels,3.1.5,59.963428930216246,
,,,2,0,13.3,,,,,,,,,0,1,1,1,0,16,16,11,,,,,,,,,,,,,,,,,,,,,,,,,,,,,,,,,,,,,,,,,,,,,,,,,,,,,,,,,,,,False,True,False,0.58,0.58,11.439999999999998,-19.559999999999995,13.3,-6.2599999999999945,-3.1299999999999972,gamble,lose,-6.2599999999999945,54.02833333333332,703.3050615713291,None,703.3050615713291,None,703.3050615713291,None,703.3050615713291,None,703.3050615713291,None,703.3050615713291,None,703.3050615713291,None,1,703.3050615713291,None,705.5392262018286,None,705.5392262018286,None,705.5392262018286,None,705.5392262018286,None,705.5392262018286,None,705.5392262018286,None,705.5392262018286,None,709.5407986033533,None,709.5407986033533,None,709.5407986033533,None,709.5407986033533,None,709.5407986033533,None,709.5407986033533,None,709.5407986033533,None,710.5244912574126,None,2.201087881694548,,,,,,,,,,,,,,,,,,,,,,,,,,,,,,24225,2019_Oct_25_1533,Mmi_3levels,3.1.5,59.963428930216246,
,,,2,0,11.9,,,,,,,,,0,1,1,1,0,17,17,10,,,,,,,,,,,,,,,,,,,,,,,,,,,,,,,,,,,,,,,,,,,,,,,,,,,,,,,,,,,,False,False,True,0.58,0.58,12.019999999999998,3.0316666666666663,2.975,-0.0566666666666662,1.459166666666667,gamble,win,2.975,57.00333333333332,712.5419342266687,None,712.5419342266687,None,712.5419342266687,None,712.5419342266687,None,712.5419342266687,None,712.5419342266687,None,712.5419342266687,None,1,712.5419342266687,None,714.576063722925,None,714.576063722925,None,714.576063722925,None,714.576063722925,None,714.576063722925,None,714.576063722925,None,714.576063722925,None,718.560979675909,None,718.560979675909,None,718.560979675909,None,718.560979675909,None,718.560979675909,None,718.560979675909,None,718.560979675909,None,719.5612638217281,None,2.001031308522215,,,,,,,,,,,,,,,,,,,,,,,,,,,,,,24225,2019_Oct_25_1533,Mmi_3levels,3.1.5,59.963428930216246,
,,,2,0,9.9,,,,,,,,,0,1,1,1,0,18,18,19,,,,,,,,,,,,,,,,,,,,,,,,,,,,,,,,,,,,,,,,,,,,,,,,,,,,,,,,,,,,False,False,False,0.58,0.58,12.599999999999998,3.0799999999999996,2.475,-0.6049999999999995,0.9350000000000003,gamble,win,2.475,59.478333333333325,721.5787019912095,None,721.5787019912095,None,721.5787019912095,None,721.5787019912095,None,721.5787019912095,None,721.5787019912095,None,721.5787019912095,None,1,721.5787019912095,None,723.5628490225936,None,723.5628490225936,None,723.5628490225936,None,723.5628490225936,None,723.5628490225936,None,723.5628490225936,None,723.5628490225936,None,727.5476741001185,None,727.5476741001185,None,727.5476741001185,None,727.5476741001185,None,727.5476741001185,None,727.5476741001185,None,727.5476741001185,None,737.0513465568074,None,1.9510619629872963,728.5480548811029,None,729.5484916593123,None,0.56,7.502874736499507,732.5495840847725,None,None,732.5495840847725,None,,,,,,,,,,,,,,,,,,,24225,2019_Oct_25_1533,Mmi_3levels,3.1.5,59.963428930216246,
,,,2,0,12.7,,,,,,,,,0,1,1,1,0,19,19,16,,,,,,,,,,,,,,,,,,,,,,,,,,,,,,,,,,,,,,,,,,,,,,,,,,,,,,,,,,,,False,True,True,0.56,0.56,13.159999999999998,-21.0,12.7,-8.3,-4.15,gamble,lose,-8.3,51.17833333333333,739.0687828063674,None,739.0687828063674,None,739.0687828063674,None,739.0687828063674,None,739.0687828063674,None,739.0687828063674,None,739.0687828063674,None,1,739.0687828063674,None,741.5698454733356,None,741.5698454733356,None,741.5698454733356,None,741.5698454733356,None,741.5698454733356,None,741.5698454733356,None,741.5698454733356,None,745.5713257194438,None,745.5713257194438,None,745.5713257194438,None,745.5713257194438,None,745.5713257194438,None,745.5713257194438,None,745.5713257194438,None,746.5550343726936,None,2.467926081153564,,,,,,,,,,,,,,,,,,,,,,,,,,,,,,24225,2019_Oct_25_1533,Mmi_3levels,3.1.5,59.963428930216246,
,,,2,0,4.9,,,,,,,,,0,1,1,1,0,20,20,25,,,,,,,,,,,,,,,,,,,,,,,,,,,,,,,,,,,,,,,,,,,,,,,,,,,,,,,,,,,,False,True,True,0.56,0.56,13.719999999999999,-21.56,4.9,-16.659999999999997,-5.879999999999998,certain,certain,-5.879999999999998,45.29833333333333,748.5724251845386,None,748.5724251845386,None,748.5724251845386,None,748.5724251845386,None,748.5724251845386,None,748.5724251845386,None,748.5724251845386,None,3,748.5724251845386,None,750.4731590998999,None,750.4731590998999,None,750.4731590998999,None,750.4731590998999,None,750.4731590998999,None,750.4731590998999,None,750.4731590998999,None,754.4747609399492,None,754.4747609399492,None,754.4747609399492,None,754.4747609399492,None,754.4747609399492,None,754.4747609399492,None,754.4747609399492,None,763.9617225508264,None,1.8676414873625617,755.4584324750758,None,756.45885069418,None,0.44,7.502741303149378,759.4599309602636,None,None,759.4599309602636,None,,,,,,,,,,,,,,,,,,,24225,2019_Oct_25_1533,Mmi_3levels,3.1.5,59.963428930216246,
,,,2,0,0.1,,,,,,,,,0,1,1,1,0,21,21,21,,,,,,,,,,,,,,,,,,,,,,,,,,,,,,,,,,,,,,,,,,,,,,,,,,,,,,,,,,,,False,True,False,0.44,0.44,14.159999999999998,-20.32,0.1,-20.22,-10.059999999999999,certain,certain,-10.059999999999999,35.23833333333333,765.9791495208628,None,765.9791495208628,None,765.9791495208628,None,765.9791495208628,None,765.9791495208628,None,765.9791495208628,None,765.9791495208628,None,3,765.9791495208628,None,768.4634408650454,None,768.4634408650454,None,768.4634408650454,None,768.4634408650454,None,768.4634408650454,None,768.4634408650454,None,768.4634408650454,None,772.4483017807943,None,772.4483017807943,None,772.4483017807943,None,772.4483017807943,None,772.4483017807943,None,772.4483017807943,None,772.4483017807943,None,773.4486665625882,None,2.451226114790188,,,,,,,,,,,,,,,,,,,,,,,,,,,,,,24225,2019_Oct_25_1533,Mmi_3levels,3.1.5,59.963428930216246,
,,,2,0,2.9,,,,,,,,,0,1,1,1,0,22,22,17,,,,,,,,,,,,,,,,,,,,,,,,,,,,,,,,,,,,,,,,,,,,,,,,,,,,,,,,,,,,False,True,True,0.44,0.44,14.599999999999998,-20.759999999999998,2.9,-17.86,-7.4799999999999995,certain,certain,-7.4799999999999995,27.75833333333333,775.46613353063,None,775.46613353063,None,775.46613353063,None,775.46613353063,None,775.46613353063,None,775.46613353063,None,775.46613353063,None,3,775.46613353063,None,777.3335196707048,None,777.3335196707048,None,777.3335196707048,None,777.3335196707048,None,777.3335196707048,None,777.3335196707048,None,777.3335196707048,None,781.3350591138587,None,781.3350591138587,None,781.3350591138587,None,781.3350591138587,None,781.3350591138587,None,781.3350591138587,None,781.3350591138587,None,790.8220479233714,None,1.8342905122262891,782.3187888860703,None,783.319144068344,None,0.54,7.502788980782498,786.3202668922895,None,None,786.3202668922895,None,,,,,,,,,,,,,,,,,,,24225,2019_Oct_25_1533,Mmi_3levels,3.1.5,59.963428930216246,
,,,2,0,13.5,,,,,,,,,0,1,1,1,0,23,23,14,,,,,,,,,,,,,,,,,,,,,,,,,,,,,,,,,,,,,,,,,,,,,,,,,,,,,,,,,,,,False,True,True,0.54,0.54,15.139999999999997,-22.699999999999996,13.5,-9.199999999999996,-4.599999999999998,gamble,lose,-9.199999999999996,18.558333333333334,792.839500172151,None,792.839500172151,None,792.839500172151,None,792.839500172151,None,792.839500172151,None,792.839500172151,None,792.839500172151,None,1,792.839500172151,None,794.7568863762426,None,794.7568863762426,None,794.7568863762426,None,794.7568863762426,None,794.7568863762426,None,794.7568863762426,None,794.7568863762426,None,798.7584632575163,None,798.7584632575163,None,798.7584632575163,None,798.7584632575163,None,798.7584632575163,None,798.7584632575163,None,798.7584632575163,None,799.74217351072,None,1.8843123351107351,,,,,,,,,,,,,,,,,,,,,,,,,,,,,,24225,2019_Oct_25_1533,Mmi_3levels,3.1.5,59.963428930216246,
,,,2,0,1.3,,,,,,,,,0,1,1,1,0,24,24,1,,,,,,,,,,,,,,,,,,,,,,,,,,,,,,,,,,,,,,,,,,,,,,,,,,,,,,,,,,,,False,True,False,0.54,0.54,15.679999999999996,-23.239999999999995,1.3,-21.939999999999994,-10.319999999999997,certain,certain,-10.319999999999997,8.238333333333337,801.759582241677,None,801.759582241677,None,801.759582241677,None,801.759582241677,None,801.759582241677,None,801.759582241677,None,801.759582241677,None,3,801.759582241677,None,803.877018939238,None,803.877018939238,None,803.877018939238,None,803.877018939238,None,803.877018939238,None,803.877018939238,None,803.877018939238,None,807.8786006202572,None,807.8786006202572,None,807.8786006202572,None,807.8786006202572,None,807.8786006202572,None,807.8786006202572,None,807.8786006202572,None,808.8623271926481,None,2.0844530641043093,,,,,,,,,,,,,,,,,,,,,,,,,,,,,,24225,2019_Oct_25_1533,Mmi_3levels,3.1.5,59.963428930216246,
,,,2,0,13.1,,,,,,,,,0,1,1,1,0,25,25,9,,,,,,,,,,,,,,,,,,,,,,,,,,,,,,,,,,,,,,,,,,,,,,,,,,,,,,,,,,,,False,True,False,0.54,0.54,16.219999999999995,-23.779999999999994,13.1,-10.679999999999994,1.2100000000000026,gamble,lose,-10.679999999999994,-2.4416666666666575,810.8797567225702,None,810.8797567225702,None,810.8797567225702,None,810.8797567225702,None,810.8797567225702,None,810.8797567225702,None,810.8797567225702,None,1,810.8797567225702,None,813.4474477434123,None,813.4474477434123,None,813.4474477434123,None,813.4474477434123,None,813.4474477434123,None,813.4474477434123,None,813.4474477434123,None,817.4490351841669,None,817.4490351841669,None,817.4490351841669,None,817.4490351841669,None,817.4490351841669,None,817.4490351841669,None,817.4490351841669,None,826.9359727962583,None,2.5346005127357785,818.4326987196982,None,819.4330865403463,None,0.38,7.502914734504884,822.4342096842593,None,None,822.4342096842593,None,,,,,,,,,,,,,,,,,,,24225,2019_Oct_25_1533,Mmi_3levels,3.1.5,59.963428930216246,
,,,2,0,10.5,,,,,,,,,0,1,1,1,0,26,26,15,,,,,,,,,,,,,,,,,,,,,,,,,,,,,,,,,,,,,,,,,,,,,,,,,,,,,,,,,,,,False,True,True,0.38,0.38,16.599999999999994,-21.919999999999995,10.5,-11.419999999999995,-0.4599999999999973,gamble,lose,-11.419999999999995,-13.861666666666652,828.9534125656646,None,828.9534125656646,None,828.9534125656646,None,828.9534125656646,None,828.9534125656646,None,828.9534125656646,None,828.9534125656646,None,None,828.9534125656646,None,831.9545651481312,None,831.9545651481312,None,831.9545651481312,None,831.9545651481312,None,831.9545651481312,None,831.9545651481312,None,831.9545651481312,None,835.9560735528357,None,835.9560735528357,None,835.9560735528357,None,835.9560735528357,None,835.9560735528357,None,835.9560735528357,None,835.9560735528357,None,836.9397873258276,None,,,,,,,,,,,,,,,,,,,,,,,,,,,,,,,24225,2019_Oct_25_1533,Mmi_3levels,3.1.5,59.963428930216246,
,,,3,1,10.1,,,,,,,,,0,2,2,2,0,0,0,4,,,,,,,,,,,,,,,,,,,,,,,,,,,,,,,,,,,,,,,,,,,,,,,,840.457766268315,None,0.33,6.034878578851931,843.4589322901156,None,4,3.0181133357982617,843.4589322901156,None,846.4934716859134,None,True,False,True,0.33,-0.6699999999999999,-0.6699999999999999,-2.400833333333333,10.1,7.699166666666667,3.8495833333333334,gamble,lose,7.699166666666667,-6.162499999999985,849.527949964744,None,849.527949964744,None,849.527949964744,None,849.527949964744,None,849.527949964744,None,849.527949964744,None,849.527949964744,None,1,849.527949964744,None,851.0118256496789,None,851.0118256496789,None,851.0118256496789,None,851.0118256496789,None,851.0118256496789,None,851.0118256496789,None,851.0118256496789,None,855.0133996510995,None,855.0133996510995,None,855.0133996510995,None,855.0133996510995,None,855.0133996510995,None,855.0133996510995,None,855.0133996510995,None,864.5004322984314,None,1.4508350943215191,855.997149582312,None,856.9974887653661,None,0.58,7.502935213473393,859.9986759060994,None,None,859.9986759060994,None,838.9405290487921,None,4,1.5008188391220756,838.9405290487921,None,,,,,,,,,,,,,24225,2019_Oct_25_1533,Mmi_3levels,3.1.5,59.963428930216246,
,,,3,1,12.1,,,,,,,,,0,2,2,2,0,1,1,24,,,,,,,,,,,,,,,,,,,,,,,,,,,,,,,,,,,,,,,,,,,,,,,,,,,,,,,,,,,,True,True,False,0.58,-0.42000000000000004,-1.0899999999999999,6.970000000000001,12.1,5.129999999999999,2.5649999999999995,gamble,win,12.1,5.937500000000014,866.5178416693525,None,866.5178416693525,None,866.5178416693525,None,866.5178416693525,None,866.5178416693525,None,866.5178416693525,None,866.5178416693525,None,1,866.5178416693525,None,868.3685646412778,None,868.3685646412778,None,868.3685646412778,None,868.3685646412778,None,868.3685646412778,None,868.3685646412778,None,868.3685646412778,None,872.3533970784338,None,872.3533970784338,None,872.3533970784338,None,872.3533970784338,None,872.3533970784338,None,872.3533970784338,None,872.3533970784338,None,873.3538898538391,None,1.8176171045633964,,,,,,,,,,,,,,,,,,,,,,,,,,,,,,24225,2019_Oct_25_1533,Mmi_3levels,3.1.5,59.963428930216246,
,,,3,1,8.5,,,,,,,,,0,2,2,2,0,2,2,6,,,,,,,,,,,,,,,,,,,,,,,,,,,,,,,,,,,,,,,,,,,,,,,,,,,,,,,,,,,,True,True,False,0.58,-0.42000000000000004,-1.5099999999999998,7.390000000000001,8.5,1.1099999999999994,0.5549999999999997,gamble,win,8.5,14.437500000000014,875.3712451474566,None,875.3712451474566,None,875.3712451474566,None,875.3712451474566,None,875.3712451474566,None,875.3712451474566,None,875.3712451474566,None,1,875.3712451474566,None,876.7051264001057,None,876.7051264001057,None,876.7051264001057,None,876.7051264001057,None,876.7051264001057,None,876.7051264001057,None,876.7051264001057,None,880.6899540375161,None,880.6899540375161,None,880.6899540375161,None,880.6899540375161,None,880.6899540375161,None,880.6899540375161,None,880.6899540375161,None,881.6903783363232,None,1.3007872246962506,,,,,,,,,,,,,,,,,,,,,,,,,,,,,,24225,2019_Oct_25_1533,Mmi_3levels,3.1.5,59.963428930216246,
,,,3,1,4.5,,,,,,,,,0,2,2,2,0,3,3,18,,,,,,,,,,,,,,,,,,,,,,,,,,,,,,,,,,,,,,,,,,,,,,,,,,,,,,,,,,,,True,True,True,0.58,-0.42000000000000004,-1.9299999999999997,7.8100000000000005,4.5,-3.3100000000000005,0.5949999999999998,gamble,win,4.5,18.937500000000014,883.7078629035095,None,883.7078629035095,None,883.7078629035095,None,883.7078629035095,None,883.7078629035095,None,883.7078629035095,None,883.7078629035095,None,1,883.7078629035095,None,886.5255174461927,None,886.5255174461927,None,886.5255174461927,None,886.5255174461927,None,886.5255174461927,None,886.5255174461927,None,886.5255174461927,None,890.5104429986968,None,890.5104429986968,None,890.5104429986968,None,890.5104429986968,None,890.5104429986968,None,890.5104429986968,None,890.5104429986968,None,900.0140917765384,None,2.7845710742112715,891.5107687424461,None,892.5111716023239,None,0.68,7.502824499009876,895.5123398640135,None,None,895.5123398640135,None,,,,,,,,,,,,,,,,,,,24225,2019_Oct_25_1533,Mmi_3levels,3.1.5,59.963428930216246,
,,,3,1,8.9,,,,,,,,,0,2,2,2,0,4,4,8,,,,,,,,,,,,,,,,,,,,,,,,,,,,,,,,,,,,,,,,,,,,,,,,,,,,,,,,,,,,True,False,False,0.68,-0.31999999999999995,-2.2499999999999996,-1.3074999999999999,8.9,7.5925,3.79625,gamble,lose,7.5925,26.530000000000015,902.0315206664964,None,902.0315206664964,None,902.0315206664964,None,902.0315206664964,None,902.0315206664964,None,902.0315206664964,None,902.0315206664964,None,1,902.0315206664964,None,903.9155968534178,None,903.9155968534178,None,903.9155968534178,None,903.9155968534178,None,903.9155968534178,None,903.9155968534178,None,903.9155968534178,None,907.917133096722,None,907.917133096722,None,907.917133096722,None,907.917133096722,None,907.917133096722,None,907.917133096722,None,907.917133096722,None,908.900842389965,None,1.8509795990830753,,,,,,,,,,,,,,,,,,,,,,,,,,,,,,24225,2019_Oct_25_1533,Mmi_3levels,3.1.5,59.963428930216246,
,,,3,1,11.7,,,,,,,,,0,2,2,2,0,5,5,1,,,,,,,,,,,,,,,,,,,,,,,,,,,,,,,,,,,,,,,,,,,,,,,,,,,,,,,,,,,,True,True,True,0.68,-0.31999999999999995,-2.5699999999999994,7.049999999999999,11.7,4.65,2.325,gamble,win,11.7,38.23000000000002,910.9182789595216,None,910.9182789595216,None,910.9182789595216,None,910.9182789595216,None,910.9182789595216,None,910.9182789595216,None,910.9182789595216,None,1,910.9182789595216,None,911.9519934364944,None,911.9519934364944,None,911.9519934364944,None,911.9519934364944,None,911.9519934364944,None,911.9519934364944,None,911.9519934364944,None,915.9368828308361,None,915.9368828308361,None,915.9368828308361,None,915.9368828308361,None,915.9368828308361,None,915.9368828308361,None,915.9368828308361,None,925.4404848910053,None,1.000646687723929,916.937268411566,None,917.9376165542053,None,0.77,7.502737463335507,920.9387956953433,None,None,920.9387956953433,None,,,,,,,,,,,,,,,,,,,24225,2019_Oct_25_1533,Mmi_3levels,3.1.5,59.963428930216246,
,,,3,1,6.5,,,,,,,,,0,2,2,2,0,6,6,20,,,,,,,,,,,,,,,,,,,,,,,,,,,,,,,,,,,,,,,,,,,,,,,,,,,,,,,,,,,,True,True,True,0.77,-0.22999999999999998,-2.7999999999999994,6.02,6.5,0.4800000000000004,0.2400000000000002,gamble,win,6.5,44.73000000000002,927.4579886572319,None,927.4579886572319,None,927.4579886572319,None,927.4579886572319,None,927.4579886572319,None,927.4579886572319,None,927.4579886572319,None,1,927.4579886572319,None,928.3416431052028,None,928.3416431052028,None,928.3416431052028,None,928.3416431052028,None,928.3416431052028,None,928.3416431052028,None,928.3416431052028,None,932.3264669027994,None,932.3264669027994,None,932.3264669027994,None,932.3264669027994,None,932.3264669027994,None,932.3264669027994,None,932.3264669027994,None,933.3268995211984,None,0.8505533803545404,,,,,,,,,,,,,,,,,,,,,,,,,,,,,,24225,2019_Oct_25_1533,Mmi_3levels,3.1.5,59.963428930216246,
,,,3,1,2.7,,,,,,,,,0,2,2,2,0,7,7,19,,,,,,,,,,,,,,,,,,,,,,,,,,,,,,,,,,,,,,,,,,,,,,,,,,,,,,,,,,,,True,True,True,0.77,-0.22999999999999998,-3.0299999999999994,6.249999999999999,2.7,-3.549999999999999,-0.4249999999999994,certain,certain,-0.4249999999999994,44.30500000000002,935.3443005725276,None,935.3443005725276,None,935.3443005725276,None,935.3443005725276,None,935.3443005725276,None,935.3443005725276,None,935.3443005725276,None,3,935.3443005725276,None,937.0283374653955,None,937.0283374653955,None,937.0283374653955,None,937.0283374653955,None,937.0283374653955,None,937.0283374653955,None,937.0283374653955,None,941.0132153402956,None,941.0132153402956,None,941.0132153402956,None,941.0132153402956,None,941.0132153402956,None,941.0132153402956,None,941.0132153402956,None,950.5168365995341,None,1.6507601540652104,942.0135356443061,None,943.0139714625548,None,0.75,7.50281041971175,946.0150741274992,None,None,946.0150741274992,None,,,,,,,,,,,,,,,,,,,24225,2019_Oct_25_1533,Mmi_3levels,3.1.5,59.963428930216246,
,,,3,1,8.3,,,,,,,,,0,2,2,2,0,8,8,7,,,,,,,,,,,,,,,,,,,,,,,,,,,,,,,,,,,,,,,,,,,,,,,,,,,,,,,,,,,,True,True,True,0.75,-0.25,-3.2799999999999994,6.779999999999999,8.3,1.5200000000000014,0.7600000000000007,gamble,win,8.3,52.60500000000002,952.5343256464694,None,952.5343256464694,None,952.5343256464694,None,952.5343256464694,None,952.5343256464694,None,952.5343256464694,None,952.5343256464694,None,1,952.5343256464694,None,953.3846300792939,None,953.3846300792939,None,953.3846300792939,None,953.3846300792939,None,953.3846300792939,None,953.3846300792939,None,953.3846300792939,None,957.3861679225229,None,957.3861679225229,None,957.3861679225229,None,957.3861679225229,None,957.3861679225229,None,957.3861679225229,None,957.3861679225229,None,958.369876255776,None,0.8173556776018813,,,,,,,,,,,,,,,,,,,,,,,,,,,,,,24225,2019_Oct_25_1533,Mmi_3levels,3.1.5,59.963428930216246,
,,,3,1,7.3,,,,,,,,,0,2,2,2,0,9,9,21,,,,,,,,,,,,,,,,,,,,,,,,,,,,,,,,,,,,,,,,,,,,,,,,,,,,,,,,,,,,True,False,True,0.75,-0.25,-3.5299999999999994,-1.1691666666666667,7.3,6.130833333333333,3.0654166666666667,gamble,lose,6.130833333333333,58.73583333333335,960.3873217849177,None,960.3873217849177,None,960.3873217849177,None,960.3873217849177,None,960.3873217849177,None,960.3873217849177,None,960.3873217849177,None,1,960.3873217849177,None,961.8378730533877,None,961.8378730533877,None,961.8378730533877,None,961.8378730533877,None,961.8378730533877,None,961.8378730533877,None,961.8378730533877,None,965.8394332955068,None,965.8394332955068,None,965.8394332955068,None,965.8394332955068,None,965.8394332955068,None,965.8394332955068,None,965.8394332955068,None,966.8231233896804,None,1.4175109978532419,,,,,,,,,,,,,,,,,,,,,,,,,,,,,,24225,2019_Oct_25_1533,Mmi_3levels,3.1.5,59.963428930216246,
,,,3,1,-1.5,,,,,,,,,0,2,2,2,0,10,10,10,,,,,,,,,,,,,,,,,,,,,,,,,,,,,,,,,,,,,,,,,,,,,,,,,,,,,,,,,,,,True,True,False,0.75,-0.25,-3.7799999999999994,7.279999999999999,-1.5,-8.78,-5.14,certain,certain,-5.14,53.59583333333335,968.8405266809277,None,968.8405266809277,None,968.8405266809277,None,968.8405266809277,None,968.8405266809277,None,968.8405266809277,None,968.8405266809277,None,3,968.8405266809277,None,970.474537271104,None,970.474537271104,None,970.474537271104,None,970.474537271104,None,970.474537271104,None,970.474537271104,None,970.474537271104,None,974.4760504755832,None,974.4760504755832,None,974.4760504755832,None,974.4760504755832,None,974.4760504755832,None,974.4760504755832,None,974.4760504755832,None,983.9630114464671,None,1.6009200820699334,975.4597917672072,None,976.4601680684136,None,0.73,7.502724663965637,979.4613136112457,None,None,979.4613136112457,None,,,,,,,,,,,,,,,,,,,24225,2019_Oct_25_1533,Mmi_3levels,3.1.5,59.963428930216246,
,,,3,1,11.3,,,,,,,,,0,2,2,2,0,11,11,13,,,,,,,,,,,,,,,,,,,,,,,,,,,,,,,,,,,,,,,,,,,,,,,,,,,,,,,,,,,,True,False,False,0.73,-0.27,-4.049999999999999,-1.2825,11.3,10.0175,5.00875,gamble,lose,10.0175,63.61333333333335,985.9804739347601,None,985.9804739347601,None,985.9804739347601,None,985.9804739347601,None,985.9804739347601,None,985.9804739347601,None,985.9804739347601,None,1,985.9804739347601,None,987.3309754777292,None,987.3309754777292,None,987.3309754777292,None,987.3309754777292,None,987.3309754777292,None,987.3309754777292,None,987.3309754777292,None,991.315861032228,None,991.315861032228,None,991.315861032228,None,991.315861032228,None,991.315861032228,None,991.315861032228,None,991.315861032228,None,992.3162626121775,None,1.3173934357182588,,,,,,,,,,,,,,,,,,,,,,,,,,,,,,24225,2019_Oct_25_1533,Mmi_3levels,3.1.5,59.963428930216246,
,,,3,1,-0.7,,,,,,,,,0,2,2,2,0,12,12,16,,,,,,,,,,,,,,,,,,,,,,,,,,,,,,,,,,,,,,,,,,,,,,,,,,,,,,,,,,,,True,True,True,0.73,-0.27,-4.3199999999999985,8.099999999999998,-0.7,-8.799999999999997,-4.749999999999998,certain,certain,-4.749999999999998,58.86333333333335,994.3336860623967,None,994.3336860623967,None,994.3336860623967,None,994.3336860623967,None,994.3336860623967,None,994.3336860623967,None,994.3336860623967,None,3,994.3336860623967,None,996.0676859011292,None,996.0676859011292,None,996.0676859011292,None,996.0676859011292,None,996.0676859011292,None,996.0676859011292,None,996.0676859011292,None,1000.0692106250208,None,1000.0692106250208,None,1000.0692106250208,None,1000.0692106250208,None,1000.0692106250208,None,1000.0692106250208,None,1000.0692106250208,None,1009.5562541518011,None,1.7009029309265316,1001.0529339975619,None,1002.0533237381023,None,0.76,7.502810419682646,1005.0544788804254,None,None,1005.0544788804254,None,,,,,,,,,,,,,,,,,,,24225,2019_Oct_25_1533,Mmi_3levels,3.1.5,59.963428930216246,
,,,3,1,7.7,,,,,,,,,0,2,2,2,0,13,13,17,,,,,,,,,,,,,,,,,,,,,,,,,,,,,,,,,,,,,,,,,,,,,,,,,,,,,,,,,,,,True,True,False,0.76,-0.24,-4.559999999999999,7.919999999999998,7.7,-0.21999999999999797,-0.10999999999999899,gamble,win,7.7,66.56333333333335,1011.5736305643804,None,1011.5736305643804,None,1011.5736305643804,None,1011.5736305643804,None,1011.5736305643804,None,1011.5736305643804,None,1011.5736305643804,None,1,1011.5736305643804,None,1013.6744421718467,None,1013.6744421718467,None,1013.6744421718467,None,1013.6744421718467,None,1013.6744421718467,None,1013.6744421718467,None,1013.6744421718467,None,1017.6593597247847,None,1017.6593597247847,None,1017.6593597247847,None,1017.6593597247847,None,1017.6593597247847,None,1017.6593597247847,None,1017.6593597247847,None,1018.6596947480575,None,2.0677153396536596,,,,,,,,,,,,,,,,,,,,,,,,,,,,,,24225,2019_Oct_25_1533,Mmi_3levels,3.1.5,59.963428930216246,
,,,3,1,5.3,,,,,,,,,0,2,2,2,0,14,14,25,,,,,,,,,,,,,,,,,,,,,,,,,,,,,,,,,,,,,,,,,,,,,,,,,,,,,,,,,,,,True,True,False,0.76,-0.24,-4.799999999999999,8.159999999999998,5.3,-2.8599999999999985,1.2200000000000006,gamble,win,5.3,71.86333333333334,1020.6771767553582,None,1020.6771767553582,None,1020.6771767553582,None,1020.6771767553582,None,1020.6771767553582,None,1020.6771767553582,None,1020.6771767553582,None,1,1020.6771767553582,None,1022.2777266158955,None,1022.2777266158955,None,1022.2777266158955,None,1022.2777266158955,None,1022.2777266158955,None,1022.2777266158955,None,1022.2777266158955,None,1026.262721284962,None,1026.262721284962,None,1026.262721284962,None,1026.262721284962,None,1026.262721284962,None,1026.262721284962,None,1026.262721284962,None,1027.2630511884927,None,1.567648782976903,,,,,,,,,,,,,,,,,,,,,,,,,,,,,,24225,2019_Oct_25_1533,Mmi_3levels,3.1.5,59.963428930216246,
,,,3,1,3.5,,,,,,,,,0,2,2,2,0,15,15,22,,,,,,,,,,,,,,,,,,,,,,,,,,,,,,,,,,,,,,,,,,,,,,,,,,,,,,,,,,,,True,True,False,0.76,-0.24,-5.039999999999999,8.399999999999999,3.5,-4.899999999999999,-0.6999999999999993,certain,certain,-0.6999999999999993,71.16333333333334,1029.2804554396716,None,1029.2804554396716,None,1029.2804554396716,None,1029.2804554396716,None,1029.2804554396716,None,1029.2804554396716,None,1029.2804554396716,None,3,1029.2804554396716,None,1030.7810490100528,None,1030.7810490100528,None,1030.7810490100528,None,1030.7810490100528,None,1030.7810490100528,None,1030.7810490100528,None,1030.7810490100528,None,1034.7825705340947,None,1034.7825705340947,None,1034.7825705340947,None,1034.7825705340947,None,1034.7825705340947,None,1034.7825705340947,None,1034.7825705340947,None,1044.2696031814266,None,1.467554579663556,1035.7663275049417,None,1036.7667105258151,None,0.72,7.502807219862007,1039.7678253501654,None,None,1039.7678253501654,None,,,,,,,,,,,,,,,,,,,24225,2019_Oct_25_1533,Mmi_3levels,3.1.5,59.963428930216246,
,,,3,1,-0.3,,,,,,,,,0,2,2,2,0,16,16,11,,,,,,,,,,,,,,,,,,,,,,,,,,,,,,,,,,,,,,,,,,,,,,,,,,,,,,,,,,,,True,True,False,0.72,-0.28,-5.319999999999999,9.24,-0.3,-9.540000000000001,-4.920000000000001,certain,certain,-4.920000000000001,66.24333333333334,1046.2870419908722,None,1046.2870419908722,None,1046.2870419908722,None,1046.2870419908722,None,1046.2870419908722,None,1046.2870419908722,None,1046.2870419908722,None,3,1046.2870419908722,None,1048.004373541684,None,1048.004373541684,None,1048.004373541684,None,1048.004373541684,None,1048.004373541684,None,1048.004373541684,None,1048.004373541684,None,1052.005866587162,None,1052.005866587162,None,1052.005866587162,None,1052.005866587162,None,1052.005866587162,None,1052.005866587162,None,1052.005866587162,None,1052.9896238779766,None,1.684048732277006,,,,,,,,,,,,,,,,,,,,,,,,,,,,,,24225,2019_Oct_25_1533,Mmi_3levels,3.1.5,59.963428930216246,
,,,3,1,1.5,,,,,,,,,0,2,2,2,0,17,17,5,,,,,,,,,,,,,,,,,,,,,,,,,,,,,,,,,,,,,,,,,,,,,,,,,,,,,,,,,,,,True,False,True,0.72,-0.28,-5.6,-1.4466666666666668,1.5,0.05333333333333323,0.7766666666666666,gamble,lose,0.05333333333333323,66.29666666666667,1055.0070898860868,None,1055.0070898860868,None,1055.0070898860868,None,1055.0070898860868,None,1055.0070898860868,None,1055.0070898860868,None,1055.0070898860868,None,1,1055.0070898860868,None,1056.2575413835584,None,1056.2575413835584,None,1056.2575413835584,None,1056.2575413835584,None,1056.2575413835584,None,1056.2575413835584,None,1056.2575413835584,None,1060.2423888599733,None,1060.2423888599733,None,1060.2423888599733,None,1060.2423888599733,None,1060.2423888599733,None,1060.2423888599733,None,1060.2423888599733,None,1069.7460353979259,None,1.2171824382676277,1061.2427971595898,None,1062.2431142637506,None,0.76,7.502864177018637,1065.2443478021596,None,None,1065.2443478021596,None,,,,,,,,,,,,,,,,,,,24225,2019_Oct_25_1533,Mmi_3levels,3.1.5,59.963428930216246,
,,,3,1,5.1,,,,,,,,,0,2,2,2,0,18,18,0,,,,,,,,,,,,,,,,,,,,,,,,,,,,,,,,,,,,,,,,,,,,,,,,,,,,,,,,,,,,True,True,False,0.76,-0.24,-5.84,9.2,5.1,-4.1,0.5,gamble,win,5.1,71.39666666666666,1071.7635074857099,None,1071.7635074857099,None,1071.7635074857099,None,1071.7635074857099,None,1071.7635074857099,None,1071.7635074857099,None,1071.7635074857099,None,1,1071.7635074857099,None,1073.8476620047295,None,1073.8476620047295,None,1073.8476620047295,None,1073.8476620047295,None,1073.8476620047295,None,1073.8476620047295,None,1073.8476620047295,None,1077.8324838824046,None,1077.8324838824046,None,1077.8324838824046,None,1077.8324838824046,None,1077.8324838824046,None,1077.8324838824046,None,1077.8324838824046,None,1078.8328717030527,None,2.0510339323955122,,,,,,,,,,,,,,,,,,,,,,,,,,,,,,24225,2019_Oct_25_1533,Mmi_3levels,3.1.5,59.963428930216246,
,,,3,1,12.9,,,,,,,,,0,2,2,2,0,19,19,2,,,,,,,,,,,,,,,,,,,,,,,,,,,,,,,,,,,,,,,,,,,,,,,,,,,,,,,,,,,,True,True,False,0.76,-0.24,-6.08,9.44,12.9,3.460000000000001,1.7300000000000004,gamble,win,12.9,84.29666666666667,1080.8503457107581,None,1080.8503457107581,None,1080.8503457107581,None,1080.8503457107581,None,1080.8503457107581,None,1080.8503457107581,None,1080.8503457107581,None,1,1080.8503457107581,None,1082.01745640859,None,1082.01745640859,None,1082.01745640859,None,1082.01745640859,None,1082.01745640859,None,1082.01745640859,None,1082.01745640859,None,1086.0189766527037,None,1086.0189766527037,None,1086.0189766527037,None,1086.0189766527037,None,1086.0189766527037,None,1086.0189766527037,None,1086.0189766527037,None,1095.5059830613318,None,1.1340249894710723,1087.0026808261755,None,1088.0030814461934,None,0.77,7.502816819382133,1091.0042157895514,None,None,1091.0042157895514,None,,,,,,,,,,,,,,,,,,,24225,2019_Oct_25_1533,Mmi_3levels,3.1.5,59.963428930216246,
,,,3,1,0.9,,,,,,,,,0,2,2,2,0,20,20,9,,,,,,,,,,,,,,,,,,,,,,,,,,,,,,,,,,,,,,,,,,,,,,,,,,,,,,,,,,,,True,True,True,0.77,-0.22999999999999998,-6.3100000000000005,9.530000000000001,0.9,-8.63,-3.865,certain,certain,-3.865,80.43166666666667,1097.5233985119557,None,1097.5233985119557,None,1097.5233985119557,None,1097.5233985119557,None,1097.5233985119557,None,1097.5233985119557,None,1097.5233985119557,None,3,1097.5233985119557,None,1100.4245154481905,None,1100.4245154481905,None,1100.4245154481905,None,1100.4245154481905,None,1100.4245154481905,None,1100.4245154481905,None,1100.4245154481905,None,1104.4260913695325,None,1104.4260913695325,None,1104.4260913695325,None,1104.4260913695325,None,1104.4260913695325,None,1104.4260913695325,None,1104.4260913695325,None,1105.4097945830727,None,2.867861316364724,,,,,,,,,,,,,,,,,,,,,,,,,,,,,,24225,2019_Oct_25_1533,Mmi_3levels,3.1.5,59.963428930216246,
,,,3,1,11.1,,,,,,,,,0,2,2,2,0,21,21,12,,,,,,,,,,,,,,,,,,,,,,,,,,,,,,,,,,,,,,,,,,,,,,,,,,,,,,,,,,,,True,True,True,0.77,-0.22999999999999998,-6.540000000000001,9.760000000000002,11.1,1.339999999999998,0.669999999999999,gamble,win,11.1,91.53166666666667,1107.4272039539937,None,1107.4272039539937,None,1107.4272039539937,None,1107.4272039539937,None,1107.4272039539937,None,1107.4272039539937,None,1107.4272039539937,None,1,1107.4272039539937,None,1109.678098629316,None,1109.678098629316,None,1109.678098629316,None,1109.678098629316,None,1109.678098629316,None,1109.678098629316,None,1109.678098629316,None,1113.67961343372,None,1113.67961343372,None,1113.67961343372,None,1113.67961343372,None,1113.67961343372,None,1113.67961343372,None,1113.67961343372,None,1114.6632968082267,None,2.2178140867326874,,,,,,,,,,,,,,,,,,,,,,,,,,,,,,24225,2019_Oct_25_1533,Mmi_3levels,3.1.5,59.963428930216246,
,,,3,1,0.3,,,,,,,,,0,2,2,2,0,22,22,14,,,,,,,,,,,,,,,,,,,,,,,,,,,,,,,,,,,,,,,,,,,,,,,,,,,,,,,,,,,,True,True,False,0.77,-0.22999999999999998,-6.770000000000001,9.990000000000002,0.3,-9.690000000000001,-4.695,certain,certain,-4.695,86.83666666666667,1116.6807823353447,None,1116.6807823353447,None,1116.6807823353447,None,1116.6807823353447,None,1116.6807823353447,None,1116.6807823353447,None,1116.6807823353447,None,3,1116.6807823353447,None,1119.265125004982,None,1119.265125004982,None,1119.265125004982,None,1119.265125004982,None,1119.265125004982,None,1119.265125004982,None,1119.265125004982,None,1123.2666113307641,None,1123.2666113307641,None,1123.2666113307641,None,1123.2666113307641,None,1123.2666113307641,None,1123.2666113307641,None,1123.2666113307641,None,1132.753650697763,None,2.5512486416555475,1124.2503420629364,None,1125.2507484426606,None,0.78,7.502817779342877,1128.2519067848334,None,None,1128.2519067848334,None,,,,,,,,,,,,,,,,,,,24225,2019_Oct_25_1533,Mmi_3levels,3.1.5,59.963428930216246,
,,,3,1,9.5,,,,,,,,,0,2,2,2,0,23,23,26,,,,,,,,,,,,,,,,,,,,,,,,,,,,,,,,,,,,,,,,,,,,,,,,,,,,,,,,,,,,True,True,False,0.78,-0.21999999999999997,-6.990000000000001,10.07,9.5,-0.5700000000000003,-0.28500000000000014,gamble,win,9.5,96.33666666666667,1134.771065508423,None,1134.771065508423,None,1134.771065508423,None,1134.771065508423,None,1134.771065508423,None,1134.771065508423,None,1134.771065508423,None,None,1134.771065508423,None,1137.7722532891203,None,1137.7722532891203,None,1137.7722532891203,None,1137.7722532891203,None,1137.7722532891203,None,1137.7722532891203,None,1137.7722532891203,None,1141.7737104963744,None,1141.7737104963744,None,1141.7737104963744,None,1141.7737104963744,None,1141.7737104963744,None,1141.7737104963744,None,1141.7737104963744,None,1142.757494665886,None,,,,,,,,,,,,,,,,,,,,,,,,,,,,,,,24225,2019_Oct_25_1533,Mmi_3levels,3.1.5,59.963428930216246,
,,,3,1,9.7,,,,,,,,,0,2,2,2,0,24,24,23,,,,,,,,,,,,,,,,,,,,,,,,,,,,,,,,,,,,,,,,,,,,,,,,,,,,,,,,,,,,True,False,False,0.78,-0.21999999999999997,-7.210000000000001,-1.3708333333333333,9.7,8.329166666666666,4.164583333333333,gamble,lose,8.329166666666666,104.66583333333334,1144.7748950772511,None,1144.7748950772511,None,1144.7748950772511,None,1144.7748950772511,None,1144.7748950772511,None,1144.7748950772511,None,1144.7748950772511,None,1,1144.7748950772511,None,1145.7919835041976,None,1145.7919835041976,None,1145.7919835041976,None,1145.7919835041976,None,1145.7919835041976,None,1145.7919835041976,None,1145.7919835041976,None,1149.776835780358,None,1149.776835780358,None,1149.776835780358,None,1149.776835780358,None,1149.776835780358,None,1149.776835780358,None,1149.776835780358,None,1159.2805431153101,None,0.9840071983344387,1150.777201202116,None,1151.7776389402861,None,0.77,7.502726263919612,1154.7787515247473,None,None,1154.7787515247473,None,,,,,,,,,,,,,,,,,,,24225,2019_Oct_25_1533,Mmi_3levels,3.1.5,59.963428930216246,
,,,3,1,8.7,,,,,,,,,0,2,2,2,0,25,25,15,,,,,,,,,,,,,,,,,,,,,,,,,,,,,,,,,,,,,,,,,,,,,,,,,,,,,,,,,,,,True,True,False,0.77,-0.22999999999999998,-7.440000000000001,10.66,8.7,-1.9600000000000009,-0.9800000000000004,certain,certain,-0.9800000000000004,103.68583333333333,1161.2979502463422,None,1161.2979502463422,None,1161.2979502463422,None,1161.2979502463422,None,1161.2979502463422,None,1161.2979502463422,None,1161.2979502463422,None,3,1161.2979502463422,None,1163.9989779710304,None,1163.9989779710304,None,1163.9989779710304,None,1163.9989779710304,None,1163.9989779710304,None,1163.9989779710304,None,1163.9989779710304,None,1168.0004966152192,None,1168.0004966152192,None,1168.0004966152192,None,1168.0004966152192,None,1168.0004966152192,None,1168.0004966152192,None,1168.0004966152192,None,1168.9842606257298,None,2.6679586554819252,,,,,,,,,,,,,,,,,,,,,,,,,,,,,,24225,2019_Oct_25_1533,Mmi_3levels,3.1.5,59.963428930216246,
,,,3,1,13.7,,,,,,,,,0,2,2,2,0,26,26,3,,,,,,,,,,,,,,,,,,,,,,,,,,,,,,,,,,,,,,,,,,,,,,,,,,,,,,,,,,,,True,True,False,0.77,-0.22999999999999998,-7.670000000000002,10.89,13.7,2.8099999999999987,1.4049999999999994,gamble,win,13.7,117.38583333333334,1171.001701995061,None,1171.001701995061,None,1171.001701995061,None,1171.001701995061,None,1171.001701995061,None,1171.001701995061,None,1171.001701995061,None,1,1171.001701995061,None,1172.7690518489399,None,1172.7690518489399,None,1172.7690518489399,None,1172.7690518489399,None,1172.7690518489399,None,1172.7690518489399,None,1172.7690518489399,None,1176.7539150045777,None,1176.7539150045777,None,1176.7539150045777,None,1176.7539150045777,None,1176.7539150045777,None,1176.7539150045777,None,1176.7539150045777,None,1186.2575765817892,None,1.734255505958572,1177.754283946153,None,1178.754685206135,None,0.79,7.502748662780505,1181.7557984305604,None,None,1181.7557984305604,None,,,,,,,,,,,,,,,,,,,24225,2019_Oct_25_1533,Mmi_3levels,3.1.5,59.963428930216246,
,,,,,,,,,,,,,,,,,,,,,,,,,,,,,,0,0,0,0,,,,,,,,,,,,,,,,,,,,,,,,,,,,,,,,,,,,,,,,,,,,,,,,,,,,,,,,,,,,,,,,,,,,,,,,,,,,,,,,,,,,,,,,,,,,,,,,,,,,,,,,,,,,,,,,,,,,,,,,,1188.2583010256349,None,4,2.884807670401642,1188.2583010256349,None,117.38583333333334,3,1191.176100649056,None,1191.176100649056,None,1191.176100649056,None,4,8.103352920617908,1191.176100649056,None,24225,2019_Oct_25_1533,Mmi_3levels,3.1.5,59.963428930216246,
