currSlide,currImage,currText,blockNum,targetHappiness,highAmount,instructionLoop1.thisRepN,instructionLoop1.thisTrialN,instructionLoop1.thisN,instructionLoop1.thisIndex,instructionLoop2.thisRepN,instructionLoop2.thisTrialN,instructionLoop2.thisN,instructionLoop2.thisIndex,blockLoop.thisRepN,blockLoop.thisTrialN,blockLoop.thisN,blockLoop.thisIndex,trialLoop.thisRepN,trialLoop.thisTrialN,trialLoop.thisN,trialLoop.thisIndex,doRatingLoop.thisRepN,doRatingLoop.thisTrialN,doRatingLoop.thisN,doRatingLoop.thisIndex,trialHappyLoop.thisRepN,trialHappyLoop.thisTrialN,trialHappyLoop.thisN,trialHappyLoop.thisIndex,logWinningsLoop.thisRepN,logWinningsLoop.thisTrialN,logWinningsLoop.thisN,logWinningsLoop.thisIndex,instrImage.started,instrImage.stopped,instrText.started,instrText.stopped,instrContinueText.started,instrContinueText.stopped,instrKeyResp.keys,instrKeyResp.rt,instrKeyResp.started,instrKeyResp.stopped,lifeHappyText.started,lifeHappyText.stopped,lifeHappySlider.response,lifeHappySlider.rt,lifeHappySlider.started,lifeHappySlider.stopped,lifeHappyResp.keys,lifeHappyResp.rt,lifeHappyResp.started,lifeHappyResp.stopped,instrImage_2.started,instrImage_2.stopped,instrText_2.started,instrText_2.stopped,instrContinueText_2.started,instrContinueText_2.stopped,instrKeyResp_2.keys,instrKeyResp_2.rt,instrKeyResp_2.started,instrKeyResp_2.stopped,localizing.started,localizing.stopped,start_exp.keys,start_exp.rt,start_exp.started,start_exp.stopped,blockHappyText.started,blockHappyText.stopped,blockHappySlider.response,blockHappySlider.rt,blockHappySlider.started,blockHappySlider.stopped,blockHappyResp.keys,blockHappyResp.rt,blockHappyResp.started,blockHappyResp.stopped,blankText.started,blankText.stopped,isHappyBlock,isCongruent,isWinOnTop,lastHappyRating,diff,sumDiff,RPE,winAmount,loseAmount,certainAmount,choice,outcome,outcomeAmount,currentWinnings,fixCross.started,fixCross.stopped,certainBox.started,certainBox.stopped,outcome1Box.started,outcome1Box.stopped,outcome2Box.started,outcome2Box.stopped,certainText.started,certainText.stopped,outcome1Text.started,outcome1Text.stopped,outcome2Text.started,outcome2Text.stopped,choiceKey.keys,choiceKey.started,choiceKey.stopped,fixCross_2.started,fixCross_2.stopped,certainBox_2.started,certainBox_2.stopped,outcome1Box_2.started,outcome1Box_2.stopped,outcome2Box_2.started,outcome2Box_2.stopped,certainText_2.started,certainText_2.stopped,outcome1Text_2.started,outcome1Text_2.stopped,outcome2Text_2.started,outcome2Text_2.stopped,fixCross_3.started,fixCross_3.stopped,certainBox_3.started,certainBox_3.stopped,outcome1Box_3.started,outcome1Box_3.stopped,outcome2Box_3.started,outcome2Box_3.stopped,certainText_3.started,certainText_3.stopped,outcome1Text_3.started,outcome1Text_3.stopped,outcome2Text_3.started,outcome2Text_3.stopped,fixCross_ITI.started,fixCross_ITI.stopped,choiceKey.rt,fixCross_ISI.started,fixCross_ISI.stopped,happyText.started,happyText.stopped,happySlider.response,happySlider.rt,happySlider.started,happySlider.stopped,happyResp.keys,happyResp.started,happyResp.stopped,endOfBlockText.started,endOfBlockText.stopped,restKeyResp.keys,restKeyResp.rt,restKeyResp.started,restKeyResp.stopped,finalWinnings,cashBonus,goodbyeText.started,goodbyeText.stopped,finalWinningsText.started,finalWinningsText.stopped,spaceToContinue.started,spaceToContinue.stopped,goodbyeKeyResp_2.keys,goodbyeKeyResp_2.rt,goodbyeKeyResp_2.started,goodbyeKeyResp_2.stopped,participant,date,expName,psychopyVersion,frameRate,
1,black.png,"Welcome! You are about to play our gambling task.
This task has 3 blocks and takes about 15 minutes.",,,,0,0,0,0,,,,,,,,,,,,,,,,,,,,,,,,,11.635186116702243,None,11.635186116702243,None,11.635186116702243,None,4,1.2174065384642745,11.635186116702243,None,,,,,,,,,,,,,,,,,,,,,,,,,,,,,,,,,,,,,,,,,,,,,,,,,,,,,,,,,,,,,,,,,,,,,,,,,,,,,,,,,,,,,,,,,,,,,,,,,,,,,,,,,,,,,,,,,,,,,,,,,,,,,,,,,,24199,2019_Oct_02_1634,Mmi_3levels,3.1.5,59.97650942380807,
2,black.png,"In this game, you may win or lose points. Your goal is to get as many points as possible. These points will be converted to a cash bonus at the end.
Sometimes we will ask you to rate your mood.",,,,0,1,1,1,,,,,,,,,,,,,,,,,,,,,,,,,12.902385368190153,None,12.902385368190153,None,12.902385368190153,None,4,0.3670153874918469,12.902385368190153,None,,,,,,,,,,,,,,,,,,,,,,,,,,,,,,,,,,,,,,,,,,,,,,,,,,,,,,,,,,,,,,,,,,,,,,,,,,,,,,,,,,,,,,,,,,,,,,,,,,,,,,,,,,,,,,,,,,,,,,,,,,,,,,,,,,24199,2019_Oct_02_1634,Mmi_3levels,3.1.5,59.97650942380807,
3,black.png,"On the next screen, please rate how you feel about your life these days. Use the LEFT (green) and RIGHT (blue) buttons to move the slider (you can press and hold them to slide gradually) and the TOP (red) button to lock in your response.
Make your rating as accurately and quickly as you can!",,,,0,2,2,2,,,,,,,,,,,,,,,,,,,,,,,,,13.319215227755194,None,13.319215227755194,None,13.319215227755194,None,4,0.206271983042825,13.319215227755194,None,,,,,,,,,,,,,,,,,,,,,,,,,,,,,,,,,,,,,,,,,,,,,,,,,,,,,,,,,,,,,,,,,,,,,,,,,,,,,,,,,,,,,,,,,,,,,,,,,,,,,,,,,,,,,,,,,,,,,,,,,,,,,,,,,,24199,2019_Oct_02_1634,Mmi_3levels,3.1.5,59.97650942380807,
,,,,,,,,,,,,,,,,,,,,,,,,,,,,,,,,,,,,,,,,,,,,13.535960994977358,None,1.0,9.563781544227822,17.55424595921795,None,4,5.535706606049644,17.55424595921795,None,,,,,,,,,,,,,,,,,,,,,,,,,,,,,,,,,,,,,,,,,,,,,,,,,,,,,,,,,,,,,,,,,,,,,,,,,,,,,,,,,,,,,,,,,,,,,,,,,,,,,,,,,,,,,,,,,,,,,,,,24199,2019_Oct_02_1634,Mmi_3levels,3.1.5,59.97650942380807,
4,black.png,"In this game you can win money by earning points according to your choices. You will decide whether to gamble a number of points or stick with a guaranteed number of points. 
Make your choice by pressing the left or right arrow key once. An example of one trial is shown on the next screen.",,,,,,,,0,0,0,0,,,,,,,,,,,,,,,,,,,,,,,,,,,,,,,,,,,,,,,,,23.139760637619474,None,23.139760637619474,None,23.139760637619474,None,4,1.2840439584069827,23.139760637619474,None,,,,,,,,,,,,,,,,,,,,,,,,,,,,,,,,,,,,,,,,,,,,,,,,,,,,,,,,,,,,,,,,,,,,,,,,,,,,,,,,,,,,,,,,,,,,,,,,,,,,,,,,,,,,,,24199,2019_Oct_02_1634,Mmi_3levels,3.1.5,59.97650942380807,
5,example_start.png,"The GAMBLING OPTION will be shown on the RIGHT SIDE. 
Select this option using the RIGHT (blue) button on your keypad.",,,,,,,,0,1,1,1,,,,,,,,,,,,,,,,,,,,,,,,,,,,,,,,,,,,,,,,,24.49029610231446,None,24.49029610231446,None,24.49029610231446,None,4,1.1671738445947994,24.49029610231446,None,,,,,,,,,,,,,,,,,,,,,,,,,,,,,,,,,,,,,,,,,,,,,,,,,,,,,,,,,,,,,,,,,,,,,,,,,,,,,,,,,,,,,,,,,,,,,,,,,,,,,,,,,,,,,,24199,2019_Oct_02_1634,Mmi_3levels,3.1.5,59.97650942380807,
6,example_gamble.png,"Once you select the gambling choice, the choice you made will remain on the screen.",,,,,,,,0,2,2,2,,,,,,,,,,,,,,,,,,,,,,,,,,,,,,,,,,,,,,,,,25.72406096886698,None,25.72406096886698,None,25.72406096886698,None,4,0.4504066383051395,25.72406096886698,None,,,,,,,,,,,,,,,,,,,,,,,,,,,,,,,,,,,,,,,,,,,,,,,,,,,,,,,,,,,,,,,,,,,,,,,,,,,,,,,,,,,,,,,,,,,,,,,,,,,,,,,,,,,,,,24199,2019_Oct_02_1634,Mmi_3levels,3.1.5,59.97650942380807,
7,example_win.png,"The outcome you received will then be shown on the screen. In this example , you WON 10 points.",,,,,,,,0,3,3,3,,,,,,,,,,,,,,,,,,,,,,,,,,,,,,,,,,,,,,,,,26.207628404012212,None,26.207628404012212,None,26.207628404012212,None,4,0.21693423902252107,26.207628404012212,None,,,,,,,,,,,,,,,,,,,,,,,,,,,,,,,,,,,,,,,,,,,,,,,,,,,,,,,,,,,,,,,,,,,,,,,,,,,,,,,,,,,,,,,,,,,,,,,,,,,,,,,,,,,,,,24199,2019_Oct_02_1634,Mmi_3levels,3.1.5,59.97650942380807,
8,example_start.png,"The GUARANTEED OPTION will be shown on the LEFT SIDE. You are 100% guaranteed to gain or lose this amount. In this example, you have a 100% chance of winning 1 point. Select this option using the LEFT (green) button on your keyboard.",,,,,,,,0,4,4,4,,,,,,,,,,,,,,,,,,,,,,,,,,,,,,,,,,,,,,,,,26.474397594218317,None,26.474397594218317,None,26.474397594218317,None,4,0.13357626675860956,26.474397594218317,None,,,,,,,,,,,,,,,,,,,,,,,,,,,,,,,,,,,,,,,,,,,,,,,,,,,,,,,,,,,,,,,,,,,,,,,,,,,,,,,,,,,,,,,,,,,,,,,,,,,,,,,,,,,,,,24199,2019_Oct_02_1634,Mmi_3levels,3.1.5,59.97650942380807,
9,example_certain.png,"Once you select the guaranteed choice, your selection will remain on the screen.",,,,,,,,0,5,5,5,,,,,,,,,,,,,,,,,,,,,,,,,,,,,,,,,,,,,,,,,26.64113849765272,None,26.64113849765272,None,26.64113849765272,None,4,0.13355994746962097,26.64113849765272,None,,,,,,,,,,,,,,,,,,,,,,,,,,,,,,,,,,,,,,,,,,,,,,,,,,,,,,,,,,,,,,,,,,,,,,,,,,,,,,,,,,,,,,,,,,,,,,,,,,,,,,,,,,,,,,24199,2019_Oct_02_1634,Mmi_3levels,3.1.5,59.97650942380807,
10,black.png,"Please make your choices as fast as possible.
You will be given a break at the end of each block.
Let's play!",,,,,,,,0,6,6,6,,,,,,,,,,,,,,,,,,,,,,,,,,,,,,,,,,,,,,,,,26.807886440783477,None,26.807886440783477,None,26.807886440783477,None,4,0.2668911048967857,26.807886440783477,None,,,,,,,,,,,,,,,,,,,,,,,,,,,,,,,,,,,,,,,,,,,,,,,,,,,,,,,,,,,,,,,,,,,,,,,,,,,,,,,,,,,,,,,,,,,,,,,,,,,,,,,,,,,,,,24199,2019_Oct_02_1634,Mmi_3levels,3.1.5,59.97650942380807,
,,,,,,,,,,,,,,,,,,,,,,,,,,,,,,,,,,,,,,,,,,,,,,,,,,,,,,,,,,,,,,,,27.09126962794835,None,space,11.58796673168763,27.09126962794835,None,,,,,,,,,,,,,,,,,,,,,,,,,,,,,,,,,,,,,,,,,,,,,,,,,,,,,,,,,,,,,,,,,,,,,,,,,,,,,,,,,,,,,,,,,,,,,,,,,,,,,,,,24199,2019_Oct_02_1634,Mmi_3levels,3.1.5,59.97650942380807,
,,,1,1,4.9,,,,,,,,,0,0,0,0,0,0,0,18,,,,,,,,,,,,,,,,,,,,,,,,,,,,,,,,,,,,,,,,,,,,,,,,,38.69586635589803,None,1.0,5.361649860999023,41.71370973935336,None,4,2.3344734437159786,41.71370973935336,None,44.064635587059456,None,True,True,True,1.0,0.0,0.0,-0.0,4.9,4.9,2.45,gamble,win,4.9,4.9,47.09915952457959,None,47.09915952457959,None,47.09915952457959,None,47.09915952457959,None,47.09915952457959,None,47.09915952457959,None,47.09915952457959,None,None,47.09915952457959,None,50.100333553484234,None,50.100333553484234,None,50.100333553484234,None,50.100333553484234,None,50.100333553484234,None,50.100333553484234,None,50.100333553484234,None,54.085183492814394,None,54.085183492814394,None,54.085183492814394,None,54.085183492814394,None,54.085183492814394,None,54.085183492814394,None,54.085183492814394,None,55.085609714267775,None,,,,,,,,,,,,,,,,,,,,,,,,,,,,,,,24199,2019_Oct_02_1634,Mmi_3levels,3.1.5,59.97650942380807,
,,,1,1,9.7,,,,,,,,,0,0,0,0,0,1,1,24,,,,,,,,,,,,,,,,,,,,,,,,,,,,,,,,,,,,,,,,,,,,,,,,,,,,,,,,,,,,,True,True,True,1.0,0.0,0.0,-0.0,9.7,9.7,4.85,gamble,win,9.7,14.6,57.10308191387594,None,57.10308191387594,None,57.10308191387594,None,57.10308191387594,None,57.10308191387594,None,57.10308191387594,None,57.10308191387594,None,1,57.10308191387594,None,59.337284521378024,None,59.337284521378024,None,59.337284521378024,None,59.337284521378024,None,59.337284521378024,None,59.337284521378024,None,59.337284521378024,None,63.322177018857474,None,63.322177018857474,None,63.322177018857474,None,63.322177018857474,None,63.322177018857474,None,63.322177018857474,None,63.322177018857474,None,64.32256228209008,None,2.201117327374959,,,,,,,,,,,,,,,,,,,,,,,,,,,,,,24199,2019_Oct_02_1634,Mmi_3levels,3.1.5,59.97650942380807,
,,,1,1,2.1,,,,,,,,,0,0,0,0,0,2,2,16,,,,,,,,,,,,,,,,,,,,,,,,,,,,,,,,,,,,,,,,,,,,,,,,,,,,,,,,,,,,,True,True,False,1.0,0.0,0.0,-0.0,2.1,2.1,1.05,gamble,win,2.1,16.7,66.34002808197693,None,66.34002808197693,None,66.34002808197693,None,66.34002808197693,None,66.34002808197693,None,66.34002808197693,None,66.34002808197693,None,1,66.34002808197693,None,68.20742297295146,None,68.20742297295146,None,68.20742297295146,None,68.20742297295146,None,68.20742297295146,None,68.20742297295146,None,68.20742297295146,None,72.19232507001288,None,72.19232507001288,None,72.19232507001288,None,72.19232507001288,None,72.19232507001288,None,72.19232507001288,None,72.19232507001288,None,81.6960522678055,None,1.834322730275744,73.1927208927882,None,74.1931061560208,None,1.0,7.502873794932384,77.19428466473255,None,None,77.19428466473255,None,,,,,,,,,,,,,,,,,,,24199,2019_Oct_02_1634,Mmi_3levels,3.1.5,59.97650942380807,
,,,1,1,9.1,,,,,,,,,0,0,0,0,0,3,3,26,,,,,,,,,,,,,,,,,,,,,,,,,,,,,,,,,,,,,,,,,,,,,,,,,,,,,,,,,,,,,True,True,True,1.0,0.0,0.0,-0.0,9.1,9.1,4.55,gamble,win,9.1,25.799999999999997,83.71350974805682,None,83.71350974805682,None,83.71350974805682,None,83.71350974805682,None,83.71350974805682,None,83.71350974805682,None,83.71350974805682,None,1,83.71350974805682,None,85.36415887180556,None,85.36415887180556,None,85.36415887180556,None,85.36415887180556,None,85.36415887180556,None,85.36415887180556,None,85.36415887180556,None,89.3490459295208,None,89.3490459295208,None,89.3490459295208,None,89.3490459295208,None,89.3490459295208,None,89.3490459295208,None,89.3490459295208,None,90.34944463217107,None,1.6173811315748026,,,,,,,,,,,,,,,,,,,,,,,,,,,,,,24199,2019_Oct_02_1634,Mmi_3levels,3.1.5,59.97650942380807,
,,,1,1,-0.5,,,,,,,,,0,0,0,0,0,4,4,0,,,,,,,,,,,,,,,,,,,,,,,,,,,,,,,,,,,,,,,,,,,,,,,,,,,,,,,,,,,,,True,True,True,1.0,0.0,0.0,-0.0,-0.5,-0.5,-0.5,gamble,win,-0.5,25.299999999999997,92.3669040323366,None,92.3669040323366,None,92.3669040323366,None,92.3669040323366,None,92.3669040323366,None,92.3669040323366,None,92.3669040323366,None,None,92.3669040323366,None,95.36807006159142,None,95.36807006159142,None,95.36807006159142,None,95.36807006159142,None,95.36807006159142,None,95.36807006159142,None,95.36807006159142,None,99.3696463129927,None,99.3696463129927,None,99.3696463129927,None,99.3696463129927,None,99.3696463129927,None,99.3696463129927,None,99.3696463129927,None,108.85668943687779,None,,100.3533587018319,None,101.35375772446423,None,1.0,7.502982590198371,104.35493367328672,None,None,104.35493367328672,None,,,,,,,,,,,,,,,,,,,24199,2019_Oct_02_1634,Mmi_3levels,3.1.5,59.97650942380807,
,,,1,1,11.1,,,,,,,,,0,0,0,0,0,5,5,7,,,,,,,,,,,,,,,,,,,,,,,,,,,,,,,,,,,,,,,,,,,,,,,,,,,,,,,,,,,,,True,True,True,1.0,0.0,0.0,-0.0,11.1,11.1,5.55,gamble,win,11.1,36.4,110.89542727100707,None,110.89542727100707,None,110.89542727100707,None,110.89542727100707,None,110.89542727100707,None,110.89542727100707,None,110.89542727100707,None,1,110.89542727100707,None,112.3080528335413,None,112.3080528335413,None,112.3080528335413,None,112.3080528335413,None,112.3080528335413,None,112.3080528335413,None,112.3080528335413,None,116.29293605142448,None,116.29293605142448,None,116.29293605142448,None,116.29293605142448,None,116.29293605142448,None,116.29293605142448,None,116.29293605142448,None,117.29329283589686,None,1.37953164278224,,,,,,,,,,,,,,,,,,,,,,,,,,,,,,24199,2019_Oct_02_1634,Mmi_3levels,3.1.5,59.97650942380807,
,,,1,1,10.7,,,,,,,,,0,0,0,0,0,6,6,8,,,,,,,,,,,,,,,,,,,,,,,,,,,,,,,,,,,,,,,,,,,,,,,,,,,,,,,,,,,,,True,False,False,1.0,0.0,0.0,0.0,10.7,10.7,5.35,gamble,lose,10.7,47.099999999999994,119.31079703411524,None,119.31079703411524,None,119.31079703411524,None,119.31079703411524,None,119.31079703411524,None,119.31079703411524,None,119.31079703411524,None,1,119.31079703411524,None,120.46124904644239,None,120.46124904644239,None,120.46124904644239,None,120.46124904644239,None,120.46124904644239,None,120.46124904644239,None,120.46124904644239,None,124.44611594503658,None,124.44611594503658,None,124.44611594503658,None,124.44611594503658,None,124.44611594503658,None,124.44611594503658,None,124.44611594503658,None,125.44649000875506,None,1.1173574526037555,,,,,,,,,,,,,,,,,,,,,,,,,,,,,,24199,2019_Oct_02_1634,Mmi_3levels,3.1.5,59.97650942380807,
,,,1,1,11.7,,,,,,,,,0,0,0,0,0,7,7,17,,,,,,,,,,,,,,,,,,,,,,,,,,,,,,,,,,,,,,,,,,,,,,,,,,,,,,,,,,,,,True,True,True,1.0,0.0,0.0,-0.0,11.7,11.7,5.85,gamble,win,11.7,58.8,127.46398588733427,None,127.46398588733427,None,127.46398588733427,None,127.46398588733427,None,127.46398588733427,None,127.46398588733427,None,127.46398588733427,None,1,127.46398588733427,None,128.34766230973764,None,128.34766230973764,None,128.34766230973764,None,128.34766230973764,None,128.34766230973764,None,128.34766230973764,None,128.34766230973764,None,132.33252536849614,None,132.33252536849614,None,132.33252536849614,None,132.33252536849614,None,132.33252536849614,None,132.33252536849614,None,132.33252536849614,None,141.83626568571708,None,0.8505937021654972,133.33295094997447,None,134.33334453284624,None,1.0,7.502873794932384,137.33452272157228,None,None,137.33452272157228,None,,,,,,,,,,,,,,,,,,,24199,2019_Oct_02_1634,Mmi_3levels,3.1.5,59.97650942380807,
,,,1,1,8.9,,,,,,,,,0,0,0,0,0,8,8,11,,,,,,,,,,,,,,,,,,,,,,,,,,,,,,,,,,,,,,,,,,,,,,,,,,,,,,,,,,,,,True,True,True,1.0,0.0,0.0,-0.0,8.9,8.9,4.45,gamble,win,8.9,67.7,143.8537666840748,None,143.8537666840748,None,143.8537666840748,None,143.8537666840748,None,143.8537666840748,None,143.8537666840748,None,143.8537666840748,None,1,143.8537666840748,None,144.80407220677807,None,144.80407220677807,None,144.80407220677807,None,144.80407220677807,None,144.80407220677807,None,144.80407220677807,None,144.80407220677807,None,148.7890181419316,None,148.7890181419316,None,148.7890181419316,None,148.7890181419316,None,148.7890181419316,None,148.7890181419316,None,148.7890181419316,None,149.78941204478906,None,0.9172660005860962,,,,,,,,,,,,,,,,,,,,,,,,,,,,,,24199,2019_Oct_02_1634,Mmi_3levels,3.1.5,59.97650942380807,
,,,1,1,2.9,,,,,,,,,0,0,0,0,0,9,9,23,,,,,,,,,,,,,,,,,,,,,,,,,,,,,,,,,,,,,,,,,,,,,,,,,,,,,,,,,,,,,True,True,False,1.0,0.0,0.0,-0.0,2.9,2.9,1.45,gamble,win,2.9,70.60000000000001,151.80687272490104,None,151.80687272490104,None,151.80687272490104,None,151.80687272490104,None,151.80687272490104,None,151.80687272490104,None,151.80687272490104,None,1,151.80687272490104,None,154.30785284224476,None,154.30785284224476,None,154.30785284224476,None,154.30785284224476,None,154.30785284224476,None,154.30785284224476,None,154.30785284224476,None,158.29270374153566,None,158.29270374153566,None,158.29270374153566,None,158.29270374153566,None,158.29270374153566,None,158.29270374153566,None,158.29270374153566,None,167.7964654978241,None,2.4678900374274235,159.29313316284606,None,160.29355650442085,None,1.0,7.502947391731141,163.29467709565506,None,None,163.29467709565506,None,,,,,,,,,,,,,,,,,,,24199,2019_Oct_02_1634,Mmi_3levels,3.1.5,59.97650942380807,
,,,1,1,5.1,,,,,,,,,0,0,0,0,0,10,10,9,,,,,,,,,,,,,,,,,,,,,,,,,,,,,,,,,,,,,,,,,,,,,,,,,,,,,,,,,,,,,True,True,False,1.0,0.0,0.0,-0.0,5.1,5.1,2.55,gamble,win,5.1,75.7,169.83519373236777,None,169.83519373236777,None,169.83519373236777,None,169.83519373236777,None,169.83519373236777,None,169.83519373236777,None,169.83519373236777,None,1,169.83519373236777,None,170.93102252190147,None,170.93102252190147,None,170.93102252190147,None,170.93102252190147,None,170.93102252190147,None,170.93102252190147,None,170.93102252190147,None,174.93260549300976,None,174.93260549300976,None,174.93260549300976,None,174.93260549300976,None,174.93260549300976,None,174.93260549300976,None,174.93260549300976,None,175.9329657973285,None,1.0793904649253818,,,,,,,,,,,,,,,,,,,,,,,,,,,,,,24199,2019_Oct_02_1634,Mmi_3levels,3.1.5,59.97650942380807,
,,,1,1,11.5,,,,,,,,,0,0,0,0,0,11,11,15,,,,,,,,,,,,,,,,,,,,,,,,,,,,,,,,,,,,,,,,,,,,,,,,,,,,,,,,,,,,,True,True,True,1.0,0.0,0.0,-0.0,11.5,11.5,5.75,gamble,win,11.5,87.2,177.95042167764768,None,177.95042167764768,None,177.95042167764768,None,177.95042167764768,None,177.95042167764768,None,177.95042167764768,None,177.95042167764768,None,None,177.95042167764768,None,180.9516360248017,None,180.9516360248017,None,180.9516360248017,None,180.9516360248017,None,180.9516360248017,None,180.9516360248017,None,180.9516360248017,None,184.95316587822163,None,184.95316587822163,None,184.95316587822163,None,184.95316587822163,None,184.95316587822163,None,184.95316587822163,None,184.95316587822163,None,194.44025763998798,None,,185.93691314554235,None,186.937275689761,None,1.0,7.5029528314917115,189.9384570783477,None,None,189.9384570783477,None,,,,,,,,,,,,,,,,,,,24199,2019_Oct_02_1634,Mmi_3levels,3.1.5,59.97650942380807,
,,,1,1,3.3,,,,,,,,,0,0,0,0,0,12,12,19,,,,,,,,,,,,,,,,,,,,,,,,,,,,,,,,,,,,,,,,,,,,,,,,,,,,,,,,,,,,,True,True,True,1.0,0.0,0.0,-0.0,3.3,3.3,1.65,gamble,win,3.3,90.5,196.4576706421758,None,196.4576706421758,None,196.4576706421758,None,196.4576706421758,None,196.4576706421758,None,196.4576706421758,None,196.4576706421758,None,1,196.4576706421758,None,196.5577130083293,None,196.5577130083293,None,196.5577130083293,None,196.5577130083293,None,196.5577130083293,None,196.5577130083293,None,196.5577130083293,None,200.5592834999843,None,200.5592834999843,None,200.5592834999843,None,200.5592834999843,None,200.5592834999843,None,200.5592834999843,None,200.5592834999843,None,201.54300164856977,None,0.06694620650159777,,,,,,,,,,,,,,,,,,,,,,,,,,,,,,24199,2019_Oct_02_1634,Mmi_3levels,3.1.5,59.97650942380807,
,,,1,1,9.3,,,,,,,,,0,0,0,0,0,13,13,22,,,,,,,,,,,,,,,,,,,,,,,,,,,,,,,,,,,,,,,,,,,,,,,,,,,,,,,,,,,,,True,False,False,1.0,0.0,0.0,0.0,9.3,9.3,4.65,certain,certain,4.65,95.15,203.56046360862456,None,203.56046360862456,None,203.56046360862456,None,203.56046360862456,None,203.56046360862456,None,203.56046360862456,None,203.56046360862456,None,3,203.56046360862456,None,204.64421164391024,None,204.64421164391024,None,204.64421164391024,None,204.64421164391024,None,204.64421164391024,None,204.64421164391024,None,204.64421164391024,None,208.62914605956394,None,208.62914605956394,None,208.62914605956394,None,208.62914605956394,None,208.62914605956394,None,208.62914605956394,None,208.62914605956394,None,209.6295559617247,None,1.0506704348226776,,,,,,,,,,,,,,,,,,,,,,,,,,,,,,24199,2019_Oct_02_1634,Mmi_3levels,3.1.5,59.97650942380807,
,,,1,1,6.3,,,,,,,,,0,0,0,0,0,14,14,3,,,,,,,,,,,,,,,,,,,,,,,,,,,,,,,,,,,,,,,,,,,,,,,,,,,,,,,,,,,,,True,True,False,1.0,0.0,0.0,-0.0,6.3,6.3,3.15,gamble,win,6.3,101.45,211.64695520450914,None,211.64695520450914,None,211.64695520450914,None,211.64695520450914,None,211.64695520450914,None,211.64695520450914,None,211.64695520450914,None,1,211.64695520450914,None,212.9307892520519,None,212.9307892520519,None,212.9307892520519,None,212.9307892520519,None,212.9307892520519,None,212.9307892520519,None,212.9307892520519,None,216.93236038367831,None,216.93236038367831,None,216.93236038367831,None,216.93236038367831,None,216.93236038367831,None,216.93236038367831,None,216.93236038367831,None,226.41945054551252,None,1.2507650867009943,217.9161239702844,None,218.91648171471752,None,1.0,7.502863555379008,221.9176973418107,None,None,221.9176973418107,None,,,,,,,,,,,,,,,,,,,24199,2019_Oct_02_1634,Mmi_3levels,3.1.5,59.97650942380807,
,,,1,1,2.3,,,,,,,,,0,0,0,0,0,15,15,14,,,,,,,,,,,,,,,,,,,,,,,,,,,,,,,,,,,,,,,,,,,,,,,,,,,,,,,,,,,,,True,True,True,1.0,0.0,0.0,-0.0,2.3,2.3,1.15,gamble,win,2.3,103.75,228.45817494022776,None,228.45817494022776,None,228.45817494022776,None,228.45817494022776,None,228.45817494022776,None,228.45817494022776,None,228.45817494022776,None,1,228.45817494022776,None,229.32058924795638,None,229.32058924795638,None,229.32058924795638,None,229.32058924795638,None,229.32058924795638,None,229.32058924795638,None,229.32058924795638,None,233.30544462705075,None,233.30544462705075,None,233.30544462705075,None,233.30544462705075,None,233.30544462705075,None,233.30544462705075,None,233.30544462705075,None,234.3058820480146,None,0.8292979889520211,,,,,,,,,,,,,,,,,,,,,,,,,,,,,,24199,2019_Oct_02_1634,Mmi_3levels,3.1.5,59.97650942380807,
,,,1,1,1.5,,,,,,,,,0,0,0,0,0,16,16,12,,,,,,,,,,,,,,,,,,,,,,,,,,,,,,,,,,,,,,,,,,,,,,,,,,,,,,,,,,,,,True,True,False,1.0,0.0,0.0,-0.0,1.5,1.5,1.5,gamble,win,1.5,105.25,236.32331008954498,None,236.32331008954498,None,236.32331008954498,None,236.32331008954498,None,236.32331008954498,None,236.32331008954498,None,236.32331008954498,None,1,236.32331008954498,None,236.52341914079807,None,236.52341914079807,None,236.52341914079807,None,236.52341914079807,None,236.52341914079807,None,236.52341914079807,None,236.52341914079807,None,240.5082662002569,None,240.5082662002569,None,240.5082662002569,None,240.5082662002569,None,240.5082662002569,None,240.5082662002569,None,240.5082662002569,None,250.01203499623807,None,0.16694697446655482,241.50866330297504,None,242.50905656585746,None,1.0,7.502934912274213,245.51023763445846,None,None,245.51023763445846,None,,,,,,,,,,,,,,,,,,,24199,2019_Oct_02_1634,Mmi_3levels,3.1.5,59.97650942380807,
,,,1,1,8.5,,,,,,,,,0,0,0,0,0,17,17,21,,,,,,,,,,,,,,,,,,,,,,,,,,,,,,,,,,,,,,,,,,,,,,,,,,,,,,,,,,,,,True,True,False,1.0,0.0,0.0,-0.0,8.5,8.5,4.25,gamble,win,8.5,113.75,252.02945855796497,None,252.02945855796497,None,252.02945855796497,None,252.02945855796497,None,252.02945855796497,None,252.02945855796497,None,252.02945855796497,None,1,252.02945855796497,None,252.979883755459,None,252.979883755459,None,252.979883755459,None,252.979883755459,None,252.979883755459,None,252.979883755459,None,252.979883755459,None,256.96471545558234,None,256.96471545558234,None,256.96471545558234,None,256.96471545558234,None,256.96471545558234,None,256.96471545558234,None,256.96471545558234,None,257.96511767807897,None,0.9172880796213576,,,,,,,,,,,,,,,,,,,,,,,,,,,,,,24199,2019_Oct_02_1634,Mmi_3levels,3.1.5,59.97650942380807,
,,,1,1,4.7,,,,,,,,,0,0,0,0,0,18,18,10,,,,,,,,,,,,,,,,,,,,,,,,,,,,,,,,,,,,,,,,,,,,,,,,,,,,,,,,,,,,,True,False,True,1.0,0.0,0.0,0.0,4.7,4.7,2.35,certain,certain,2.35,116.1,259.98257355839814,None,259.98257355839814,None,259.98257355839814,None,259.98257355839814,None,259.98257355839814,None,259.98257355839814,None,259.98257355839814,None,3,259.98257355839814,None,261.0996721422707,None,261.0996721422707,None,261.0996721422707,None,261.0996721422707,None,261.0996721422707,None,261.0996721422707,None,261.0996721422707,None,265.08456975952504,None,265.08456975952504,None,265.08456975952504,None,265.08456975952504,None,265.08456975952504,None,265.08456975952504,None,265.08456975952504,None,266.08500462059965,None,1.0841809764424397,,,,,,,,,,,,,,,,,,,,,,,,,,,,,,24199,2019_Oct_02_1634,Mmi_3levels,3.1.5,59.97650942380807,
,,,1,1,5.7,,,,,,,,,0,0,0,0,0,19,19,20,,,,,,,,,,,,,,,,,,,,,,,,,,,,,,,,,,,,,,,,,,,,,,,,,,,,,,,,,,,,,True,True,True,1.0,0.0,0.0,-0.0,5.7,5.7,2.85,gamble,win,5.7,121.8,268.1024253024516,None,268.1024253024516,None,268.1024253024516,None,268.1024253024516,None,268.1024253024516,None,268.1024253024516,None,268.1024253024516,None,1,268.1024253024516,None,270.5867651839799,None,270.5867651839799,None,270.5867651839799,None,270.5867651839799,None,270.5867651839799,None,270.5867651839799,None,270.5867651839799,None,274.5716186431564,None,274.5716186431564,None,274.5716186431564,None,274.5716186431564,None,274.5716186431564,None,274.5716186431564,None,274.5716186431564,None,284.07539287890177,None,2.4512210028624395,275.5719738277003,None,276.57241316857835,None,1.0,7.502808837762132,279.5735475192123,None,None,279.5735475192123,None,,,,,,,,,,,,,,,,,,,24199,2019_Oct_02_1634,Mmi_3levels,3.1.5,59.97650942380807,
,,,1,1,4.5,,,,,,,,,0,0,0,0,0,20,20,13,,,,,,,,,,,,,,,,,,,,,,,,,,,,,,,,,,,,,,,,,,,,,,,,,,,,,,,,,,,,,True,True,False,1.0,0.0,0.0,-0.0,4.5,4.5,2.25,gamble,win,4.5,126.3,286.0928641185528,None,286.0928641185528,None,286.0928641185528,None,286.0928641185528,None,286.0928641185528,None,286.0928641185528,None,286.0928641185528,None,1,286.0928641185528,None,286.44293784334513,None,286.44293784334513,None,286.44293784334513,None,286.44293784334513,None,286.44293784334513,None,286.44293784334513,None,286.44293784334513,None,290.4445073750394,None,290.4445073750394,None,290.4445073750394,None,290.4445073750394,None,290.4445073750394,None,290.4445073750394,None,290.4445073750394,None,291.4448769589544,None,0.333801152974047,,,,,,,,,,,,,,,,,,,,,,,,,,,,,,24199,2019_Oct_02_1634,Mmi_3levels,3.1.5,59.97650942380807,
,,,1,1,-0.9,,,,,,,,,0,0,0,0,0,21,21,5,,,,,,,,,,,,,,,,,,,,,,,,,,,,,,,,,,,,,,,,,,,,,,,,,,,,,,,,,,,,,True,True,True,1.0,0.0,0.0,-0.0,-0.9,-0.9,-0.9,gamble,win,-0.9,125.39999999999999,293.4623203598203,None,293.4623203598203,None,293.4623203598203,None,293.4623203598203,None,293.4623203598203,None,293.4623203598203,None,293.4623203598203,None,1,293.4623203598203,None,293.9626077073117,None,293.9626077073117,None,293.9626077073117,None,293.9626077073117,None,293.9626077073117,None,293.9626077073117,None,293.9626077073117,None,297.96408284311474,None,297.96408284311474,None,297.96408284311474,None,297.96408284311474,None,297.96408284311474,None,297.96408284311474,None,297.96408284311474,None,307.45119988378065,None,0.46724334557075053,298.9478329903104,None,299.94823649274986,None,1.0,7.503075386157434,302.9494162814044,None,None,302.9494162814044,None,,,,,,,,,,,,,,,,,,,24199,2019_Oct_02_1634,Mmi_3levels,3.1.5,59.97650942380807,
,,,1,1,7.1,,,,,,,,,0,0,0,0,0,22,22,25,,,,,,,,,,,,,,,,,,,,,,,,,,,,,,,,,,,,,,,,,,,,,,,,,,,,,,,,,,,,,True,True,True,1.0,0.0,0.0,-0.0,7.1,7.1,3.55,gamble,win,7.1,132.5,309.4686551241284,None,309.4686551241284,None,309.4686551241284,None,309.4686551241284,None,309.4686551241284,None,309.4686551241284,None,309.4686551241284,None,None,309.4686551241284,None,312.4698153936333,None,312.4698153936333,None,312.4698153936333,None,312.4698153936333,None,312.4698153936333,None,312.4698153936333,None,312.4698153936333,None,316.45474596945496,None,316.45474596945496,None,316.45474596945496,None,316.45474596945496,None,316.45474596945496,None,316.45474596945496,None,316.45474596945496,None,317.4550985941096,None,,,,,,,,,,,,,,,,,,,,,,,,,,,,,,,24199,2019_Oct_02_1634,Mmi_3levels,3.1.5,59.97650942380807,
,,,1,1,0.5,,,,,,,,,0,0,0,0,0,23,23,2,,,,,,,,,,,,,,,,,,,,,,,,,,,,,,,,,,,,,,,,,,,,,,,,,,,,,,,,,,,,,True,True,True,1.0,0.0,0.0,-0.0,0.5,0.5,0.5,gamble,win,0.5,133.0,319.4725563943466,None,319.4725563943466,None,319.4725563943466,None,319.4725563943466,None,319.4725563943466,None,319.4725563943466,None,319.4725563943466,None,1,319.4725563943466,None,319.6559612125675,None,319.6559612125675,None,319.6559612125675,None,319.6559612125675,None,319.6559612125675,None,319.6559612125675,None,319.6559612125675,None,323.64085850983975,None,323.64085850983975,None,323.64085850983975,None,323.64085850983975,None,323.64085850983975,None,323.64085850983975,None,323.64085850983975,None,333.1446161063068,None,0.15029969895840622,324.64124985280796,None,325.6416466355404,None,0.94,7.5028574756433954,328.64283378387336,None,None,328.64283378387336,None,,,,,,,,,,,,,,,,,,,24199,2019_Oct_02_1634,Mmi_3levels,3.1.5,59.97650942380807,
,,,1,1,10.9,,,,,,,,,0,0,0,0,0,24,24,6,,,,,,,,,,,,,,,,,,,,,,,,,,,,,,,,,,,,,,,,,,,,,,,,,,,,,,,,,,,,,True,False,False,0.94,-0.06000000000000005,-0.06000000000000005,-0.2150000000000002,10.9,10.685,5.3425,gamble,lose,10.685,143.685,335.1620361481873,None,335.1620361481873,None,335.1620361481873,None,335.1620361481873,None,335.1620361481873,None,335.1620361481873,None,335.1620361481873,None,1,335.1620361481873,None,336.0123757814072,None,336.0123757814072,None,336.0123757814072,None,336.0123757814072,None,336.0123757814072,None,336.0123757814072,None,336.0123757814072,None,339.997271798733,None,339.997271798733,None,339.997271798733,None,339.997271798733,None,339.997271798733,None,339.997271798733,None,339.997271798733,None,340.997618343652,None,0.8172524331748718,,,,,,,,,,,,,,,,,,,,,,,,,,,,,,24199,2019_Oct_02_1634,Mmi_3levels,3.1.5,59.97650942380807,
,,,1,1,4.1,,,,,,,,,0,0,0,0,0,25,25,4,,,,,,,,,,,,,,,,,,,,,,,,,,,,,,,,,,,,,,,,,,,,,,,,,,,,,,,,,,,,,True,True,True,0.94,-0.06000000000000005,-0.1200000000000001,0.9600000000000009,4.1,3.139999999999999,1.5699999999999994,gamble,win,4.1,147.785,343.0151215819096,None,343.0151215819096,None,343.0151215819096,None,343.0151215819096,None,343.0151215819096,None,343.0151215819096,None,343.0151215819096,None,1,343.0151215819096,None,343.16518161129716,None,343.16518161129716,None,343.16518161129716,None,343.16518161129716,None,343.16518161129716,None,343.16518161129716,None,343.16518161129716,None,347.1500702689409,None,347.1500702689409,None,347.1500702689409,None,347.1500702689409,None,347.1500702689409,None,347.1500702689409,None,347.1500702689409,None,348.1505192094046,None,0.11696290977488388,,,,,,,,,,,,,,,,,,,,,,,,,,,,,,24199,2019_Oct_02_1634,Mmi_3levels,3.1.5,59.97650942380807,
,,,1,1,12.5,,,,,,,,,0,0,0,0,0,26,26,1,,,,,,,,,,,,,,,,,,,,,,,,,,,,,,,,,,,,,,,,,,,,,,,,,,,,,,,,,,,,,True,True,False,0.94,-0.06000000000000005,-0.18000000000000016,1.020000000000001,12.5,11.479999999999999,5.739999999999999,gamble,win,12.5,160.285,350.16792517189606,None,350.16792517189606,None,350.16792517189606,None,350.16792517189606,None,350.16792517189606,None,350.16792517189606,None,350.16792517189606,None,1,350.16792517189606,None,350.21794219515505,None,350.21794219515505,None,350.21794219515505,None,350.21794219515505,None,350.21794219515505,None,350.21794219515505,None,350.21794219515505,None,354.2195107668922,None,354.2195107668922,None,354.2195107668922,None,354.2195107668922,None,354.2195107668922,None,354.2195107668922,None,354.2195107668922,None,363.706590689173,None,0.01690998407502775,355.20323339528477,None,356.203621858378,None,0.87,7.502810757672705,359.2047971672291,None,None,359.2047971672291,None,,,,,,,,,,,,,,,,,,,24199,2019_Oct_02_1634,Mmi_3levels,3.1.5,59.97650942380807,
,,,2,0,1.7,,,,,,,,,0,1,1,1,0,0,0,24,,,,,,,,,,,,,,,,,,,,,,,,,,,,,,,,,,,,,,,,,,,,,,,,,365.90746290721654,None,1.0,5.001601530300832,368.92527845188306,None,4,1.9683447376373806,368.92527845188306,None,370.9260592179053,None,False,True,True,1.0,1.0,1.0,-15.0,0.425,-14.575,-7.074999999999999,certain,certain,-7.074999999999999,153.21,373.94387124272544,None,373.94387124272544,None,373.94387124272544,None,373.94387124272544,None,373.94387124272544,None,373.94387124272544,None,373.94387124272544,None,3,373.94387124272544,None,375.09436453325543,None,375.09436453325543,None,375.09436453325543,None,375.09436453325543,None,375.09436453325543,None,375.09436453325543,None,375.09436453325543,None,379.0792919092164,None,379.0792919092164,None,379.0792919092164,None,379.0792919092164,None,379.0792919092164,None,379.0792919092164,None,379.0792919092164,None,380.0796326943855,None,1.1174486486343085,,,,,,,,,,,,365.7074040937732,None,4,0.1835203331975208,365.7074040937732,None,,,,,,,,,,,,,24199,2019_Oct_02_1634,Mmi_3levels,3.1.5,59.97650942380807,
,,,2,0,5.7,,,,,,,,,0,1,1,1,0,1,1,11,,,,,,,,,,,,,,,,,,,,,,,,,,,,,,,,,,,,,,,,,,,,,,,,,,,,,,,,,,,,,False,True,False,1.0,1.0,2.0,-16.0,1.425,-14.575,-6.574999999999999,gamble,lose,-14.575,138.63500000000002,382.097105213983,None,382.097105213983,None,382.097105213983,None,382.097105213983,None,382.097105213983,None,382.097105213983,None,382.097105213983,None,1,382.097105213983,None,382.23049076904135,None,382.23049076904135,None,382.23049076904135,None,382.23049076904135,None,382.23049076904135,None,382.23049076904135,None,382.23049076904135,None,386.23211565832753,None,386.23211565832753,None,386.23211565832753,None,386.23211565832753,None,386.23211565832753,None,386.23211565832753,None,386.23211565832753,None,395.7191143041455,None,0.10025899672837113,387.21580788804204,None,388.2161627525966,None,0.9,7.502895873971283,391.2173019030233,None,None,391.2173019030233,None,,,,,,,,,,,,,,,,,,,24199,2019_Oct_02_1634,Mmi_3levels,3.1.5,59.97650942380807,
,,,2,0,3.3,,,,,,,,,0,1,1,1,0,2,2,2,,,,,,,,,,,,,,,,,,,,,,,,,,,,,,,,,,,,,,,,,,,,,,,,,,,,,,,,,,,,,False,True,False,0.9,0.9,2.9,-15.5,0.825,-14.675,-6.925000000000001,certain,certain,-6.925000000000001,131.71,397.7365561050792,None,397.7365561050792,None,397.7365561050792,None,397.7365561050792,None,397.7365561050792,None,397.7365561050792,None,397.7365561050792,None,3,397.7365561050792,None,400.4709292651605,None,400.4709292651605,None,400.4709292651605,None,400.4709292651605,None,400.4709292651605,None,400.4709292651605,None,400.4709292651605,None,404.4725451948325,None,404.4725451948325,None,404.4725451948325,None,404.4725451948325,None,404.4725451948325,None,404.4725451948325,None,404.4725451948325,None,405.4562643033787,None,2.701328198196279,,,,,,,,,,,,,,,,,,,,,,,,,,,,,,24199,2019_Oct_02_1634,Mmi_3levels,3.1.5,59.97650942380807,
,,,2,0,5.3,,,,,,,,,0,1,1,1,0,3,3,21,,,,,,,,,,,,,,,,,,,,,,,,,,,,,,,,,,,,,,,,,,,,,,,,,,,,,,,,,,,,,False,True,True,0.9,0.9,3.8,-16.4,1.325,-15.075,-6.875,gamble,lose,-15.075,116.635,407.47372274358713,None,407.47372274358713,None,407.47372274358713,None,407.47372274358713,None,407.47372274358713,None,407.47372274358713,None,407.47372274358713,None,1,407.47372274358713,None,408.6742240977692,None,408.6742240977692,None,408.6742240977692,None,408.6742240977692,None,408.6742240977692,None,408.6742240977692,None,408.6742240977692,None,412.725776734198,None,412.725776734198,None,412.725776734198,None,412.725776734198,None,412.725776734198,None,412.725776734198,None,412.725776734198,None,422.1627826756994,None,1.167371915977128,413.65947593960664,None,414.6598237644721,None,0.82,7.502816837411956,417.66108066977176,None,None,417.66108066977176,None,,,,,,,,,,,,,,,,,,,24199,2019_Oct_02_1634,Mmi_3levels,3.1.5,59.97650942380807,
,,,2,0,7.1,,,,,,,,,0,1,1,1,0,4,4,18,,,,,,,,,,,,,,,,,,,,,,,,,,,,,,,,,,,,,,,,,,,,,,,,,,,,,,,,,,,,,False,False,False,0.82,0.82,4.62,3.255,1.775,-1.48,0.14749999999999996,gamble,win,1.775,118.41000000000001,424.18026831472525,None,424.18026831472525,None,424.18026831472525,None,424.18026831472525,None,424.18026831472525,None,424.18026831472525,None,424.18026831472525,None,1,424.18026831472525,None,424.9972065215734,None,424.9972065215734,None,424.9972065215734,None,424.9972065215734,None,424.9972065215734,None,424.9972065215734,None,424.9972065215734,None,428.9987744533355,None,428.9987744533355,None,428.9987744533355,None,428.9987744533355,None,428.9987744533355,None,428.9987744533355,None,428.9987744533355,None,429.9825485994843,None,0.7838436471247405,,,,,,,,,,,,,,,,,,,,,,,,,,,,,,24199,2019_Oct_02_1634,Mmi_3levels,3.1.5,59.97650942380807,
,,,2,0,4.7,,,,,,,,,0,1,1,1,0,5,5,7,,,,,,,,,,,,,,,,,,,,,,,,,,,,,,,,,,,,,,,,,,,,,,,,,,,,,,,,,,,,,False,False,True,0.82,0.82,5.44,3.3233333333333333,1.175,-2.1483333333333334,-0.4866666666666667,gamble,win,1.175,119.58500000000001,432.00004735793846,None,432.00004735793846,None,432.00004735793846,None,432.00004735793846,None,432.00004735793846,None,432.00004735793846,None,432.00004735793846,None,1,432.00004735793846,None,432.1333810752549,None,432.1333810752549,None,432.1333810752549,None,432.1333810752549,None,432.1333810752549,None,432.1333810752549,None,432.1333810752549,None,436.13499028522347,None,436.13499028522347,None,436.13499028522347,None,436.13499028522347,None,436.13499028522347,None,436.13499028522347,None,436.13499028522347,None,437.1186658756633,None,0.10020875891495962,,,,,,,,,,,,,,,,,,,,,,,,,,,,,,24199,2019_Oct_02_1634,Mmi_3levels,3.1.5,59.97650942380807,
,,,2,0,2.3,,,,,,,,,0,1,1,1,0,6,6,5,,,,,,,,,,,,,,,,,,,,,,,,,,,,,,,,,,,,,,,,,,,,,,,,,,,,,,,,,,,,,False,True,False,0.82,0.82,6.260000000000001,-17.74,0.575,-17.165,-8.295,gamble,lose,-17.165,102.42000000000002,439.13609455716505,None,439.13609455716505,None,439.13609455716505,None,439.13609455716505,None,439.13609455716505,None,439.13609455716505,None,439.13609455716505,None,1,439.13609455716505,None,439.33623144720696,None,439.33623144720696,None,439.33623144720696,None,439.33623144720696,None,439.33623144720696,None,439.33623144720696,None,439.33623144720696,None,443.33778113976587,None,443.33778113976587,None,443.33778113976587,None,443.33778113976587,None,443.33778113976587,None,443.33778113976587,None,443.33778113976587,None,452.8248613820324,None,0.16699017259088578,444.321495768505,None,445.32188871140534,None,0.86,7.5028475560757215,448.3231017786129,None,None,448.3231017786129,None,,,,,,,,,,,,,,,,,,,24199,2019_Oct_02_1634,Mmi_3levels,3.1.5,59.97650942380807,
,,,2,0,5.5,,,,,,,,,0,1,1,1,0,7,7,6,,,,,,,,,,,,,,,,,,,,,,,,,,,,,,,,,,,,,,,,,,,,,,,,,,,,,,,,,,,,,False,False,False,0.86,0.86,7.120000000000001,3.603333333333333,1.375,-2.228333333333333,-0.4266666666666665,certain,certain,-0.4266666666666665,101.99333333333335,454.8422897435521,None,454.8422897435521,None,454.8422897435521,None,454.8422897435521,None,454.8422897435521,None,454.8422897435521,None,454.8422897435521,None,3,454.8422897435521,None,456.409604574008,None,456.409604574008,None,456.409604574008,None,456.409604574008,None,456.409604574008,None,456.409604574008,None,456.409604574008,None,460.39449451159817,None,460.39449451159817,None,460.39449451159817,None,460.39449451159817,None,460.39449451159817,None,460.39449451159817,None,460.39449451159817,None,461.39485449593485,None,1.5341965917650668,,,,,,,,,,,,,,,,,,,,,,,,,,,,,,24199,2019_Oct_02_1634,Mmi_3levels,3.1.5,59.97650942380807,
,,,2,0,5.1,,,,,,,,,0,1,1,1,0,8,8,15,,,,,,,,,,,,,,,,,,,,,,,,,,,,,,,,,,,,,,,,,,,,,,,,,,,,,,,,,,,,,False,True,True,0.86,0.86,7.980000000000001,-20.02,1.275,-18.745,-8.735000000000001,gamble,lose,-18.745,83.24833333333335,463.4123062164326,None,463.4123062164326,None,463.4123062164326,None,463.4123062164326,None,463.4123062164326,None,463.4123062164326,None,463.4123062164326,None,1,463.4123062164326,None,464.1626025235382,None,464.1626025235382,None,464.1626025235382,None,464.1626025235382,None,464.1626025235382,None,464.1626025235382,None,464.1626025235382,None,468.16417621505025,None,468.16417621505025,None,468.16417621505025,None,468.16417621505025,None,468.16417621505025,None,468.16417621505025,None,468.16417621505025,None,477.651229258503,None,0.7172139068497927,469.14794460145276,None,470.14833946426734,None,0.81,7.502884354471462,473.1495128532006,None,None,473.1495128532006,None,,,,,,,,,,,,,,,,,,,24199,2019_Oct_02_1634,Mmi_3levels,3.1.5,59.97650942380807,
,,,2,0,9.1,,,,,,,,,0,1,1,1,0,9,9,16,,,,,,,,,,,,,,,,,,,,,,,,,,,,,,,,,,,,,,,,,,,,,,,,,,,,,,,,,,,,,False,True,True,0.81,0.81,8.790000000000001,-20.130000000000003,2.275,-17.855000000000004,-7.790000000000002,gamble,lose,-17.855000000000004,65.39333333333335,479.6687113776825,None,479.6687113776825,None,479.6687113776825,None,479.6687113776825,None,479.6687113776825,None,479.6687113776825,None,479.6687113776825,None,1,479.6687113776825,None,481.1358891261043,None,481.1358891261043,None,481.1358891261043,None,481.1358891261043,None,481.1358891261043,None,481.1358891261043,None,481.1358891261043,None,485.12080306265125,None,485.12080306265125,None,485.12080306265125,None,485.12080306265125,None,485.12080306265125,None,485.12080306265125,None,485.12080306265125,None,486.12120848500854,None,1.4341209470549074,,,,,,,,,,,,,,,,,,,,,,,,,,,,,,24199,2019_Oct_02_1634,Mmi_3levels,3.1.5,59.97650942380807,
,,,2,0,0.9,,,,,,,,,0,1,1,1,0,10,10,9,,,,,,,,,,,,,,,,,,,,,,,,,,,,,,,,,,,,,,,,,,,,,,,,,,,,,,,,,,,,,False,True,False,0.81,0.81,9.600000000000001,-20.94,0.225,-20.715,-10.245,gamble,lose,-20.715,44.67833333333334,488.13867140502043,None,488.13867140502043,None,488.13867140502043,None,488.13867140502043,None,488.13867140502043,None,488.13867140502043,None,488.13867140502043,None,None,488.13867140502043,None,491.13989695168493,None,491.13989695168493,None,491.13989695168493,None,491.13989695168493,None,491.13989695168493,None,491.13989695168493,None,491.13989695168493,None,495.14144760420095,None,495.14144760420095,None,495.14144760420095,None,495.14144760420095,None,495.14144760420095,None,495.14144760420095,None,495.14144760420095,None,496.1251692726328,None,,,,,,,,,,,,,,,,,,,,,,,,,,,,,,,24199,2019_Oct_02_1634,Mmi_3levels,3.1.5,59.97650942380807,
,,,2,0,13.3,,,,,,,,,0,1,1,1,0,11,11,0,,,,,,,,,,,,,,,,,,,,,,,,,,,,,,,,,,,,,,,,,,,,,,,,,,,,,,,,,,,,,False,True,False,0.81,0.81,10.410000000000002,-21.75,3.325,-18.425,-7.550000000000001,gamble,lose,-18.425,26.25333333333334,498.14258707460976,None,498.14258707460976,None,498.14258707460976,None,498.14258707460976,None,498.14258707460976,None,498.14258707460976,None,498.14258707460976,None,1,498.14258707460976,None,499.2430585420916,None,499.2430585420916,None,499.2430585420916,None,499.2430585420916,None,499.2430585420916,None,499.2430585420916,None,499.2430585420916,None,503.2278646433333,None,503.2278646433333,None,503.2278646433333,None,503.2278646433333,None,503.2278646433333,None,503.2278646433333,None,503.2278646433333,None,512.731642398925,None,1.0673557886766503,504.2283043041971,None,505.22865468894815,None,0.85,7.502930112485046,508.22987383589134,None,None,508.22987383589134,None,,,,,,,,,,,,,,,,,,,24199,2019_Oct_02_1634,Mmi_3levels,3.1.5,59.97650942380807,
,,,2,0,12.5,,,,,,,,,0,1,1,1,0,12,12,14,,,,,,,,,,,,,,,,,,,,,,,,,,,,,,,,,,,,,,,,,,,,,,,,,,,,,,,,,,,,,False,True,False,0.85,0.85,11.260000000000002,-23.160000000000004,3.125,-20.035000000000004,-8.455000000000002,gamble,lose,-20.035000000000004,6.218333333333337,514.7490963593264,None,514.7490963593264,None,514.7490963593264,None,514.7490963593264,None,514.7490963593264,None,514.7490963593264,None,514.7490963593264,None,1,514.7490963593264,None,515.799512725207,None,515.799512725207,None,515.799512725207,None,515.799512725207,None,515.799512725207,None,515.799512725207,None,515.799512725207,None,519.8010320190879,None,519.8010320190879,None,519.8010320190879,None,519.8010320190879,None,519.8010320190879,None,519.8010320190879,None,519.8010320190879,None,520.7848023254046,None,1.017449800587201,,,,,,,,,,,,,,,,,,,,,,,,,,,,,,24199,2019_Oct_02_1634,Mmi_3levels,3.1.5,59.97650942380807,
,,,2,0,8.9,,,,,,,,,0,1,1,1,0,13,13,12,,,,,,,,,,,,,,,,,,,,,,,,,,,,,,,,,,,,,,,,,,,,,,,,,,,,,,,,,,,,,False,False,True,0.85,0.85,12.110000000000001,3.984166666666667,2.225,-1.7591666666666668,0.23291666666666666,gamble,win,2.225,8.443333333333337,522.8022070079533,None,522.8022070079533,None,522.8022070079533,None,522.8022070079533,None,522.8022070079533,None,522.8022070079533,None,522.8022070079533,None,1,522.8022070079533,None,524.0193997957213,None,524.0193997957213,None,524.0193997957213,None,524.0193997957213,None,524.0193997957213,None,524.0193997957213,None,524.0193997957213,None,528.0042935731435,None,528.0042935731435,None,528.0042935731435,None,528.0042935731435,None,528.0042935731435,None,528.0042935731435,None,528.0042935731435,None,537.508019810979,None,1.1841027078480693,529.0047149948041,None,530.0051085776759,None,0.82,7.502901953706896,533.0062851664698,None,None,533.0062851664698,None,,,,,,,,,,,,,,,,,,,24199,2019_Oct_02_1634,Mmi_3levels,3.1.5,59.97650942380807,
,,,2,0,2.7,,,,,,,,,0,1,1,1,0,14,14,8,,,,,,,,,,,,,,,,,,,,,,,,,,,,,,,,,,,,,,,,,,,,,,,,,,,,,,,,,,,,,False,False,False,0.82,0.82,12.930000000000001,3.9475,0.675,-3.2725,-1.29875,gamble,win,0.675,9.118333333333338,539.5467717244937,None,539.5467717244937,None,539.5467717244937,None,539.5467717244937,None,539.5467717244937,None,539.5467717244937,None,539.5467717244937,None,1,539.5467717244937,None,540.8426647672313,None,540.8426647672313,None,540.8426647672313,None,540.8426647672313,None,540.8426647672313,None,540.8426647672313,None,540.8426647672313,None,544.8442243793543,None,544.8442243793543,None,544.8442243793543,None,544.8442243793543,None,544.8442243793543,None,544.8442243793543,None,544.8442243793543,None,545.8279834861605,None,1.2627885634392442,,,,,,,,,,,,,,,,,,,,,,,,,,,,,,24199,2019_Oct_02_1634,Mmi_3levels,3.1.5,59.97650942380807,
,,,2,0,1.9,,,,,,,,,0,1,1,1,0,15,15,13,,,,,,,,,,,,,,,,,,,,,,,,,,,,,,,,,,,,,,,,,,,,,,,,,,,,,,,,,,,,,False,True,True,0.82,0.82,13.750000000000002,-25.23,0.475,-24.755,-12.139999999999999,gamble,lose,-24.755,-15.636666666666661,547.8453792090986,None,547.8453792090986,None,547.8453792090986,None,547.8453792090986,None,547.8453792090986,None,547.8453792090986,None,547.8453792090986,None,1,547.8453792090986,None,550.7465390306206,None,550.7465390306206,None,550.7465390306206,None,550.7465390306206,None,550.7465390306206,None,550.7465390306206,None,550.7465390306206,None,554.7481111222041,None,554.7481111222041,None,554.7481111222041,None,554.7481111222041,None,554.7481111222041,None,554.7481111222041,None,554.7481111222041,None,564.2352121635668,None,2.8679270278153126,555.7317828728119,None,556.732212614108,None,0.77,7.502901633721194,559.7333959226089,None,None,559.7333959226089,None,,,,,,,,,,,,,,,,,,,24199,2019_Oct_02_1634,Mmi_3levels,3.1.5,59.97650942380807,
,,,2,0,6.5,,,,,,,,,0,1,1,1,0,16,16,19,,,,,,,,,,,,,,,,,,,,,,,,,,,,,,,,,,,,,,,,,,,,,,,,,,,,,,,,,,,,,False,True,True,0.77,0.77,14.520000000000001,-25.300000000000004,1.625,-23.675000000000004,-11.025000000000002,gamble,lose,-23.675000000000004,-39.31166666666667,566.2526546044719,None,566.2526546044719,None,566.2526546044719,None,566.2526546044719,None,566.2526546044719,None,566.2526546044719,None,566.2526546044719,None,1,566.2526546044719,None,567.1863166914991,None,567.1863166914991,None,567.1863166914991,None,567.1863166914991,None,567.1863166914991,None,567.1863166914991,None,567.1863166914991,None,571.1878756636506,None,571.1878756636506,None,571.1878756636506,None,571.1878756636506,None,571.1878756636506,None,571.1878756636506,None,571.1878756636506,None,572.1715640535331,None,0.9006667229841696,,,,,,,,,,,,,,,,,,,,,,,,,,,,,,24199,2019_Oct_02_1634,Mmi_3levels,3.1.5,59.97650942380807,
,,,2,0,1.1,,,,,,,,,0,1,1,1,0,17,17,22,,,,,,,,,,,,,,,,,,,,,,,,,,,,,,,,,,,,,,,,,,,,,,,,,,,,,,,,,,,,,False,True,True,0.77,0.77,15.290000000000001,-26.07,0.275,-25.795,-12.760000000000002,gamble,lose,-25.795,-65.10666666666667,574.1890679317657,None,574.1890679317657,None,574.1890679317657,None,574.1890679317657,None,574.1890679317657,None,574.1890679317657,None,574.1890679317657,None,1,574.1890679317657,None,575.0227212511709,None,575.0227212511709,None,575.0227212511709,None,575.0227212511709,None,575.0227212511709,None,575.0227212511709,None,575.0227212511709,None,579.0242866230474,None,579.0242866230474,None,579.0242866230474,None,579.0242866230474,None,579.0242866230474,None,579.0242866230474,None,579.0242866230474,None,580.00800349169,None,0.8005606795995845,,,,,,,,,,,,,,,,,,,,,,,,,,,,,,24199,2019_Oct_02_1634,Mmi_3levels,3.1.5,59.97650942380807,
,,,2,0,2.1,,,,,,,,,0,1,1,1,0,18,18,26,,,,,,,,,,,,,,,,,,,,,,,,,,,,,,,,,,,,,,,,,,,,,,,,,,,,,,,,,,,,,False,True,True,0.77,0.77,16.060000000000002,-26.840000000000003,0.525,-26.315000000000005,-12.895000000000003,gamble,lose,-26.315000000000005,-91.42166666666668,582.0254670516733,None,582.0254670516733,None,582.0254670516733,None,582.0254670516733,None,582.0254670516733,None,582.0254670516733,None,582.0254670516733,None,1,582.0254670516733,None,582.375607333568,None,582.375607333568,None,582.375607333568,None,582.375607333568,None,582.375607333568,None,582.375607333568,None,582.375607333568,None,586.3771739853873,None,586.3771739853873,None,586.3771739853873,None,586.3771739853873,None,586.3771739853873,None,586.3771739853873,None,586.3771739853873,None,595.8642225490366,None,0.31701340357540175,587.36089085403,None,588.3612751573055,None,0.89,7.502837316518708,591.3624562259065,None,None,591.3624562259065,None,,,,,,,,,,,,,,,,,,,24199,2019_Oct_02_1634,Mmi_3levels,3.1.5,59.97650942380807,
,,,2,0,-0.7,,,,,,,,,0,1,1,1,0,19,19,17,,,,,,,,,,,,,,,,,,,,,,,,,,,,,,,,,,,,,,,,,,,,,,,,,,,,,,,,,,,,,False,True,True,0.89,0.89,16.950000000000003,-29.410000000000004,-0.175,-29.585000000000004,-14.880000000000003,gamble,lose,-29.585000000000004,-121.00666666666669,597.8816806692594,None,597.8816806692594,None,597.8816806692594,None,597.8816806692594,None,597.8816806692594,None,597.8816806692594,None,597.8816806692594,None,None,597.8816806692594,None,600.882857578039,None,600.882857578039,None,600.882857578039,None,600.882857578039,None,600.882857578039,None,600.882857578039,None,600.882857578039,None,604.884417830137,None,604.884417830137,None,604.884417830137,None,604.884417830137,None,604.884417830137,None,604.884417830137,None,604.884417830137,None,605.8681820567181,None,,,,,,,,,,,,,,,,,,,,,,,,,,,,,,,24199,2019_Oct_02_1634,Mmi_3levels,3.1.5,59.97650942380807,
,,,2,0,0.5,,,,,,,,,0,1,1,1,0,20,20,10,,,,,,,,,,,,,,,,,,,,,,,,,,,,,,,,,,,,,,,,,,,,,,,,,,,,,,,,,,,,,False,True,True,0.89,0.89,17.840000000000003,-30.300000000000004,0.125,-30.175000000000004,-15.025000000000002,gamble,lose,-30.175000000000004,-151.1816666666667,607.8855736198384,None,607.8855736198384,None,607.8855736198384,None,607.8855736198384,None,607.8855736198384,None,607.8855736198384,None,607.8855736198384,None,1,607.8855736198384,None,609.8697135100701,None,609.8697135100701,None,609.8697135100701,None,609.8697135100701,None,609.8697135100701,None,609.8697135100701,None,609.8697135100701,None,613.8712305640474,None,613.8712305640474,None,613.8712305640474,None,613.8712305640474,None,613.8712305640474,None,613.8712305640474,None,613.8712305640474,None,623.3749993600286,None,1.9510066121911223,614.8550047101962,None,615.8553893334574,None,0.89,7.519560748718504,618.8565659222513,None,None,618.8565659222513,None,,,,,,,,,,,,,,,,,,,24199,2019_Oct_02_1634,Mmi_3levels,3.1.5,59.97650942380807,
,,,2,0,-0.9,,,,,,,,,0,1,1,1,0,21,21,1,,,,,,,,,,,,,,,,,,,,,,,,,,,,,,,,,,,,,,,,,,,,,,,,,,,,,,,,,,,,,False,True,True,0.89,0.89,18.730000000000004,-31.190000000000005,-0.225,-31.415000000000006,-15.820000000000004,gamble,lose,-31.415000000000006,-182.5966666666667,625.3924696397225,None,625.3924696397225,None,625.3924696397225,None,625.3924696397225,None,625.3924696397225,None,625.3924696397225,None,625.3924696397225,None,1,625.3924696397225,None,626.2594728677432,None,626.2594728677432,None,626.2594728677432,None,626.2594728677432,None,626.2594728677432,None,626.2594728677432,None,626.2594728677432,None,630.2609924816097,None,630.2609924816097,None,630.2609924816097,None,630.2609924816097,None,630.2609924816097,None,630.2609924816097,None,630.2609924816097,None,631.2447106301952,None,0.8339595460820419,,,,,,,,,,,,,,,,,,,,,,,,,,,,,,24199,2019_Oct_02_1634,Mmi_3levels,3.1.5,59.97650942380807,
,,,2,0,12.7,,,,,,,,,0,1,1,1,0,22,22,25,,,,,,,,,,,,,,,,,,,,,,,,,,,,,,,,,,,,,,,,,,,,,,,,,,,,,,,,,,,,,False,True,False,0.89,0.89,19.620000000000005,-32.080000000000005,3.175,-28.905000000000005,-12.865000000000002,gamble,lose,-28.905000000000005,-211.5016666666667,633.2622138684528,None,633.2622138684528,None,633.2622138684528,None,633.2622138684528,None,633.2622138684528,None,633.2622138684528,None,633.2622138684528,None,1,633.2622138684528,None,633.4956337900185,None,633.4956337900185,None,633.4956337900185,None,633.4956337900185,None,633.4956337900185,None,633.4956337900185,None,633.4956337900185,None,637.4972334004015,None,637.4972334004015,None,637.4972334004015,None,637.4972334004015,None,637.4972334004015,None,637.4972334004015,None,637.4972334004015,None,646.984237805973,None,0.20029528314989875,638.4809409894478,None,639.4813128132664,None,0.78,7.502805637897836,642.4824894020603,None,None,642.4824894020603,None,,,,,,,,,,,,,,,,,,,24199,2019_Oct_02_1634,Mmi_3levels,3.1.5,59.97650942380807,
,,,2,0,1.5,,,,,,,,,0,1,1,1,0,23,23,3,,,,,,,,,,,,,,,,,,,,,,,,,,,,,,,,,,,,,,,,,,,,,,,,,,,,,,,,,,,,,False,False,True,0.78,0.78,20.400000000000006,4.430000000000001,0.375,-4.055000000000001,-1.8400000000000003,gamble,win,0.375,-211.1266666666667,649.0017093656097,None,649.0017093656097,None,649.0017093656097,None,649.0017093656097,None,649.0017093656097,None,649.0017093656097,None,649.0017093656097,None,1,649.0017093656097,None,649.4685863271225,None,649.4685863271225,None,649.4685863271225,None,649.4685863271225,None,649.4685863271225,None,649.4685863271225,None,649.4685863271225,None,653.4700934615321,None,653.4700934615321,None,653.4700934615321,None,653.4700934615321,None,653.4700934615321,None,653.4700934615321,None,653.4700934615321,None,654.4538532083097,None,0.4335952099390852,,,,,,,,,,,,,,,,,,,,,,,,,,,,,,24199,2019_Oct_02_1634,Mmi_3levels,3.1.5,59.97650942380807,
,,,2,0,8.5,,,,,,,,,0,1,1,1,0,24,24,23,,,,,,,,,,,,,,,,,,,,,,,,,,,,,,,,,,,,,,,,,,,,,,,,,,,,,,,,,,,,,False,False,False,0.78,0.78,21.180000000000007,4.495000000000001,2.125,-2.370000000000001,-0.1225000000000005,gamble,win,2.125,-209.0016666666667,656.4712844497008,None,656.4712844497008,None,656.4712844497008,None,656.4712844497008,None,656.4712844497008,None,656.4712844497008,None,656.4712844497008,None,1,656.4712844497008,None,656.7214002846595,None,656.7214002846595,None,656.7214002846595,None,656.7214002846595,None,656.7214002846595,None,656.7214002846595,None,656.7214002846595,None,660.722972376243,None,660.722972376243,None,660.722972376243,None,660.722972376243,None,660.722972376243,None,660.722972376243,None,660.722972376243,None,661.7067119638959,None,0.21703887446710723,,,,,,,,,,,,,,,,,,,,,,,,,,,,,,24199,2019_Oct_02_1634,Mmi_3levels,3.1.5,59.97650942380807,
,,,2,0,7.5,,,,,,,,,0,1,1,1,0,25,25,20,,,,,,,,,,,,,,,,,,,,,,,,,,,,,,,,,,,,,,,,,,,,,,,,,,,,,,,,,,,,,False,False,True,0.78,0.78,21.960000000000008,4.5600000000000005,1.875,-2.6850000000000005,-0.40500000000000025,gamble,win,1.875,-207.1266666666667,663.7241371255514,None,663.7241371255514,None,663.7241371255514,None,663.7241371255514,None,663.7241371255514,None,663.7241371255514,None,663.7241371255514,None,1,663.7241371255514,None,665.9416399798283,None,665.9416399798283,None,665.9416399798283,None,665.9416399798283,None,665.9416399798283,None,665.9416399798283,None,665.9416399798283,None,669.9432843882641,None,669.9432843882641,None,669.9432843882641,None,669.9432843882641,None,669.9432843882641,None,669.9432843882641,None,669.9432843882641,None,679.4303035131925,None,2.1844754916273814,670.926946859272,None,671.9273561214613,None,0.72,7.502887554335757,674.9285467896443,None,None,674.9285467896443,None,,,,,,,,,,,,,,,,,,,24199,2019_Oct_02_1634,Mmi_3levels,3.1.5,59.97650942380807,
,,,2,0,10.9,,,,,,,,,0,1,1,1,0,26,26,4,,,,,,,,,,,,,,,,,,,,,,,,,,,,,,,,,,,,,,,,,,,,,,,,,,,,,,,,,,,,,False,True,True,0.72,0.72,22.680000000000007,-32.760000000000005,2.725,-30.035000000000004,-13.655000000000001,gamble,lose,-30.035000000000004,-237.1616666666667,681.4690938250387,None,681.4690938250387,None,681.4690938250387,None,681.4690938250387,None,681.4690938250387,None,681.4690938250387,None,681.4690938250387,None,1,681.4690938250387,None,683.9654226248094,None,683.9654226248094,None,683.9654226248094,None,683.9654226248094,None,683.9654226248094,None,683.9654226248094,None,683.9654226248094,None,687.9669822369324,None,687.9669822369324,None,687.9669822369324,None,687.9669822369324,None,687.9669822369324,None,687.9669822369324,None,687.9669822369324,None,688.9507045453392,None,2.4632342400473135,,,,,,,,,,,,,,,,,,,,,,,,,,,,,,24199,2019_Oct_02_1634,Mmi_3levels,3.1.5,59.97650942380807,
,,,3,1,13.9,,,,,,,,,0,2,2,2,0,0,0,18,,,,,,,,,,,,,,,,,,,,,,,,,,,,,,,,,,,,,,,,,,,,,,,,,693.2690942090194,None,0.76,4.967799801350338,696.2701946411289,None,4,1.951094608361018,696.2701946411289,None,698.2376712565492,None,True,True,False,0.76,-0.24,-0.24,3.5999999999999996,13.9,10.3,5.15,certain,certain,5.15,-232.01166666666668,701.2721958340371,None,701.2721958340371,None,701.2721958340371,None,701.2721958340371,None,701.2721958340371,None,701.2721958340371,None,701.2721958340371,None,3,701.2721958340371,None,702.3226537981063,None,702.3226537981063,None,702.3226537981063,None,702.3226537981063,None,702.3226537981063,None,702.3226537981063,None,702.3226537981063,None,706.3074877381332,None,706.3074877381332,None,706.3074877381332,None,706.3074877381332,None,706.3074877381332,None,706.3074877381332,None,706.3074877381332,None,715.8112312552148,None,1.0173291658356902,707.3079030800582,None,708.3083254616758,None,0.71,7.502848516032827,711.309462372199,None,None,711.309462372199,None,690.951484031415,None,4,2.3011308947825455,690.951484031415,None,,,,,,,,,,,,,24199,2019_Oct_02_1634,Mmi_3levels,3.1.5,59.97650942380807,
,,,3,1,11.1,,,,,,,,,0,2,2,2,0,1,1,13,,,,,,,,,,,,,,,,,,,,,,,,,,,,,,,,,,,,,,,,,,,,,,,,,,,,,,,,,,,,,True,False,True,0.71,-0.29000000000000004,-0.53,-1.0591666666666668,11.1,10.040833333333333,5.020416666666667,gamble,lose,10.040833333333333,-221.97083333333336,717.8286861755769,None,717.8286861755769,None,717.8286861755769,None,717.8286861755769,None,717.8286861755769,None,717.8286861755769,None,717.8286861755769,None,1,717.8286861755769,None,718.945793079085,None,718.945793079085,None,718.945793079085,None,718.945793079085,None,718.945793079085,None,718.945793079085,None,718.945793079085,None,722.947360690865,None,722.947360690865,None,722.947360690865,None,722.947360690865,None,722.947360690865,None,722.947360690865,None,722.947360690865,None,723.9310772395183,None,1.0840161836131301,,,,,,,,,,,,,,,,,,,,,,,,,,,,,,24199,2019_Oct_02_1634,Mmi_3levels,3.1.5,59.97650942380807,
,,,3,1,12.5,,,,,,,,,0,2,2,2,0,2,2,15,,,,,,,,,,,,,,,,,,,,,,,,,,,,,,,,,,,,,,,,,,,,,,,,,,,,,,,,,,,,,True,True,False,0.71,-0.29000000000000004,-0.8200000000000001,4.880000000000001,12.5,7.619999999999999,3.8099999999999996,gamble,win,12.5,-209.47083333333336,725.9485379196303,None,725.9485379196303,None,725.9485379196303,None,725.9485379196303,None,725.9485379196303,None,725.9485379196303,None,725.9485379196303,None,1,725.9485379196303,None,726.7655724422875,None,726.7655724422875,None,726.7655724422875,None,726.7655724422875,None,726.7655724422875,None,726.7655724422875,None,726.7655724422875,None,730.7838001290183,None,730.7838001290183,None,730.7838001290183,None,730.7838001290183,None,730.7838001290183,None,730.7838001290183,None,730.7838001290183,None,731.7508486030711,None,0.7839006046451686,,,,,,,,,,,,,,,,,,,,,,,,,,,,,,24199,2019_Oct_02_1634,Mmi_3levels,3.1.5,59.97650942380807,
,,,3,1,9.9,,,,,,,,,0,2,2,2,0,3,3,5,,,,,,,,,,,,,,,,,,,,,,,,,,,,,,,,,,,,,,,,,,,,,,,,,,,,,,,,,,,,,True,True,False,0.71,-0.29000000000000004,-1.11,5.170000000000001,9.9,4.7299999999999995,2.3649999999999998,gamble,win,9.9,-199.57083333333335,733.7682689649337,None,733.7682689649337,None,733.7682689649337,None,733.7682689649337,None,733.7682689649337,None,733.7682689649337,None,733.7682689649337,None,1,733.7682689649337,None,736.1692063961382,None,736.1692063961382,None,736.1692063961382,None,736.1692063961382,None,736.1692063961382,None,736.1692063961382,None,736.1692063961382,None,740.1541286523207,None,740.1541286523207,None,740.1541286523207,None,740.1541286523207,None,740.1541286523207,None,740.1541286523207,None,740.1541286523207,None,749.6577800134146,None,2.3678601507272106,741.1545430342885,None,742.1548815795541,None,0.76,7.5027422806560935,745.1560178501022,None,None,745.1560178501022,None,,,,,,,,,,,,,,,,,,,24199,2019_Oct_02_1634,Mmi_3levels,3.1.5,59.97650942380807,
,,,3,1,8.5,,,,,,,,,0,2,2,2,0,4,4,11,,,,,,,,,,,,,,,,,,,,,,,,,,,,,,,,,,,,,,,,,,,,,,,,,,,,,,,,,,,,,True,True,True,0.76,-0.24,-1.35,4.71,8.5,3.79,1.895,gamble,win,8.5,-191.07083333333335,751.6752838916473,None,751.6752838916473,None,751.6752838916473,None,751.6752838916473,None,751.6752838916473,None,751.6752838916473,None,751.6752838916473,None,1,751.6752838916473,None,754.3763449014696,None,754.3763449014696,None,754.3763449014696,None,754.3763449014696,None,754.3763449014696,None,754.3763449014696,None,754.3763449014696,None,758.3612361190062,None,758.3612361190062,None,758.3612361190062,None,758.3612361190062,None,758.3612361190062,None,758.3612361190062,None,758.3612361190062,None,759.3616316217922,None,2.6680224476622243,,,,,,,,,,,,,,,,,,,,,,,,,,,,,,24199,2019_Oct_02_1634,Mmi_3levels,3.1.5,59.97650942380807,
,,,3,1,0.5,,,,,,,,,0,2,2,2,0,5,5,25,,,,,,,,,,,,,,,,,,,,,,,,,,,,,,,,,,,,,,,,,,,,,,,,,,,,,,,,,,,,,True,False,True,0.76,-0.24,-1.59,-0.9724999999999999,0.5,-0.4724999999999999,0.01375000000000004,certain,certain,0.01375000000000004,-191.05708333333337,761.3790891020435,None,761.3790891020435,None,761.3790891020435,None,761.3790891020435,None,761.3790891020435,None,761.3790891020435,None,761.3790891020435,None,3,761.3790891020435,None,764.0968239462236,None,764.0968239462236,None,764.0968239462236,None,764.0968239462236,None,764.0968239462236,None,764.0968239462236,None,764.0968239462236,None,768.0983726788218,None,768.0983726788218,None,768.0983726788218,None,768.0983726788218,None,768.0983726788218,None,768.0983726788218,None,768.0983726788218,None,777.5854474813277,None,2.68464540423156,769.0821420251814,None,770.082497849693,None,0.84,7.502874754893128,773.0836411599375,None,None,773.0836411599375,None,,,,,,,,,,,,,,,,,,,24199,2019_Oct_02_1634,Mmi_3levels,3.1.5,59.97650942380807,
,,,3,1,5.7,,,,,,,,,0,2,2,2,0,6,6,22,,,,,,,,,,,,,,,,,,,,,,,,,,,,,,,,,,,,,,,,,,,,,,,,,,,,,,,,,,,,,True,True,False,0.84,-0.16000000000000003,-1.75,3.99,5.7,1.71,0.855,gamble,win,5.7,-185.35708333333338,779.6241827555677,None,779.6241827555677,None,779.6241827555677,None,779.6241827555677,None,779.6241827555677,None,779.6241827555677,None,779.6241827555677,None,None,779.6241827555677,None,782.620751544895,None,782.620751544895,None,782.620751544895,None,782.620751544895,None,782.620751544895,None,782.620751544895,None,782.620751544895,None,786.6056808407702,None,786.6056808407702,None,786.6056808407702,None,786.6056808407702,None,786.6056808407702,None,786.6056808407702,None,786.6056808407702,None,787.6060641840886,None,,,,,,,,,,,,,,,,,,,,,,,,,,,,,,,24199,2019_Oct_02_1634,Mmi_3levels,3.1.5,59.97650942380807,
,,,3,1,4.5,,,,,,,,,0,2,2,2,0,7,7,19,,,,,,,,,,,,,,,,,,,,,,,,,,,,,,,,,,,,,,,,,,,,,,,,,,,,,,,,,,,,,True,True,False,0.84,-0.16000000000000003,-1.9100000000000001,4.15,4.5,0.34999999999999964,0.17499999999999982,gamble,win,4.5,-180.85708333333338,789.6234944655225,None,789.6234944655225,None,789.6234944655225,None,789.6234944655225,None,789.6234944655225,None,789.6234944655225,None,789.6234944655225,None,1,789.6234944655225,None,791.4242007387838,None,791.4242007387838,None,791.4242007387838,None,791.4242007387838,None,791.4242007387838,None,791.4242007387838,None,791.4242007387838,None,795.4090961161382,None,795.4090961161382,None,795.4090961161382,None,795.4090961161382,None,795.4090961161382,None,795.4090961161382,None,795.4090961161382,None,804.9128178741666,None,1.76760851367726,796.4094871391208,None,797.4098778421176,None,0.81,7.502875394860894,800.4110259521512,None,None,800.4110259521512,None,,,,,,,,,,,,,,,,,,,24199,2019_Oct_02_1634,Mmi_3levels,3.1.5,59.97650942380807,
,,,3,1,3.1,,,,,,,,,0,2,2,2,0,8,8,26,,,,,,,,,,,,,,,,,,,,,,,,,,,,,,,,,,,,,,,,,,,,,,,,,,,,,,,,,,,,,True,True,False,0.81,-0.18999999999999995,-2.1,4.76,3.1,-1.6599999999999997,0.7200000000000002,certain,certain,0.7200000000000002,-180.13708333333338,806.9303089529567,None,806.9303089529567,None,806.9303089529567,None,806.9303089529567,None,806.9303089529567,None,806.9303089529567,None,806.9303089529567,None,3,806.9303089529567,None,809.0977941439996,None,809.0977941439996,None,809.0977941439996,None,809.0977941439996,None,809.0977941439996,None,809.0977941439996,None,809.0977941439996,None,813.0993572759726,None,813.0993572759726,None,813.0993572759726,None,813.0993572759726,None,813.0993572759726,None,813.0993572759726,None,813.0993572759726,None,814.0830722246974,None,2.134397671012266,,,,,,,,,,,,,,,,,,,,,,,,,,,,,,24199,2019_Oct_02_1634,Mmi_3levels,3.1.5,59.97650942380807,
,,,3,1,2.7,,,,,,,,,0,2,2,2,0,9,9,7,,,,,,,,,,,,,,,,,,,,,,,,,,,,,,,,,,,,,,,,,,,,,,,,,,,,,,,,,,,,,True,True,False,0.81,-0.18999999999999995,-2.29,4.949999999999999,2.7,-2.249999999999999,0.22500000000000053,gamble,win,2.7,-177.4370833333334,816.1005092258383,None,816.1005092258383,None,816.1005092258383,None,816.1005092258383,None,816.1005092258383,None,816.1005092258383,None,816.1005092258383,None,None,816.1005092258383,None,819.1017082136605,None,819.1017082136605,None,819.1017082136605,None,819.1017082136605,None,819.1017082136605,None,819.1017082136605,None,819.1017082136605,None,823.0866160704682,None,823.0866160704682,None,823.0866160704682,None,823.0866160704682,None,823.0866160704682,None,823.0866160704682,None,823.0866160704682,None,824.087001013715,None,,,,,,,,,,,,,,,,,,,,,,,,,,,,,,,24199,2019_Oct_02_1634,Mmi_3levels,3.1.5,59.97650942380807,
,,,3,1,0.7,,,,,,,,,0,2,2,2,0,10,10,14,,,,,,,,,,,,,,,,,,,,,,,,,,,,,,,,,,,,,,,,,,,,,,,,,,,,,,,,,,,,,True,True,True,0.81,-0.18999999999999995,-2.48,5.139999999999999,0.7,-4.439999999999999,-1.8699999999999992,gamble,win,0.7,-176.7370833333334,826.1044568940379,None,826.1044568940379,None,826.1044568940379,None,826.1044568940379,None,826.1044568940379,None,826.1044568940379,None,826.1044568940379,None,1,826.1044568940379,None,826.1878196660873,None,826.1878196660873,None,826.1878196660873,None,826.1878196660873,None,826.1878196660873,None,826.1878196660873,None,826.1878196660873,None,830.1727585615481,None,830.1727585615481,None,830.1727585615481,None,830.1727585615481,None,830.1727585615481,None,830.1727585615481,None,830.1727585615481,None,839.6764150424169,None,0.05031493029673584,831.173110866217,None,832.1734756503392,None,0.79,7.502826436993928,835.1746736782006,None,None,835.1746736782006,None,,,,,,,,,,,,,,,,,,,24199,2019_Oct_02_1634,Mmi_3levels,3.1.5,59.97650942380807,
,,,3,1,-0.9,,,,,,,,,0,2,2,2,0,11,11,17,,,,,,,,,,,,,,,,,,,,,,,,,,,,,,,,,,,,,,,,,,,,,,,,,,,,,,,,,,,,,True,True,False,0.79,-0.20999999999999996,-2.69,5.629999999999999,-0.9,-6.529999999999999,-3.715,gamble,win,-0.9,-177.6370833333334,841.6939000414714,None,841.6939000414714,None,841.6939000414714,None,841.6939000414714,None,841.6939000414714,None,841.6939000414714,None,841.6939000414714,None,None,841.6939000414714,None,844.6950721504618,None,844.6950721504618,None,844.6950721504618,None,844.6950721504618,None,844.6950721504618,None,844.6950721504618,None,844.6950721504618,None,848.6966775205947,None,848.6966775205947,None,848.6966775205947,None,848.6966775205947,None,848.6966775205947,None,848.6966775205947,None,848.6966775205947,None,849.6803604707129,None,,,,,,,,,,,,,,,,,,,,,,,,,,,,,,,24199,2019_Oct_02_1634,Mmi_3levels,3.1.5,59.97650942380807,
,,,3,1,9.7,,,,,,,,,0,2,2,2,0,12,12,0,,,,,,,,,,,,,,,,,,,,,,,,,,,,,,,,,,,,,,,,,,,,,,,,,,,,,,,,,,,,,True,True,True,0.79,-0.20999999999999996,-2.9,5.84,9.7,3.8599999999999994,1.9299999999999997,gamble,win,9.7,-167.93708333333342,851.6978259506141,None,851.6978259506141,None,851.6978259506141,None,851.6978259506141,None,851.6978259506141,None,851.6978259506141,None,851.6978259506141,None,1,851.6978259506141,None,853.2985041290995,None,853.2985041290995,None,853.2985041290995,None,853.2985041290995,None,853.2985041290995,None,853.2985041290995,None,853.2985041290995,None,857.2999351068247,None,857.2999351068247,None,857.2999351068247,None,857.2999351068247,None,857.2999351068247,None,857.2999351068247,None,857.2999351068247,None,866.787065266919,None,1.5675279411843803,858.283780289883,None,859.2841786725439,None,0.82,7.50289139416418,862.2852535057682,None,None,862.2852535057682,None,,,,,,,,,,,,,,,,,,,24199,2019_Oct_02_1634,Mmi_3levels,3.1.5,59.97650942380807,
,,,3,1,1.1,,,,,,,,,0,2,2,2,0,13,13,1,,,,,,,,,,,,,,,,,,,,,,,,,,,,,,,,,,,,,,,,,,,,,,,,,,,,,,,,,,,,,True,False,True,0.82,-0.18000000000000005,-3.08,-0.8866666666666667,1.1,0.21333333333333337,0.6566666666666667,certain,certain,0.6566666666666667,-167.28041666666675,868.8045256270452,None,868.8045256270452,None,868.8045256270452,None,868.8045256270452,None,868.8045256270452,None,868.8045256270452,None,868.8045256270452,None,3,868.8045256270452,None,870.4051484479387,None,870.4051484479387,None,870.4051484479387,None,870.4051484479387,None,870.4051484479387,None,870.4051484479387,None,870.4051484479387,None,874.3900217462542,None,874.3900217462542,None,874.3900217462542,None,874.3900217462542,None,874.3900217462542,None,874.3900217462542,None,874.3900217462542,None,875.3903919701406,None,1.5675090620061383,,,,,,,,,,,,,,,,,,,,,,,,,,,,,,24199,2019_Oct_02_1634,Mmi_3levels,3.1.5,59.97650942380807,
,,,3,1,10.5,,,,,,,,,0,2,2,2,0,14,14,12,,,,,,,,,,,,,,,,,,,,,,,,,,,,,,,,,,,,,,,,,,,,,,,,,,,,,,,,,,,,,True,True,False,0.82,-0.18000000000000005,-3.2600000000000002,5.780000000000001,10.5,4.719999999999999,2.3599999999999994,gamble,win,10.5,-156.78041666666675,877.4078939284555,None,877.4078939284555,None,877.4078939284555,None,877.4078939284555,None,877.4078939284555,None,877.4078939284555,None,877.4078939284555,None,1,877.4078939284555,None,879.9421996354722,None,879.9421996354722,None,879.9421996354722,None,879.9421996354722,None,879.9421996354722,None,879.9421996354722,None,879.9421996354722,None,883.9271154919334,None,883.9271154919334,None,883.9271154919334,None,883.9271154919334,None,883.9271154919334,None,883.9271154919334,None,883.9271154919334,None,884.9275497130366,None,2.5011961079435423,,,,,,,,,,,,,,,,,,,,,,,,,,,,,,24199,2019_Oct_02_1634,Mmi_3levels,3.1.5,59.97650942380807,
,,,3,1,7.9,,,,,,,,,0,2,2,2,0,15,15,23,,,,,,,,,,,,,,,,,,,,,,,,,,,,,,,,,,,,,,,,,,,,,,,,,,,,,,,,,,,,,True,True,False,0.82,-0.18000000000000005,-3.4400000000000004,5.960000000000001,7.9,1.9399999999999995,0.9699999999999998,gamble,win,7.9,-148.88041666666675,886.9449607953065,None,886.9449607953065,None,886.9449607953065,None,886.9449607953065,None,886.9449607953065,None,886.9449607953065,None,886.9449607953065,None,1,886.9449607953065,None,889.7627402455437,None,889.7627402455437,None,889.7627402455437,None,889.7627402455437,None,889.7627402455437,None,889.7627402455437,None,889.7627402455437,None,893.7642812984777,None,893.7642812984777,None,893.7642812984777,None,893.7642812984777,None,893.7642812984777,None,893.7642812984777,None,893.7642812984777,None,903.2513599408157,None,2.784685210499447,894.7480020069524,None,895.748367111064,None,0.85,7.502780998969683,898.7495888178964,None,None,898.7495888178964,None,,,,,,,,,,,,,,,,,,,24199,2019_Oct_02_1634,Mmi_3levels,3.1.5,59.97650942380807,
,,,3,1,11.7,,,,,,,,,0,2,2,2,0,16,16,9,,,,,,,,,,,,,,,,,,,,,,,,,,,,,,,,,,,,,,,,,,,,,,,,,,,,,,,,,,,,,True,False,True,0.85,-0.15000000000000002,-3.5900000000000003,-0.8241666666666668,11.7,10.875833333333333,5.437916666666666,gamble,lose,10.875833333333333,-138.00458333333341,905.2900545768243,None,905.2900545768243,None,905.2900545768243,None,905.2900545768243,None,905.2900545768243,None,905.2900545768243,None,905.2900545768243,None,1,905.2900545768243,None,906.3525721760598,None,906.3525721760598,None,906.3525721760598,None,906.3525721760598,None,906.3525721760598,None,906.3525721760598,None,906.3525721760598,None,910.3374691533427,None,910.3374691533427,None,910.3374691533427,None,910.3374691533427,None,910.3374691533427,None,910.3374691533427,None,910.3374691533427,None,911.3378934548782,None,1.0293945607481874,,,,,,,,,,,,,,,,,,,,,,,,,,,,,,24199,2019_Oct_02_1634,Mmi_3levels,3.1.5,59.97650942380807,
,,,3,1,0.1,,,,,,,,,0,2,2,2,0,17,17,21,,,,,,,,,,,,,,,,,,,,,,,,,,,,,,,,,,,,,,,,,,,,,,,,,,,,,,,,,,,,,True,False,True,0.85,-0.15000000000000002,-3.74,-0.8366666666666669,0.1,-0.7366666666666669,-0.31833333333333347,gamble,lose,-0.7366666666666669,-138.7412500000001,913.3553176565765,None,913.3553176565765,None,913.3553176565765,None,913.3553176565765,None,913.3553176565765,None,913.3553176565765,None,913.3553176565765,None,1,913.3553176565765,None,913.4553133047666,None,913.4553133047666,None,913.4553133047666,None,913.4553133047666,None,913.4553133047666,None,913.4553133047666,None,913.4553133047666,None,917.4569273145244,None,917.4569273145244,None,917.4569273145244,None,917.4569273145244,None,917.4569273145244,None,917.4569273145244,None,917.4569273145244,None,926.9439726783094,None,0.06697180538685643,918.4406726619272,None,919.4410358461209,None,0.75,7.502831236783095,922.4422133948756,None,None,922.4422133948756,None,,,,,,,,,,,,,,,,,,,24199,2019_Oct_02_1634,Mmi_3levels,3.1.5,59.97650942380807,
,,,3,1,-0.1,,,,,,,,,0,2,2,2,0,18,18,2,,,,,,,,,,,,,,,,,,,,,,,,,,,,,,,,,,,,,,,,,,,,,,,,,,,,,,,,,,,,,True,True,True,0.75,-0.25,-3.99,7.49,-0.1,-7.59,-3.8449999999999998,gamble,win,-0.1,-138.8412500000001,928.9614307985321,None,928.9614307985321,None,928.9614307985321,None,928.9614307985321,None,928.9614307985321,None,928.9614307985321,None,928.9614307985321,None,1,928.9614307985321,None,929.7784138034331,None,929.7784138034331,None,929.7784138034331,None,929.7784138034331,None,929.7784138034331,None,929.7784138034331,None,929.7784138034331,None,933.7799913347772,None,933.7799913347772,None,933.7799913347772,None,933.7799913347772,None,933.7799913347772,None,933.7799913347772,None,933.7799913347772,None,934.7637008437414,None,0.7838852453169238,,,,,,,,,,,,,,,,,,,,,,,,,,,,,,24199,2019_Oct_02_1634,Mmi_3levels,3.1.5,59.97650942380807,
,,,3,1,9.3,,,,,,,,,0,2,2,2,0,19,19,24,,,,,,,,,,,,,,,,,,,,,,,,,,,,,,,,,,,,,,,,,,,,,,,,,,,,,,,,,,,,,True,True,False,0.75,-0.25,-4.24,7.74,9.3,1.5600000000000005,0.7800000000000002,gamble,win,9.3,-129.54125000000008,936.7811660036568,None,936.7811660036568,None,936.7811660036568,None,936.7811660036568,None,936.7811660036568,None,936.7811660036568,None,936.7811660036568,None,1,936.7811660036568,None,938.43180328792,None,938.43180328792,None,938.43180328792,None,938.43180328792,None,938.43180328792,None,938.43180328792,None,938.43180328792,None,942.4166807460533,None,942.4166807460533,None,942.4166807460533,None,942.4166807460533,None,942.4166807460533,None,942.4166807460533,None,942.4166807460533,None,951.9204265030385,None,1.6175593638181454,943.4170442502364,None,944.4174883909072,None,0.83,7.502855235739844,947.4186147418877,None,None,947.4186147418877,None,,,,,,,,,,,,,,,,,,,24199,2019_Oct_02_1634,Mmi_3levels,3.1.5,59.97650942380807,
,,,3,1,5.9,,,,,,,,,0,2,2,2,0,20,20,3,,,,,,,,,,,,,,,,,,,,,,,,,,,,,,,,,,,,,,,,,,,,,,,,,,,,,,,,,,,,,True,False,True,0.83,-0.17000000000000004,-4.41,-0.9625000000000001,5.9,4.9375,2.46875,gamble,lose,4.9375,-124.60375000000008,953.9545606975189,None,953.9545606975189,None,953.9545606975189,None,953.9545606975189,None,953.9545606975189,None,953.9545606975189,None,953.9545606975189,None,1,953.9545606975189,None,954.954953960405,None,954.954953960405,None,954.954953960405,None,954.954953960405,None,954.954953960405,None,954.954953960405,None,954.954953960405,None,958.9398358983417,None,958.9398358983417,None,958.9398358983417,None,958.9398358983417,None,958.9398358983417,None,958.9398358983417,None,958.9398358983417,None,959.940238440824,None,0.9671255906978331,,,,,,,,,,,,,,,,,,,,,,,,,,,,,,24199,2019_Oct_02_1634,Mmi_3levels,3.1.5,59.97650942380807,
,,,3,1,2.1,,,,,,,,,0,2,2,2,0,21,21,20,,,,,,,,,,,,,,,,,,,,,,,,,,,,,,,,,,,,,,,,,,,,,,,,,,,,,,,,,,,,,True,True,False,0.83,-0.17000000000000004,-4.58,6.960000000000001,2.1,-4.860000000000001,-1.3800000000000006,gamble,win,2.1,-122.50375000000008,961.9576933611861,None,961.9576933611861,None,961.9576933611861,None,961.9576933611861,None,961.9576933611861,None,961.9576933611861,None,961.9576933611861,None,1,961.9576933611861,None,962.1077802694017,None,962.1077802694017,None,962.1077802694017,None,962.1077802694017,None,962.1077802694017,None,962.1077802694017,None,962.1077802694017,None,966.0926030099181,None,966.0926030099181,None,966.0926030099181,None,966.0926030099181,None,966.0926030099181,None,966.0926030099181,None,966.0926030099181,None,967.0930433107569,None,0.11710914341165335,,,,,,,,,,,,,,,,,,,,,,,,,,,,,,24199,2019_Oct_02_1634,Mmi_3levels,3.1.5,59.97650942380807,
,,,3,1,1.3,,,,,,,,,0,2,2,2,0,22,22,10,,,,,,,,,,,,,,,,,,,,,,,,,,,,,,,,,,,,,,,,,,,,,,,,,,,,,,,,,,,,,True,True,True,0.83,-0.17000000000000004,-4.75,7.130000000000001,1.3,-5.830000000000001,-2.2650000000000006,gamble,win,1.3,-121.20375000000008,969.1104483132913,None,969.1104483132913,None,969.1104483132913,None,969.1104483132913,None,969.1104483132913,None,969.1104483132913,None,969.1104483132913,None,1,969.1104483132913,None,969.2605317016605,None,969.2605317016605,None,969.2605317016605,None,969.2605317016605,None,969.2605317016605,None,969.2605317016605,None,969.2605317016605,None,973.2454616375107,None,973.2454616375107,None,973.2454616375107,None,973.2454616375107,None,973.2454616375107,None,973.2454616375107,None,973.2454616375107,None,982.7491689961644,None,0.11693827084673103,974.2458389010935,None,975.2462382437116,None,0.91,7.50300658915512,978.2474077928127,None,None,978.2474077928127,None,,,,,,,,,,,,,,,,,,,24199,2019_Oct_02_1634,Mmi_3levels,3.1.5,59.97650942380807,
,,,3,1,8.7,,,,,,,,,0,2,2,2,0,23,23,16,,,,,,,,,,,,,,,,,,,,,,,,,,,,,,,,,,,,,,,,,,,,,,,,,,,,,,,,,,,,,True,False,True,0.91,-0.08999999999999997,-4.84,-0.7183333333333333,8.7,7.981666666666666,3.990833333333333,gamble,lose,7.981666666666666,-113.22208333333342,984.7666309562228,None,984.7666309562228,None,984.7666309562228,None,984.7666309562228,None,984.7666309562228,None,984.7666309562228,None,984.7666309562228,None,1,984.7666309562228,None,985.5002518290421,None,985.5002518290421,None,985.5002518290421,None,985.5002518290421,None,985.5002518290421,None,985.5002518290421,None,985.5002518290421,None,989.4851875246386,None,989.4851875246386,None,989.4851875246386,None,989.4851875246386,None,989.4851875246386,None,989.4851875246386,None,989.4851875246386,None,990.4855734278462,None,0.700538472563494,,,,,,,,,,,,,,,,,,,,,,,,,,,,,,24199,2019_Oct_02_1634,Mmi_3levels,3.1.5,59.97650942380807,
,,,3,1,10.3,,,,,,,,,0,2,2,2,0,24,24,6,,,,,,,,,,,,,,,,,,,,,,,,,,,,,,,,,,,,,,,,,,,,,,,,,,,,,,,,,,,,,True,False,False,0.91,-0.08999999999999997,-4.93,-0.7258333333333332,10.3,9.574166666666667,4.787083333333333,gamble,lose,9.574166666666667,-103.64791666666675,992.5029957096267,None,992.5029957096267,None,992.5029957096267,None,992.5029957096267,None,992.5029957096267,None,992.5029957096267,None,992.5029957096267,None,1,992.5029957096267,None,992.603036795841,None,992.603036795841,None,992.603036795841,None,992.603036795841,None,992.603036795841,None,992.603036795841,None,992.603036795841,None,996.5879321731918,None,996.5879321731918,None,996.5879321731918,None,996.5879321731918,None,996.5879321731918,None,996.5879321731918,None,996.5879321731918,None,1006.0916510513453,None,0.0667759739117173,997.58832351616,None,998.5933703365226,None,0.8,7.498305033765064,1001.6065675221835,None,None,1001.6065675221835,None,,,,,,,,,,,,,,,,,,,24199,2019_Oct_02_1634,Mmi_3levels,3.1.5,59.97650942380807,
,,,3,1,4.9,,,,,,,,,0,2,2,2,0,25,25,4,,,,,,,,,,,,,,,,,,,,,,,,,,,,,,,,,,,,,,,,,,,,,,,,,,,,,,,,,,,,,True,False,True,0.8,-0.19999999999999996,-5.13,-1.1275,4.9,3.7725000000000004,1.8862500000000002,certain,certain,1.8862500000000002,-101.76166666666674,1008.1091155712929,None,1008.1091155712929,None,1008.1091155712929,None,1008.1091155712929,None,1008.1091155712929,None,1008.1091155712929,None,1008.1091155712929,None,3,1008.1091155712929,None,1009.6431028921616,None,1009.6431028921616,None,1009.6431028921616,None,1009.6431028921616,None,1009.6431028921616,None,1009.6431028921616,None,1009.6431028921616,None,1013.6279777904056,None,1013.6279777904056,None,1013.6279777904056,None,1013.6279777904056,None,1013.6279777904056,None,1013.6279777904056,None,1013.6279777904056,None,1014.6283710532916,None,1.5008438032782578,,,,,,,,,,,,,,,,,,,,,,,,,,,,,,24199,2019_Oct_02_1634,Mmi_3levels,3.1.5,59.97650942380807,
,,,3,1,13.5,,,,,,,,,0,2,2,2,0,26,26,8,,,,,,,,,,,,,,,,,,,,,,,,,,,,,,,,,,,,,,,,,,,,,,,,,,,,,,,,,,,,,True,True,False,0.8,-0.19999999999999996,-5.33,8.129999999999999,13.5,5.370000000000001,2.6850000000000005,gamble,win,13.5,-88.26166666666674,1016.6457757358403,None,1016.6457757358403,None,1016.6457757358403,None,1016.6457757358403,None,1016.6457757358403,None,1016.6457757358403,None,1016.6457757358403,None,None,1016.6457757358403,None,1019.646970563841,None,1019.646970563841,None,1019.646970563841,None,1019.646970563841,None,1019.646970563841,None,1019.646970563841,None,1019.646970563841,None,1023.6318627413348,None,1023.6318627413348,None,1023.6318627413348,None,1023.6318627413348,None,1023.6318627413348,None,1023.6318627413348,None,1023.6318627413348,None,1033.1356120181663,None,,1024.632211206168,None,1025.6326492671033,None,0.83,7.502826436993928,1028.6338245759543,None,None,1028.6338245759543,None,,,,,,,,,,,,,,,,,,,24199,2019_Oct_02_1634,Mmi_3levels,3.1.5,59.97650942380807,
,,,,,,,,,,,,,,,,,,,,,,,,,,,,,,0,0,0,0,,,,,,,,,,,,,,,,,,,,,,,,,,,,,,,,,,,,,,,,,,,,,,,,,,,,,,,,,,,,,,,,,,,,,,,,,,,,,,,,,,,,,,,,,,,,,,,,,,,,,,,,,,,,,,,,,,,,,,,,,,1035.136366865314,None,4,1.6675053501676302,1035.136366865314,None,-88.26166666666674,1,1036.8370909298028,None,1036.8370909298028,None,1036.8370909298028,None,4,7.76987817490226,1036.8370909298028,None,24199,2019_Oct_02_1634,Mmi_3levels,3.1.5,59.97650942380807,
