currSlide,currImage,currText,blockNum,targetHappiness,highAmount,instructionLoop1.thisRepN,instructionLoop1.thisTrialN,instructionLoop1.thisN,instructionLoop1.thisIndex,instructionLoop2.thisRepN,instructionLoop2.thisTrialN,instructionLoop2.thisN,instructionLoop2.thisIndex,blockLoop.thisRepN,blockLoop.thisTrialN,blockLoop.thisN,blockLoop.thisIndex,trialLoop.thisRepN,trialLoop.thisTrialN,trialLoop.thisN,trialLoop.thisIndex,doRatingLoop.thisRepN,doRatingLoop.thisTrialN,doRatingLoop.thisN,doRatingLoop.thisIndex,trialHappyLoop.thisRepN,trialHappyLoop.thisTrialN,trialHappyLoop.thisN,trialHappyLoop.thisIndex,logWinningsLoop.thisRepN,logWinningsLoop.thisTrialN,logWinningsLoop.thisN,logWinningsLoop.thisIndex,instrImage.started,instrImage.stopped,instrText.started,instrText.stopped,instrContinueText.started,instrContinueText.stopped,instrKeyResp.keys,instrKeyResp.rt,instrKeyResp.started,instrKeyResp.stopped,lifeHappyText.started,lifeHappyText.stopped,lifeHappySlider.response,lifeHappySlider.rt,lifeHappySlider.started,lifeHappySlider.stopped,lifeHappyResp.keys,lifeHappyResp.started,lifeHappyResp.stopped,instrImage_2.started,instrImage_2.stopped,instrText_2.started,instrText_2.stopped,instrContinueText_2.started,instrContinueText_2.stopped,instrKeyResp_2.keys,instrKeyResp_2.rt,instrKeyResp_2.started,instrKeyResp_2.stopped,localizing.started,localizing.stopped,start_exp.keys,start_exp.rt,start_exp.started,start_exp.stopped,blockHappyText.started,blockHappyText.stopped,blockHappySlider.response,blockHappySlider.rt,blockHappySlider.started,blockHappySlider.stopped,blockHappyResp.keys,blockHappyResp.started,blockHappyResp.stopped,blankText.started,blankText.stopped,isHappyBlock,isCongruent,isWinOnTop,lastHappyRating,diff,sumDiff,RPE,winAmount,loseAmount,certainAmount,choice,outcome,outcomeAmount,currentWinnings,fixCross.started,fixCross.stopped,certainBox.started,certainBox.stopped,outcome1Box.started,outcome1Box.stopped,outcome2Box.started,outcome2Box.stopped,certainText.started,certainText.stopped,outcome1Text.started,outcome1Text.stopped,outcome2Text.started,outcome2Text.stopped,choiceKey.keys,choiceKey.rt,choiceKey.started,choiceKey.stopped,fixCross_2.started,fixCross_2.stopped,certainBox_2.started,certainBox_2.stopped,outcome1Box_2.started,outcome1Box_2.stopped,outcome2Box_2.started,outcome2Box_2.stopped,certainText_2.started,certainText_2.stopped,outcome1Text_2.started,outcome1Text_2.stopped,outcome2Text_2.started,outcome2Text_2.stopped,fixCross_3.started,fixCross_3.stopped,certainBox_3.started,certainBox_3.stopped,outcome1Box_3.started,outcome1Box_3.stopped,outcome2Box_3.started,outcome2Box_3.stopped,certainText_3.started,certainText_3.stopped,outcome1Text_3.started,outcome1Text_3.stopped,outcome2Text_3.started,outcome2Text_3.stopped,fixCross_ITI.started,fixCross_ITI.stopped,fixCross_ISI.started,fixCross_ISI.stopped,happyText.started,happyText.stopped,happySlider.response,happySlider.rt,happySlider.started,happySlider.stopped,happyResp.keys,happyResp.started,happyResp.stopped,endOfBlockText.started,endOfBlockText.stopped,restKeyResp.keys,restKeyResp.rt,restKeyResp.started,restKeyResp.stopped,finalWinnings,cashBonus,goodbyeText.started,goodbyeText.stopped,finalWinningsText.started,finalWinningsText.stopped,spaceToContinue.started,spaceToContinue.stopped,goodbyeKeyResp_2.keys,goodbyeKeyResp_2.rt,goodbyeKeyResp_2.started,goodbyeKeyResp_2.stopped,participant,date,expName,psychopyVersion,frameRate,
1,black.png,"Welcome! You are about to play our gambling task.
This task has 3 blocks and takes about 15 minutes.",,,,0,0,0,0,,,,,,,,,,,,,,,,,,,,,,,,,14.783807168714702,None,14.783807168714702,None,14.783807168714702,None,4,11.289164695554064,14.783807168714702,None,,,,,,,,,,,,,,,,,,,,,,,,,,,,,,,,,,,,,,,,,,,,,,,,,,,,,,,,,,,,,,,,,,,,,,,,,,,,,,,,,,,,,,,,,,,,,,,,,,,,,,,,,,,,,,,,,,,,,,,,,,,,,,,,24269,2020_Feb_28_1008,Mmi_3levels,3.1.5,60.00011519463731,
2,black.png,"In this game, you may win or lose points. Your goal is to get as many points as possible. These points will be converted to a cash bonus at the end.
Sometimes we will ask you to rate your mood.",,,,0,1,1,1,,,,,,,,,,,,,,,,,,,,,,,,,26.12276393731736,None,26.12276393731736,None,26.12276393731736,None,4,6.936338770537986,26.12276393731736,None,,,,,,,,,,,,,,,,,,,,,,,,,,,,,,,,,,,,,,,,,,,,,,,,,,,,,,,,,,,,,,,,,,,,,,,,,,,,,,,,,,,,,,,,,,,,,,,,,,,,,,,,,,,,,,,,,,,,,,,,,,,,,,,,24269,2020_Feb_28_1008,Mmi_3levels,3.1.5,60.00011519463731,
3,black.png,"On the next screen, please rate how you feel about your life these days. Use the LEFT (green) and RIGHT (blue) buttons to move the slider (you can press and hold them to slide gradually) and the TOP (red) button to lock in your response.
Make your rating as accurately and quickly as you can!",,,,0,2,2,2,,,,,,,,,,,,,,,,,,,,,,,,,33.10882790380856,None,33.10882790380856,None,33.10882790380856,None,4,27.777700874459697,33.10882790380856,None,,,,,,,,,,,,,,,,,,,,,,,,,,,,,,,,,,,,,,,,,,,,,,,,,,,,,,,,,,,,,,,,,,,,,,,,,,,,,,,,,,,,,,,,,,,,,,,,,,,,,,,,,,,,,,,,,,,,,,,,,,,,,,,,24269,2020_Feb_28_1008,Mmi_3levels,3.1.5,60.00011519463731,
,,,,,,,,,,,,,,,,,,,,,,,,,,,,,,,,,,,,,,,,,,,,60.903027900225425,None,0.86,10.502983230173413,64.90452063526755,None,None,64.90452063526755,None,,,,,,,,,,,,,,,,,,,,,,,,,,,,,,,,,,,,,,,,,,,,,,,,,,,,,,,,,,,,,,,,,,,,,,,,,,,,,,,,,,,,,,,,,,,,,,,,,,,,,,,,,,,,,,,,,,,,,,,24269,2020_Feb_28_1008,Mmi_3levels,3.1.5,60.00011519463731,
4,black.png,"In this game you can win money by earning points according to your choices. You will decide whether to gamble a number of points or stick with a guaranteed number of points. 
Make your choice by pressing the left or right arrow key once. An example of one trial is shown on the next screen.",,,,,,,,0,0,0,0,,,,,,,,,,,,,,,,,,,,,,,,,,,,,,,,,,,,,,,,71.45718330338423,None,71.45718330338423,None,71.45718330338423,None,4,25.49328157238051,71.45718330338423,None,,,,,,,,,,,,,,,,,,,,,,,,,,,,,,,,,,,,,,,,,,,,,,,,,,,,,,,,,,,,,,,,,,,,,,,,,,,,,,,,,,,,,,,,,,,,,,,,,,,,,,,,,,,,,24269,2020_Feb_28_1008,Mmi_3levels,3.1.5,60.00011519463731,
5,example_start.png,"The GAMBLING OPTION will be shown on the RIGHT SIDE. 
Select this option using the RIGHT (blue) button on your keypad.",,,,,,,,0,1,1,1,,,,,,,,,,,,,,,,,,,,,,,,,,,,,,,,,,,,,,,,97.01714357391029,None,97.01714357391029,None,97.01714357391029,None,4,7.203104440894094,97.01714357391029,None,,,,,,,,,,,,,,,,,,,,,,,,,,,,,,,,,,,,,,,,,,,,,,,,,,,,,,,,,,,,,,,,,,,,,,,,,,,,,,,,,,,,,,,,,,,,,,,,,,,,,,,,,,,,,24269,2020_Feb_28_1008,Mmi_3levels,3.1.5,60.00011519463731,
6,example_gamble.png,"Once you select the gambling choice, the choice you made will remain on the screen.",,,,,,,,0,2,2,2,,,,,,,,,,,,,,,,,,,,,,,,,,,,,,,,,,,,,,,,104.25330001638213,None,104.25330001638213,None,104.25330001638213,None,4,4.268493275172659,104.25330001638213,None,,,,,,,,,,,,,,,,,,,,,,,,,,,,,,,,,,,,,,,,,,,,,,,,,,,,,,,,,,,,,,,,,,,,,,,,,,,,,,,,,,,,,,,,,,,,,,,,,,,,,,,,,,,,,24269,2020_Feb_28_1008,Mmi_3levels,3.1.5,60.00011519463731,
7,example_win.png,"The outcome you received will then be shown on the screen. In this example , you WON 10 points.",,,,,,,,0,3,3,3,,,,,,,,,,,,,,,,,,,,,,,,,,,,,,,,,,,,,,,,108.55495280845935,None,108.55495280845935,None,108.55495280845935,None,4,3.0514620803660364,108.55495280845935,None,,,,,,,,,,,,,,,,,,,,,,,,,,,,,,,,,,,,,,,,,,,,,,,,,,,,,,,,,,,,,,,,,,,,,,,,,,,,,,,,,,,,,,,,,,,,,,,,,,,,,,,,,,,,,24269,2020_Feb_28_1008,Mmi_3levels,3.1.5,60.00011519463731,
8,example_start.png,"The GUARANTEED OPTION will be shown on the LEFT SIDE. You are 100% guaranteed to gain or lose this amount. In this example, you have a 100% chance of winning 1 point. Select this option using the LEFT (green) button on your keyboard.",,,,,,,,0,4,4,4,,,,,,,,,,,,,,,,,,,,,,,,,,,,,,,,,,,,,,,,111.65618808269937,None,111.65618808269937,None,111.65618808269937,None,4,7.753203380591003,111.65618808269937,None,,,,,,,,,,,,,,,,,,,,,,,,,,,,,,,,,,,,,,,,,,,,,,,,,,,,,,,,,,,,,,,,,,,,,,,,,,,,,,,,,,,,,,,,,,,,,,,,,,,,,,,,,,,,,24269,2020_Feb_28_1008,Mmi_3levels,3.1.5,60.00011519463731,
9,example_certain.png,"Once you select the guaranteed choice, your selection will remain on the screen.",,,,,,,,0,5,5,5,,,,,,,,,,,,,,,,,,,,,,,,,,,,,,,,,,,,,,,,119.44259833812248,None,119.44259833812248,None,119.44259833812248,None,4,3.151426689910295,119.44259833812248,None,,,,,,,,,,,,,,,,,,,,,,,,,,,,,,,,,,,,,,,,,,,,,,,,,,,,,,,,,,,,,,,,,,,,,,,,,,,,,,,,,,,,,,,,,,,,,,,,,,,,,,,,,,,,,24269,2020_Feb_28_1008,Mmi_3levels,3.1.5,60.00011519463731,
10,black.png,"Please make your choices as fast as possible.
You will be given a break at the end of each block.
Let's play!",,,,,,,,0,6,6,6,,,,,,,,,,,,,,,,,,,,,,,,,,,,,,,,,,,,,,,,122.62712566749542,None,122.62712566749542,None,122.62712566749542,None,4,4.518675987223105,122.62712566749542,None,,,,,,,,,,,,,,,,,,,,,,,,,,,,,,,,,,,,,,,,,,,,,,,,,,,,,,,,,,,,,,,,,,,,,,,,,,,,,,,,,,,,,,,,,,,,,,,,,,,,,,,,,,,,,24269,2020_Feb_28_1008,Mmi_3levels,3.1.5,60.00011519463731,
,,,,,,,,,,,,,,,,,,,,,,,,,,,,,,,,,,,,,,,,,,,,,,,,,,,,,,,,,,,,,,,127.16227805765811,None,space,31.34576415234187,127.16227805765811,None,,,,,,,,,,,,,,,,,,,,,,,,,,,,,,,,,,,,,,,,,,,,,,,,,,,,,,,,,,,,,,,,,,,,,,,,,,,,,,,,,,,,,,,,,,,,,,,,,,,,,,,24269,2020_Feb_28_1008,Mmi_3levels,3.1.5,60.00011519463731,
,,,1,1,9.5,,,,,,,,,0,0,0,0,0,0,0,22,,,,,,,,,,,,,,,,,,,,,,,,,,,,,,,,,,,,,,,,,,,,,,,,158.52454837165715,None,0.88,7.527046182949562,161.54236999605928,None,None,161.54236999605928,None,166.0608107935186,None,True,False,False,0.88,-0.12,-0.12,-0.43,9.5,9.07,4.535,gamble,lose,9.07,9.07,169.09534273068857,None,169.09534273068857,None,169.09534273068857,None,169.09534273068857,None,169.09534273068857,None,169.09534273068857,None,169.09534273068857,None,1,2.4345289292978123,169.09534273068857,None,171.563064135451,None,171.563064135451,None,171.563064135451,None,171.563064135451,None,171.563064135451,None,171.563064135451,None,171.563064135451,None,175.5478548773608,None,175.5478548773608,None,175.5478548773608,None,175.5478548773608,None,175.5478548773608,None,175.5478548773608,None,175.5478548773608,None,176.54825901977165,None,,,,,,,,,,,,,,,,,,,,,,,,,,,,,,24269,2020_Feb_28_1008,Mmi_3levels,3.1.5,60.00011519463731,
,,,1,1,13.9,,,,,,,,,0,0,0,0,0,1,1,11,,,,,,,,,,,,,,,,,,,,,,,,,,,,,,,,,,,,,,,,,,,,,,,,,,,,,,,,,,,True,True,True,0.88,-0.12,-0.24,1.92,13.9,11.98,5.99,gamble,win,13.9,22.97,178.56569474096614,None,178.56569474096614,None,178.56569474096614,None,178.56569474096614,None,178.56569474096614,None,178.56569474096614,None,178.56569474096614,None,1,2.21780172126455,178.56569474096614,None,180.81664893944253,None,180.81664893944253,None,180.81664893944253,None,180.81664893944253,None,180.81664893944253,None,180.81664893944253,None,180.81664893944253,None,184.80149151909427,None,184.80149151909427,None,184.80149151909427,None,184.80149151909427,None,184.80149151909427,None,184.80149151909427,None,184.80149151909427,None,185.80184350377385,None,,,,,,,,,,,,,,,,,,,,,,,,,,,,,,24269,2020_Feb_28_1008,Mmi_3levels,3.1.5,60.00011519463731,
,,,1,1,2.1,,,,,,,,,0,0,0,0,0,2,2,0,,,,,,,,,,,,,,,,,,,,,,,,,,,,,,,,,,,,,,,,,,,,,,,,,,,,,,,,,,,True,False,False,0.88,-0.12,-0.36,-0.44999999999999996,2.1,1.6500000000000001,1.875,gamble,lose,1.6500000000000001,24.619999999999997,187.81936754112394,None,187.81936754112394,None,187.81936754112394,None,187.81936754112394,None,187.81936754112394,None,187.81936754112394,None,187.81936754112394,None,1,2.567897525099397,187.81936754112394,None,190.42034810645418,None,190.42034810645418,None,190.42034810645418,None,190.42034810645418,None,190.42034810645418,None,190.42034810645418,None,190.42034810645418,None,194.42191731816274,None,194.42191731816274,None,194.42191731816274,None,194.42191731816274,None,194.42191731816274,None,194.42191731816274,None,194.42191731816274,None,203.9089655618227,None,195.40557946918125,None,196.40602552977361,None,0.87,7.502844036229362,199.40713012169726,None,None,199.40713012169726,None,,,,,,,,,,,,,,,,,,,24269,2020_Feb_28_1008,Mmi_3levels,3.1.5,60.00011519463731,
,,,1,1,5.7,,,,,,,,,0,0,0,0,0,3,3,23,,,,,,,,,,,,,,,,,,,,,,,,,,,,,,,,,,,,,,,,,,,,,,,,,,,,,,,,,,,True,False,False,0.87,-0.13,-0.49,-0.49583333333333335,5.7,5.204166666666667,2.6020833333333333,gamble,lose,5.204166666666667,29.824166666666663,205.92641952222766,None,205.92641952222766,None,205.92641952222766,None,205.92641952222766,None,205.92641952222766,None,205.92641952222766,None,205.92641952222766,None,1,1.467270544380881,205.92641952222766,None,207.42698077779642,None,207.42698077779642,None,207.42698077779642,None,207.42698077779642,None,207.42698077779642,None,207.42698077779642,None,207.42698077779642,None,211.4118678355153,None,211.4118678355153,None,211.4118678355153,None,211.4118678355153,None,211.4118678355153,None,211.4118678355153,None,211.4118678355153,None,212.41226237834053,None,,,,,,,,,,,,,,,,,,,,,,,,,,,,,,24269,2020_Feb_28_1008,Mmi_3levels,3.1.5,60.00011519463731,
,,,1,1,4.5,,,,,,,,,0,0,0,0,0,4,4,8,,,,,,,,,,,,,,,,,,,,,,,,,,,,,,,,,,,,,,,,,,,,,,,,,,,,,,,,,,,True,True,True,0.87,-0.13,-0.62,2.44,4.5,2.06,1.03,gamble,win,4.5,34.32416666666666,214.42979505532276,None,214.42979505532276,None,214.42979505532276,None,214.42979505532276,None,214.42979505532276,None,214.42979505532276,None,214.42979505532276,None,1,1.3005686792530469,214.42979505532276,None,215.76359876818606,None,215.76359876818606,None,215.76359876818606,None,215.76359876818606,None,215.76359876818606,None,215.76359876818606,None,215.76359876818606,None,219.74849222561897,None,219.74849222561897,None,219.74849222561897,None,219.74849222561897,None,219.74849222561897,None,219.74849222561897,None,219.74849222561897,None,229.25223702264338,None,220.74887908878736,None,221.7492768314769,None,0.88,7.5028945940212,224.7504367809961,None,None,224.7504367809961,None,,,,,,,,,,,,,,,,,,,24269,2020_Feb_28_1008,Mmi_3levels,3.1.5,60.00011519463731,
,,,1,1,5.9,,,,,,,,,0,0,0,0,0,5,5,17,,,,,,,,,,,,,,,,,,,,,,,,,,,,,,,,,,,,,,,,,,,,,,,,,,,,,,,,,,,True,False,True,0.88,-0.12,-0.74,-0.48166666666666663,5.9,5.418333333333334,2.709166666666667,certain,certain,2.709166666666667,37.03333333333333,231.26965930443112,None,231.26965930443112,None,231.26965930443112,None,231.26965930443112,None,231.26965930443112,None,231.26965930443112,None,231.26965930443112,None,3,1.0673538687551627,231.26965930443112,None,232.370097813342,None,232.370097813342,None,232.370097813342,None,232.370097813342,None,232.370097813342,None,232.370097813342,None,232.370097813342,None,236.3549579922328,None,236.3549579922328,None,236.3549579922328,None,236.3549579922328,None,236.3549579922328,None,236.3549579922328,None,236.3549579922328,None,237.3553787739147,None,,,,,,,,,,,,,,,,,,,,,,,,,,,,,,24269,2020_Feb_28_1008,Mmi_3levels,3.1.5,60.00011519463731,
,,,1,1,6.3,,,,,,,,,0,0,0,0,0,6,6,18,,,,,,,,,,,,,,,,,,,,,,,,,,,,,,,,,,,,,,,,,,,,,,,,,,,,,,,,,,,True,True,False,0.88,-0.12,-0.86,2.54,6.3,3.76,1.88,gamble,win,6.3,43.33333333333333,239.37283337429108,None,239.37283337429108,None,239.37283337429108,None,239.37283337429108,None,239.37283337429108,None,239.37283337429108,None,239.37283337429108,None,1,1.2840692373065394,239.37283337429108,None,240.68998405189632,None,240.68998405189632,None,240.68998405189632,None,240.68998405189632,None,240.68998405189632,None,240.68998405189632,None,240.68998405189632,None,244.674872389558,None,244.674872389558,None,244.674872389558,None,244.674872389558,None,244.674872389558,None,244.674872389558,None,244.674872389558,None,245.67529477117205,None,,,,,,,,,,,,,,,,,,,,,,,,,,,,,,24269,2020_Feb_28_1008,Mmi_3levels,3.1.5,60.00011519463731,
,,,1,1,-0.9,,,,,,,,,0,0,0,0,0,7,7,5,,,,,,,,,,,,,,,,,,,,,,,,,,,,,,,,,,,,,,,,,,,,,,,,,,,,,,,,,,,True,True,True,0.88,-0.12,-0.98,2.66,-0.9,-3.56,-2.23,gamble,win,-0.9,42.43333333333333,247.69275737120188,None,247.69275737120188,None,247.69275737120188,None,247.69275737120188,None,247.69275737120188,None,247.69275737120188,None,247.69275737120188,None,None,,247.69275737120188,None,250.69386228311487,None,250.69386228311487,None,250.69386228311487,None,250.69386228311487,None,250.69386228311487,None,250.69386228311487,None,250.69386228311487,None,254.69549741195806,None,254.69549741195806,None,254.69549741195806,None,254.69549741195806,None,254.69549741195806,None,254.69549741195806,None,254.69549741195806,None,264.18253701599315,None,255.67921236067923,None,256.6795723450123,None,0.79,7.5028379564973875,259.6807658930702,None,None,259.6807658930702,None,,,,,,,,,,,,,,,,,,,24269,2020_Feb_28_1008,Mmi_3levels,3.1.5,60.00011519463731,
,,,1,1,9.1,,,,,,,,,0,0,0,0,0,8,8,7,,,,,,,,,,,,,,,,,,,,,,,,,,,,,,,,,,,,,,,,,,,,,,,,,,,,,,,,,,,True,True,True,0.79,-0.20999999999999996,-1.19,4.129999999999999,9.1,4.970000000000001,2.4850000000000003,gamble,win,9.1,51.53333333333333,266.1999989760443,None,266.1999989760443,None,266.1999989760443,None,266.1999989760443,None,266.1999989760443,None,266.1999989760443,None,266.1999989760443,None,1,1.11712514271494,266.1999989760443,None,267.35044394867873,None,267.35044394867873,None,267.35044394867873,None,267.35044394867873,None,267.35044394867873,None,267.35044394867873,None,267.35044394867873,None,271.3353409259653,None,271.3353409259653,None,271.3353409259653,None,271.3353409259653,None,271.3353409259653,None,271.3353409259653,None,271.3353409259653,None,272.3356977104413,None,,,,,,,,,,,,,,,,,,,,,,,,,,,,,,24269,2020_Feb_28_1008,Mmi_3levels,3.1.5,60.00011519463731,
,,,1,1,9.3,,,,,,,,,0,0,0,0,0,9,9,10,,,,,,,,,,,,,,,,,,,,,,,,,,,,,,,,,,,,,,,,,,,,,,,,,,,,,,,,,,,True,True,True,0.79,-0.20999999999999996,-1.4,4.34,9.3,4.960000000000001,2.4800000000000004,certain,certain,2.4800000000000004,54.013333333333335,274.35314271123207,None,274.35314271123207,None,274.35314271123207,None,274.35314271123207,None,274.35314271123207,None,274.35314271123207,None,274.35314271123207,None,3,1.7341315705925808,274.35314271123207,None,276.1205390741379,None,276.1205390741379,None,276.1205390741379,None,276.1205390741379,None,276.1205390741379,None,276.1205390741379,None,276.1205390741379,None,280.1053653345007,None,280.1053653345007,None,280.1053653345007,None,280.1053653345007,None,280.1053653345007,None,280.1053653345007,None,280.1053653345007,None,289.62580444499326,None,281.1057720368044,None,282.1062193773323,None,0.89,7.519506031094352,285.1073799668229,None,None,285.1073799668229,None,,,,,,,,,,,,,,,,,,,24269,2020_Feb_28_1008,Mmi_3levels,3.1.5,60.00011519463731,
,,,1,1,-0.5,,,,,,,,,0,0,0,0,0,10,10,15,,,,,,,,,,,,,,,,,,,,,,,,,,,,,,,,,,,,,,,,,,,,,,,,,,,,,,,,,,,True,True,True,0.89,-0.10999999999999999,-1.5099999999999998,3.05,-0.5,-3.55,-2.025,gamble,win,-0.5,53.513333333333335,291.6433371219682,None,291.6433371219682,None,291.6433371219682,None,291.6433371219682,None,291.6433371219682,None,291.6433371219682,None,291.6433371219682,None,1,2.0009746775831445,291.6433371219682,None,293.67741275899607,None,293.67741275899607,None,293.67741275899607,None,293.67741275899607,None,293.67741275899607,None,293.67741275899607,None,293.67741275899607,None,297.6789755709833,None,297.6789755709833,None,297.6789755709833,None,297.6789755709833,None,297.6789755709833,None,297.6789755709833,None,297.6789755709833,None,298.66269979930803,None,,,,,,,,,,,,,,,,,,,,,,,,,,,,,,24269,2020_Feb_28_1008,Mmi_3levels,3.1.5,60.00011519463731,
,,,1,1,2.5,,,,,,,,,0,0,0,0,0,11,11,9,,,,,,,,,,,,,,,,,,,,,,,,,,,,,,,,,,,,,,,,,,,,,,,,,,,,,,,,,,,True,True,True,0.89,-0.10999999999999999,-1.6199999999999997,3.1599999999999993,2.5,-0.6599999999999993,0.9200000000000004,gamble,win,2.5,56.013333333333335,300.6800964822032,None,300.6800964822032,None,300.6800964822032,None,300.6800964822032,None,300.6800964822032,None,300.6800964822032,None,300.6800964822032,None,1,1.6340399265827728,300.6800964822032,None,302.34747127805167,None,302.34747127805167,None,302.34747127805167,None,302.34747127805167,None,302.34747127805167,None,302.34747127805167,None,302.34747127805167,None,306.3490328100961,None,306.3490328100961,None,306.3490328100961,None,306.3490328100961,None,306.3490328100961,None,306.3490328100961,None,306.3490328100961,None,315.8360679343241,None,307.3327807173846,None,308.3331467814569,None,0.89,7.50280851777643,311.33430513104395,None,None,311.33430513104395,None,,,,,,,,,,,,,,,,,,,24269,2020_Feb_28_1008,Mmi_3levels,3.1.5,60.00011519463731,
,,,1,1,7.3,,,,,,,,,0,0,0,0,0,12,12,16,,,,,,,,,,,,,,,,,,,,,,,,,,,,,,,,,,,,,,,,,,,,,,,,,,,,,,,,,,,True,True,True,0.89,-0.10999999999999999,-1.7299999999999995,3.2699999999999996,7.3,4.03,2.015,gamble,win,7.3,63.31333333333333,317.85353821401804,None,317.85353821401804,None,317.85353821401804,None,317.85353821401804,None,317.85353821401804,None,317.85353821401804,None,317.85353821401804,None,1,1.1507073612156091,317.85353821401804,None,319.0373039765327,None,319.0373039765327,None,319.0373039765327,None,319.0373039765327,None,319.0373039765327,None,319.0373039765327,None,319.0373039765327,None,323.02228095033206,None,323.02228095033206,None,323.02228095033206,None,323.02228095033206,None,323.02228095033206,None,323.02228095033206,None,323.02228095033206,None,324.02258621704823,None,,,,,,,,,,,,,,,,,,,,,,,,,,,,,,24269,2020_Feb_28_1008,Mmi_3levels,3.1.5,60.00011519463731,
,,,1,1,8.7,,,,,,,,,0,0,0,0,0,13,13,26,,,,,,,,,,,,,,,,,,,,,,,,,,,,,,,,,,,,,,,,,,,,,,,,,,,,,,,,,,,True,True,False,0.89,-0.10999999999999999,-1.8399999999999994,3.379999999999999,8.7,5.32,2.66,gamble,win,8.7,72.01333333333334,326.0400795357418,None,326.0400795357418,None,326.0400795357418,None,326.0400795357418,None,326.0400795357418,None,326.0400795357418,None,326.0400795357418,None,1,2.6179705459217075,326.0400795357418,None,328.6911084829626,None,328.6911084829626,None,328.6911084829626,None,328.6911084829626,None,328.6911084829626,None,328.6911084829626,None,328.6911084829626,None,332.6759961806456,None,332.6759961806456,None,332.6759961806456,None,332.6759961806456,None,332.6759961806456,None,332.6759961806456,None,332.6759961806456,None,333.6763289661685,None,,,,,,,,,,,,,,,,,,,,,,,,,,,,,,24269,2020_Feb_28_1008,Mmi_3levels,3.1.5,60.00011519463731,
,,,1,1,5.5,,,,,,,,,0,0,0,0,0,14,14,1,,,,,,,,,,,,,,,,,,,,,,,,,,,,,,,,,,,,,,,,,,,,,,,,,,,,,,,,,,,True,True,True,0.89,-0.10999999999999999,-1.9499999999999993,3.4899999999999993,5.5,2.0100000000000007,1.0050000000000003,certain,certain,1.0050000000000003,73.01833333333333,335.6938517235758,None,335.6938517235758,None,335.6938517235758,None,335.6938517235758,None,335.6938517235758,None,335.6938517235758,None,335.6938517235758,None,3,1.6009143282135483,335.6938517235758,None,337.32788461046584,None,337.32788461046584,None,337.32788461046584,None,337.32788461046584,None,337.32788461046584,None,337.32788461046584,None,337.32788461046584,None,341.3126756723577,None,341.3126756723577,None,341.3126756723577,None,341.3126756723577,None,341.3126756723577,None,341.3126756723577,None,341.3126756723577,None,350.8164348687569,None,342.3131047736824,None,343.3134385191588,None,0.83,7.502831876758137,346.31465606616985,None,None,346.31465606616985,None,,,,,,,,,,,,,,,,,,,24269,2020_Feb_28_1008,Mmi_3levels,3.1.5,60.00011519463731,
,,,1,1,1.1,,,,,,,,,0,0,0,0,0,15,15,2,,,,,,,,,,,,,,,,,,,,,,,,,,,,,,,,,,,,,,,,,,,,,,,,,,,,,,,,,,,True,True,False,0.83,-0.17000000000000004,-2.119999999999999,4.5,1.1,-3.4,-1.15,gamble,win,1.1,74.11833333333333,352.83388754921907,None,352.83388754921907,None,352.83388754921907,None,352.83388754921907,None,352.83388754921907,None,352.83388754921907,None,352.83388754921907,None,1,2.051066577580059,352.83388754921907,None,354.91804004689766,None,354.91804004689766,None,354.91804004689766,None,354.91804004689766,None,354.91804004689766,None,354.91804004689766,None,354.91804004689766,None,358.9196431771343,None,358.9196431771343,None,358.9196431771343,None,358.9196431771343,None,358.9196431771343,None,358.9196431771343,None,358.9196431771343,None,359.9033232473739,None,,,,,,,,,,,,,,,,,,,,,,,,,,,,,,24269,2020_Feb_28_1008,Mmi_3levels,3.1.5,60.00011519463731,
,,,1,1,10.1,,,,,,,,,0,0,0,0,0,16,16,12,,,,,,,,,,,,,,,,,,,,,,,,,,,,,,,,,,,,,,,,,,,,,,,,,,,,,,,,,,,True,True,True,0.83,-0.17000000000000004,-2.289999999999999,4.67,10.1,5.43,2.715,gamble,win,10.1,84.21833333333332,361.9207740079146,None,361.9207740079146,None,361.9207740079146,None,361.9207740079146,None,361.9207740079146,None,361.9207740079146,None,361.9207740079146,None,1,1.3174258656290476,361.9207740079146,None,363.27124227553577,None,363.27124227553577,None,363.27124227553577,None,363.27124227553577,None,363.27124227553577,None,363.27124227553577,None,363.27124227553577,None,367.2561309331868,None,367.2561309331868,None,367.2561309331868,None,367.2561309331868,None,367.2561309331868,None,367.2561309331868,None,367.2561309331868,None,376.7599147685105,None,368.2565888332538,None,369.25695585727954,None,0.85,7.502410775079625,372.258204762933,None,None,372.258204762933,None,,,,,,,,,,,,,,,,,,,24269,2020_Feb_28_1008,Mmi_3levels,3.1.5,60.00011519463731,
,,,1,1,12.1,,,,,,,,,0,0,0,0,0,17,17,14,,,,,,,,,,,,,,,,,,,,,,,,,,,,,,,,,,,,,,,,,,,,,,,,,,,,,,,,,,,True,True,False,0.85,-0.15000000000000002,-2.439999999999999,4.539999999999999,12.1,7.5600000000000005,3.7800000000000002,gamble,win,12.1,96.31833333333331,378.7773744886654,None,378.7773744886654,None,378.7773744886654,None,378.7773744886654,None,378.7773744886654,None,378.7773744886654,None,378.7773744886654,None,1,0.9839610180133604,378.7773744886654,None,379.7944393459984,None,379.7944393459984,None,379.7944393459984,None,379.7944393459984,None,379.7944393459984,None,379.7944393459984,None,379.7944393459984,None,383.79600535784994,None,383.79600535784994,None,383.79600535784994,None,383.79600535784994,None,383.79600535784994,None,383.79600535784994,None,383.79600535784994,None,384.77969662760734,None,,,,,,,,,,,,,,,,,,,,,,,,,,,,,,24269,2020_Feb_28_1008,Mmi_3levels,3.1.5,60.00011519463731,
,,,1,1,1.7,,,,,,,,,0,0,0,0,0,18,18,25,,,,,,,,,,,,,,,,,,,,,,,,,,,,,,,,,,,,,,,,,,,,,,,,,,,,,,,,,,,True,False,False,0.85,-0.15000000000000002,-2.589999999999999,-0.7408333333333333,1.7,0.9591666666666666,1.3295833333333333,gamble,lose,0.9591666666666666,97.27749999999997,386.797180026726,None,386.797180026726,None,386.797180026726,None,386.797180026726,None,386.797180026726,None,386.797180026726,None,386.797180026726,None,1,1.8009286635860917,386.797180026726,None,388.63123012886354,None,388.63123012886354,None,388.63123012886354,None,388.63123012886354,None,388.63123012886354,None,388.63123012886354,None,388.63123012886354,None,392.6327923008794,None,392.6327923008794,None,392.6327923008794,None,392.6327923008794,None,392.6327923008794,None,392.6327923008794,None,392.6327923008794,None,393.6165107694542,None,,,,,,,,,,,,,,,,,,,,,,,,,,,,,,24269,2020_Feb_28_1008,Mmi_3levels,3.1.5,60.00011519463731,
,,,1,1,4.9,,,,,,,,,0,0,0,0,0,19,19,4,,,,,,,,,,,,,,,,,,,,,,,,,,,,,,,,,,,,,,,,,,,,,,,,,,,,,,,,,,,True,True,True,0.85,-0.15000000000000002,-2.739999999999999,4.84,4.9,0.0600000000000005,0.03000000000000025,certain,certain,0.03000000000000025,97.30749999999998,395.6340274471295,None,395.6340274471295,None,395.6340274471295,None,395.6340274471295,None,395.6340274471295,None,395.6340274471295,None,395.6340274471295,None,3,1.6842223826461122,395.6340274471295,None,397.35136550857715,None,397.35136550857715,None,397.35136550857715,None,397.35136550857715,None,397.35136550857715,None,397.35136550857715,None,397.35136550857715,None,401.336159450344,None,401.336159450344,None,401.336159450344,None,401.336159450344,None,401.336159450344,None,401.336159450344,None,401.336159450344,None,410.8399231265503,None,402.3365917515257,None,403.3369501359339,None,0.82,7.502733001063461,406.3381673629556,None,None,406.3381673629556,None,,,,,,,,,,,,,,,,,,,24269,2020_Feb_28_1008,Mmi_3levels,3.1.5,60.00011519463731,
,,,1,1,11.7,,,,,,,,,0,0,0,0,0,20,20,6,,,,,,,,,,,,,,,,,,,,,,,,,,,,,,,,,,,,,,,,,,,,,,,,,,,,,,,,,,,True,True,False,0.82,-0.18000000000000005,-2.919999999999999,5.4399999999999995,11.7,6.26,3.13,gamble,win,11.7,109.00749999999998,412.85731276975275,None,412.85731276975275,None,412.85731276975275,None,412.85731276975275,None,412.85731276975275,None,412.85731276975275,None,412.85731276975275,None,1,1.3673305737756891,412.85731276975275,None,414.25789885624545,None,414.25789885624545,None,414.25789885624545,None,414.25789885624545,None,414.25789885624545,None,414.25789885624545,None,414.25789885624545,None,418.2594927068785,None,418.2594927068785,None,418.2594927068785,None,418.2594927068785,None,418.2594927068785,None,418.2594927068785,None,418.2594927068785,None,419.24322909467446,None,,,,,,,,,,,,,,,,,,,,,,,,,,,,,,24269,2020_Feb_28_1008,Mmi_3levels,3.1.5,60.00011519463731,
,,,1,1,2.7,,,,,,,,,0,0,0,0,0,21,21,19,,,,,,,,,,,,,,,,,,,,,,,,,,,,,,,,,,,,,,,,,,,,,,,,,,,,,,,,,,,True,True,False,0.82,-0.18000000000000005,-3.099999999999999,5.619999999999999,2.7,-2.919999999999999,-0.10999999999999943,gamble,win,2.7,111.70749999999998,421.2607188935144,None,421.2607188935144,None,421.2607188935144,None,421.2607188935144,None,421.2607188935144,None,421.2607188935144,None,421.2607188935144,None,1,1.4674967745449976,421.2607188935144,None,422.76130894784,None,422.76130894784,None,422.76130894784,None,422.76130894784,None,422.76130894784,None,422.76130894784,None,422.76130894784,None,426.76281992207805,None,426.76281992207805,None,426.76281992207805,None,426.76281992207805,None,426.76281992207805,None,426.76281992207805,None,426.76281992207805,None,436.2498656058524,None,427.7465355107779,None,428.74691949406406,None,0.82,7.502681163314264,431.74803592547687,None,None,431.74803592547687,None,,,,,,,,,,,,,,,,,,,24269,2020_Feb_28_1008,Mmi_3levels,3.1.5,60.00011519463731,
,,,1,1,6.1,,,,,,,,,0,0,0,0,0,22,22,3,,,,,,,,,,,,,,,,,,,,,,,,,,,,,,,,,,,,,,,,,,,,,,,,,,,,,,,,,,,True,False,True,0.82,-0.18000000000000005,-3.2799999999999994,-0.9033333333333333,6.1,5.196666666666666,2.598333333333333,gamble,lose,5.196666666666666,116.90416666666665,438.2672635686904,None,438.2672635686904,None,438.2672635686904,None,438.2672635686904,None,438.2672635686904,None,438.2672635686904,None,438.2672635686904,None,1,1.0175086780218408,438.2672635686904,None,439.3177308123559,None,439.3177308123559,None,439.3177308123559,None,439.3177308123559,None,439.3177308123559,None,439.3177308123559,None,439.3177308123559,None,443.30262842961383,None,443.30262842961383,None,443.30262842961383,None,443.30262842961383,None,443.30262842961383,None,443.30262842961383,None,443.30262842961383,None,444.30299065385043,None,,,,,,,,,,,,,,,,,,,,,,,,,,,,,,24269,2020_Feb_28_1008,Mmi_3levels,3.1.5,60.00011519463731,
,,,1,1,8.5,,,,,,,,,0,0,0,0,0,23,23,24,,,,,,,,,,,,,,,,,,,,,,,,,,,,,,,,,,,,,,,,,,,,,,,,,,,,,,,,,,,True,True,False,0.82,-0.18000000000000005,-3.4599999999999995,5.98,8.5,2.5199999999999996,1.2599999999999998,gamble,win,8.5,125.40416666666665,446.32040269607387,None,446.32040269607387,None,446.32040269607387,None,446.32040269607387,None,446.32040269607387,None,446.32040269607387,None,446.32040269607387,None,1,0.9841098115357454,446.32040269607387,None,447.3375661091268,None,447.3375661091268,None,447.3375661091268,None,447.3375661091268,None,447.3375661091268,None,447.3375661091268,None,447.3375661091268,None,451.3224317277709,None,451.3224317277709,None,451.3224317277709,None,451.3224317277709,None,451.3224317277709,None,451.3224317277709,None,451.3224317277709,None,460.8261515658887,None,452.32281827094994,None,453.3232112138503,None,0.88,7.5027995581622235,456.32437468321586,None,None,456.32437468321586,None,,,,,,,,,,,,,,,,,,,24269,2020_Feb_28_1008,Mmi_3levels,3.1.5,60.00011519463731,
,,,1,1,0.3,,,,,,,,,0,0,0,0,0,24,24,13,,,,,,,,,,,,,,,,,,,,,,,,,,,,,,,,,,,,,,,,,,,,,,,,,,,,,,,,,,,True,False,True,0.88,-0.12,-3.5799999999999996,-0.7183333333333333,0.3,-0.4183333333333333,-0.059166666666666645,gamble,lose,-0.4183333333333333,124.98583333333332,462.84355048868747,None,462.84355048868747,None,462.84355048868747,None,462.84355048868747,None,462.84355048868747,None,462.84355048868747,None,462.84355048868747,None,1,1.3675001663868898,462.84355048868747,None,464.24415289446915,None,464.24415289446915,None,464.24415289446915,None,464.24415289446915,None,464.24415289446915,None,464.24415289446915,None,464.24415289446915,None,468.2457227461491,None,468.2457227461491,None,468.2457227461491,None,468.2457227461491,None,468.2457227461491,None,468.2457227461491,None,468.2457227461491,None,469.2294360949454,None,,,,,,,,,,,,,,,,,,,,,,,,,,,,,,24269,2020_Feb_28_1008,Mmi_3levels,3.1.5,60.00011519463731,
,,,1,1,10.7,,,,,,,,,0,0,0,0,0,25,25,21,,,,,,,,,,,,,,,,,,,,,,,,,,,,,,,,,,,,,,,,,,,,,,,,,,,,,,,,,,,True,True,True,0.88,-0.12,-3.6999999999999997,5.38,10.7,5.319999999999999,2.6599999999999997,gamble,win,10.7,135.6858333333333,471.2468388575726,None,471.2468388575726,None,471.2468388575726,None,471.2468388575726,None,471.2468388575726,None,471.2468388575726,None,471.2468388575726,None,1,1.5175585958495503,471.2468388575726,None,472.7974987328562,None,472.7974987328562,None,472.7974987328562,None,472.7974987328562,None,472.7974987328562,None,472.7974987328562,None,472.7974987328562,None,476.78235283200775,None,476.78235283200775,None,476.78235283200775,None,476.78235283200775,None,476.78235283200775,None,476.78235283200775,None,476.78235283200775,None,477.78280337239994,None,,,,,,,,,,,,,,,,,,,,,,,,,,,,,,24269,2020_Feb_28_1008,Mmi_3levels,3.1.5,60.00011519463731,
,,,1,1,10.3,,,,,,,,,0,0,0,0,0,26,26,20,,,,,,,,,,,,,,,,,,,,,,,,,,,,,,,,,,,,,,,,,,,,,,,,,,,,,,,,,,,True,True,True,0.88,-0.12,-3.82,5.5,10.3,4.800000000000001,2.4000000000000004,gamble,win,10.3,145.98583333333332,479.8002995709612,None,479.8002995709612,None,479.8002995709612,None,479.8002995709612,None,479.8002995709612,None,479.8002995709612,None,479.8002995709612,None,1,1.4007358399758232,479.8002995709612,None,481.23413765033183,None,481.23413765033183,None,481.23413765033183,None,481.23413765033183,None,481.23413765033183,None,481.23413765033183,None,481.23413765033183,None,485.2190234281006,None,485.2190234281006,None,485.2190234281006,None,485.2190234281006,None,485.2190234281006,None,485.2190234281006,None,485.2190234281006,None,494.7227253469973,None,486.2194195708653,None,487.21981059384416,None,0.8,7.502764679680695,490.22096926342056,None,None,490.22096926342056,None,,,,,,,,,,,,,,,,,,,24269,2020_Feb_28_1008,Mmi_3levels,3.1.5,60.00011519463731,
,,,2,0,7.3,,,,,,,,,0,1,1,1,0,0,0,21,,,,,,,,,,,,,,,,,,,,,,,,,,,,,,,,,,,,,,,,,,,,,,,,501.87554941609415,None,0.83,7.501824240614951,504.8933825599961,None,None,504.8933825599961,None,509.3784644892294,None,False,True,True,0.83,0.83,0.83,-12.45,7.3,-5.1499999999999995,1.0750000000000002,gamble,lose,-5.1499999999999995,140.8358333333333,512.4129801071103,None,512.4129801071103,None,512.4129801071103,None,512.4129801071103,None,512.4129801071103,None,512.4129801071103,None,512.4129801071103,None,1,1.8676224010778242,512.4129801071103,None,514.3137466657499,None,514.3137466657499,None,514.3137466657499,None,514.3137466657499,None,514.3137466657499,None,514.3137466657499,None,514.3137466657499,None,518.3152601998809,None,518.3152601998809,None,518.3152601998809,None,518.3152601998809,None,518.3152601998809,None,518.3152601998809,None,518.3152601998809,None,519.2990004275052,None,,,,,,,,,,,,496.7235182724835,None,4,5.135576179724012,496.7235182724835,None,,,,,,,,,,,,,24269,2020_Feb_28_1008,Mmi_3levels,3.1.5,60.00011519463731,
,,,2,0,0.7,,,,,,,,,0,1,1,1,0,1,1,9,,,,,,,,,,,,,,,,,,,,,,,,,,,,,,,,,,,,,,,,,,,,,,,,,,,,,,,,,,,False,True,True,0.83,0.83,1.66,-13.28,0.7,-12.58,-5.94,gamble,lose,-12.58,128.2558333333333,521.3164620675743,None,521.3164620675743,None,521.3164620675743,None,521.3164620675743,None,521.3164620675743,None,521.3164620675743,None,521.3164620675743,None,1,1.5175233973859577,521.3164620675743,None,522.8670969839441,None,522.8670969839441,None,522.8670969839441,None,522.8670969839441,None,522.8670969839441,None,522.8670969839441,None,522.8670969839441,None,526.8686930744807,None,526.8686930744807,None,526.8686930744807,None,526.8686930744807,None,526.8686930744807,None,526.8686930744807,None,526.8686930744807,None,536.3557086795627,None,527.8523446659601,None,528.8527715273885,None,0.83,7.50294099200255,531.8539113177831,None,None,531.8539113177831,None,,,,,,,,,,,,,,,,,,,24269,2020_Feb_28_1008,Mmi_3levels,3.1.5,60.00011519463731,
,,,2,0,11.3,,,,,,,,,0,1,1,1,0,2,2,20,,,,,,,,,,,,,,,,,,,,,,,,,,,,,,,,,,,,,,,,,,,,,,,,,,,,,,,,,,,False,True,True,0.83,0.83,2.4899999999999998,-14.11,11.3,-2.8099999999999987,-1.4049999999999994,gamble,lose,-2.8099999999999987,125.4458333333333,538.3731085623149,None,538.3731085623149,None,538.3731085623149,None,538.3731085623149,None,538.3731085623149,None,538.3731085623149,None,538.3731085623149,None,1,1.217451976495795,538.3731085623149,None,539.6236522186591,None,539.6236522186591,None,539.6236522186591,None,539.6236522186591,None,539.6236522186591,None,539.6236522186591,None,539.6236522186591,None,543.6252159905998,None,543.6252159905998,None,543.6252159905998,None,543.6252159905998,None,543.6252159905998,None,543.6252159905998,None,543.6252159905998,None,544.608905340443,None,,,,,,,,,,,,,,,,,,,,,,,,,,,,,,24269,2020_Feb_28_1008,Mmi_3levels,3.1.5,60.00011519463731,
,,,2,0,3.5,,,,,,,,,0,1,1,1,0,3,3,17,,,,,,,,,,,,,,,,,,,,,,,,,,,,,,,,,,,,,,,,,,,,,,,,,,,,,,,,,,,False,True,False,0.83,0.83,3.32,-14.94,3.5,-11.44,-3.9699999999999998,gamble,lose,-11.44,114.0058333333333,546.6263893795331,None,546.6263893795331,None,546.6263893795331,None,546.6263893795331,None,546.6263893795331,None,546.6263893795331,None,546.6263893795331,None,1,1.117365132267878,546.6263893795331,None,547.7768420318389,None,547.7768420318389,None,547.7768420318389,None,547.7768420318389,None,547.7768420318389,None,547.7768420318389,None,547.7768420318389,None,551.7784086836546,None,551.7784086836546,None,551.7784086836546,None,551.7784086836546,None,551.7784086836546,None,551.7784086836546,None,551.7784086836546,None,561.2654636470252,None,552.762129712115,None,553.7625181752082,None,0.8,7.502860035529011,556.7636480460424,None,None,556.7636480460424,None,,,,,,,,,,,,,,,,,,,24269,2020_Feb_28_1008,Mmi_3levels,3.1.5,60.00011519463731,
,,,2,0,4.1,,,,,,,,,0,1,1,1,0,4,4,3,,,,,,,,,,,,,,,,,,,,,,,,,,,,,,,,,,,,,,,,,,,,,,,,,,,,,,,,,,,False,False,False,0.8,0.8,4.12,3.1433333333333335,1.025,-2.1183333333333336,-0.5466666666666669,gamble,win,1.025,115.0308333333333,563.2829153675266,None,563.2829153675266,None,563.2829153675266,None,563.2829153675266,None,563.2829153675266,None,563.2829153675266,None,563.2829153675266,None,1,1.3341035398116219,563.2829153675266,None,564.650114107033,None,564.650114107033,None,564.650114107033,None,564.650114107033,None,564.650114107033,None,564.650114107033,None,564.650114107033,None,568.6516845986916,None,568.6516845986916,None,568.6516845986916,None,568.6516845986916,None,568.6516845986916,None,568.6516845986916,None,568.6516845986916,None,569.635424826316,None,,,,,,,,,,,,,,,,,,,,,,,,,,,,,,24269,2020_Feb_28_1008,Mmi_3levels,3.1.5,60.00011519463731,
,,,2,0,12.9,,,,,,,,,0,1,1,1,0,5,5,8,,,,,,,,,,,,,,,,,,,,,,,,,,,,,,,,,,,,,,,,,,,,,,,,,,,,,,,,,,,False,True,True,0.8,0.8,4.92,-16.12,12.9,-3.2200000000000006,-1.6100000000000003,gamble,lose,-3.2200000000000006,111.8108333333333,571.6528499879714,None,571.6528499879714,None,571.6528499879714,None,571.6528499879714,None,571.6528499879714,None,571.6528499879714,None,571.6528499879714,None,1,1.0339831610472174,571.6528499879714,None,572.7199430680776,None,572.7199430680776,None,572.7199430680776,None,572.7199430680776,None,572.7199430680776,None,572.7199430680776,None,572.7199430680776,None,576.7215129197575,None,576.7215129197575,None,576.7215129197575,None,576.7215129197575,None,576.7215129197575,None,576.7215129197575,None,576.7215129197575,None,577.7052291484288,None,,,,,,,,,,,,,,,,,,,,,,,,,,,,,,24269,2020_Feb_28_1008,Mmi_3levels,3.1.5,60.00011519463731,
,,,2,0,-0.9,,,,,,,,,0,1,1,1,0,6,6,26,,,,,,,,,,,,,,,,,,,,,,,,,,,,,,,,,,,,,,,,,,,,,,,,,,,,,,,,,,,False,True,True,0.8,0.8,5.72,-16.92,-0.9,-17.82,-9.36,gamble,lose,-17.82,93.99083333333331,579.7226808689302,None,579.7226808689302,None,579.7226808689302,None,579.7226808689302,None,579.7226808689302,None,579.7226808689302,None,579.7226808689302,None,None,,579.7226808689302,None,582.7238568177563,None,582.7238568177563,None,582.7238568177563,None,582.7238568177563,None,582.7238568177563,None,582.7238568177563,None,582.7238568177563,None,586.7254186697828,None,586.7254186697828,None,586.7254186697828,None,586.7254186697828,None,586.7254186697828,None,586.7254186697828,None,586.7254186697828,None,596.2124630736071,None,587.7090830607049,None,588.7095368009614,None,0.82,7.50280499793007,591.7106929106449,None,None,591.7106929106449,None,,,,,,,,,,,,,,,,,,,24269,2020_Feb_28_1008,Mmi_3levels,3.1.5,60.00011519463731,
,,,2,0,-0.3,,,,,,,,,0,1,1,1,0,7,7,19,,,,,,,,,,,,,,,,,,,,,,,,,,,,,,,,,,,,,,,,,,,,,,,,,,,,,,,,,,,False,True,True,0.82,0.82,6.54,-18.02,-0.3,-18.32,-9.31,certain,certain,-9.31,84.68083333333331,598.2299592721756,None,598.2299592721756,None,598.2299592721756,None,598.2299592721756,None,598.2299592721756,None,598.2299592721756,None,598.2299592721756,None,3,1.200676706554077,598.2299592721756,None,599.4637100593391,None,599.4637100593391,None,599.4637100593391,None,599.4637100593391,None,599.4637100593391,None,599.4637100593391,None,599.4637100593391,None,603.465309669722,None,603.465309669722,None,603.465309669722,None,603.465309669722,None,603.465309669722,None,603.465309669722,None,603.465309669722,None,604.4490153388542,None,,,,,,,,,,,,,,,,,,,,,,,,,,,,,,24269,2020_Feb_28_1008,Mmi_3levels,3.1.5,60.00011519463731,
,,,2,0,4.9,,,,,,,,,0,1,1,1,0,8,8,6,,,,,,,,,,,,,,,,,,,,,,,,,,,,,,,,,,,,,,,,,,,,,,,,,,,,,,,,,,,False,True,True,0.82,0.82,7.36,-18.84,4.9,-13.94,-4.52,gamble,lose,-13.94,70.74083333333331,606.4664872184803,None,606.4664872184803,None,606.4664872184803,None,606.4664872184803,None,606.4664872184803,None,606.4664872184803,None,606.4664872184803,None,1,1.3506509796716273,606.4664872184803,None,607.850361072291,None,607.850361072291,None,607.850361072291,None,607.850361072291,None,607.850361072291,None,607.850361072291,None,607.850361072291,None,611.8352558096667,None,611.8352558096667,None,611.8352558096667,None,611.8352558096667,None,611.8352558096667,None,611.8352558096667,None,611.8352558096667,None,621.3389708479881,None,612.8356385130173,None,613.8359796181685,None,0.82,7.502810437690641,616.8371955652547,None,None,616.8371955652547,None,,,,,,,,,,,,,,,,,,,24269,2020_Feb_28_1008,Mmi_3levels,3.1.5,60.00011519463731,
,,,2,0,11.5,,,,,,,,,0,1,1,1,0,9,9,23,,,,,,,,,,,,,,,,,,,,,,,,,,,,,,,,,,,,,,,,,,,,,,,,,,,,,,,,,,,False,True,False,0.82,0.82,8.18,-19.659999999999997,11.5,-8.159999999999997,1.6700000000000017,gamble,lose,-8.159999999999997,62.58083333333332,623.356427368286,None,623.356427368286,None,623.356427368286,None,623.356427368286,None,623.356427368286,None,623.356427368286,None,623.356427368286,None,1,1.2840836366740405,623.356427368286,None,624.6736327635008,None,624.6736327635008,None,624.6736327635008,None,624.6736327635008,None,624.6736327635008,None,624.6736327635008,None,624.6736327635008,None,628.6751757363527,None,628.6751757363527,None,628.6751757363527,None,628.6751757363527,None,628.6751757363527,None,628.6751757363527,None,628.6751757363527,None,629.6588919650239,None,,,,,,,,,,,,,,,,,,,,,,,,,,,,,,24269,2020_Feb_28_1008,Mmi_3levels,3.1.5,60.00011519463731,
,,,2,0,-1.3,,,,,,,,,0,1,1,1,0,10,10,7,,,,,,,,,,,,,,,,,,,,,,,,,,,,,,,,,,,,,,,,,,,,,,,,,,,,,,,,,,,False,True,False,0.82,0.82,9.0,-20.479999999999997,-1.3,-21.779999999999998,-11.54,certain,certain,-11.54,51.04083333333332,631.6763190465936,None,631.6763190465936,None,631.6763190465936,None,631.6763190465936,None,631.6763190465936,None,631.6763190465936,None,631.6763190465936,None,3,1.9010711853770772,631.6763190465936,None,633.6104166346704,None,633.6104166346704,None,633.6104166346704,None,633.6104166346704,None,633.6104166346704,None,633.6104166346704,None,633.6104166346704,None,637.6120085653893,None,637.6120085653893,None,637.6120085653893,None,637.6120085653893,None,637.6120085653893,None,637.6120085653893,None,637.6120085653893,None,638.5957247940605,None,,,,,,,,,,,,,,,,,,,,,,,,,,,,,,24269,2020_Feb_28_1008,Mmi_3levels,3.1.5,60.00011519463731,
,,,2,0,12.3,,,,,,,,,0,1,1,1,0,11,11,16,,,,,,,,,,,,,,,,,,,,,,,,,,,,,,,,,,,,,,,,,,,,,,,,,,,,,,,,,,,False,True,True,0.82,0.82,9.82,-21.299999999999997,12.3,-8.999999999999996,1.6500000000000021,gamble,lose,-8.999999999999996,42.040833333333325,640.6131813143511,None,640.6131813143511,None,640.6131813143511,None,640.6131813143511,None,640.6131813143511,None,640.6131813143511,None,640.6131813143511,None,1,0.8505713031408959,640.6131813143511,None,641.4968593366866,None,641.4968593366866,None,641.4968593366866,None,641.4968593366866,None,641.4968593366866,None,641.4968593366866,None,641.4968593366866,None,645.4983949498564,None,645.4983949498564,None,645.4983949498564,None,645.4983949498564,None,645.4983949498564,None,645.4983949498564,None,645.4983949498564,None,654.9854409536129,None,646.4821546966268,None,647.4825358000453,None,0.8,7.503409451623156,650.4836983094501,None,None,650.4836983094501,None,,,,,,,,,,,,,,,,,,,24269,2020_Feb_28_1008,Mmi_3levels,3.1.5,60.00011519463731,
,,,2,0,1.9,,,,,,,,,0,1,1,1,0,12,12,24,,,,,,,,,,,,,,,,,,,,,,,,,,,,,,,,,,,,,,,,,,,,,,,,,,,,,,,,,,,False,True,True,0.8,0.8,10.620000000000001,-21.82,1.9,-19.92,-9.010000000000002,gamble,lose,-19.92,22.120833333333323,657.00288947425,None,657.00288947425,None,657.00288947425,None,657.00288947425,None,657.00288947425,None,657.00288947425,None,657.00288947425,None,1,1.0841067396759172,657.00288947425,None,658.1200290163397,None,658.1200290163397,None,658.1200290163397,None,658.1200290163397,None,658.1200290163397,None,658.1200290163397,None,658.1200290163397,None,662.1215966281161,None,662.1215966281161,None,662.1215966281161,None,662.1215966281161,None,662.1215966281161,None,662.1215966281161,None,662.1215966281161,None,663.1053208564408,None,,,,,,,,,,,,,,,,,,,,,,,,,,,,,,24269,2020_Feb_28_1008,Mmi_3levels,3.1.5,60.00011519463731,
,,,2,0,6.7,,,,,,,,,0,1,1,1,0,13,13,13,,,,,,,,,,,,,,,,,,,,,,,,,,,,,,,,,,,,,,,,,,,,,,,,,,,,,,,,,,,False,True,False,0.8,0.8,11.420000000000002,-22.620000000000005,6.7,-15.920000000000005,-4.610000000000003,certain,certain,-4.610000000000003,17.51083333333332,665.122809375338,None,665.122809375338,None,665.122809375338,None,665.122809375338,None,665.122809375338,None,665.122809375338,None,665.122809375338,None,3,1.3007293122645933,665.122809375338,None,666.4566249276832,None,666.4566249276832,None,666.4566249276832,None,666.4566249276832,None,666.4566249276832,None,666.4566249276832,None,666.4566249276832,None,670.4581912595168,None,670.4581912595168,None,670.4581912595168,None,670.4581912595168,None,670.4581912595168,None,670.4581912595168,None,670.4581912595168,None,679.9451809457241,None,671.4419100480736,None,672.4423045909061,None,0.83,7.502793158440909,675.4434722200895,None,None,675.4434722200895,None,,,,,,,,,,,,,,,,,,,24269,2020_Feb_28_1008,Mmi_3levels,3.1.5,60.00011519463731,
,,,2,0,6.5,,,,,,,,,0,1,1,1,0,14,14,18,,,,,,,,,,,,,,,,,,,,,,,,,,,,,,,,,,,,,,,,,,,,,,,,,,,,,,,,,,,False,False,False,0.83,0.83,12.250000000000002,3.9258333333333333,1.625,-2.3008333333333333,-0.33791666666666664,gamble,win,1.625,19.13583333333332,681.9626992233316,None,681.9626992233316,None,681.9626992233316,None,681.9626992233316,None,681.9626992233316,None,681.9626992233316,None,681.9626992233316,None,1,1.2173662202258129,681.9626992233316,None,683.2131920018874,None,683.2131920018874,None,683.2131920018874,None,683.2131920018874,None,683.2131920018874,None,683.2131920018874,None,683.2131920018874,None,687.2147567337888,None,687.2147567337888,None,687.2147567337888,None,687.2147567337888,None,687.2147567337888,None,687.2147567337888,None,687.2147567337888,None,688.1985027211631,None,,,,,,,,,,,,,,,,,,,,,,,,,,,,,,24269,2020_Feb_28_1008,Mmi_3levels,3.1.5,60.00011519463731,
,,,2,0,-0.7,,,,,,,,,0,1,1,1,0,15,15,4,,,,,,,,,,,,,,,,,,,,,,,,,,,,,,,,,,,,,,,,,,,,,,,,,,,,,,,,,,,False,True,True,0.83,0.83,13.080000000000002,-24.700000000000003,-0.7,-25.400000000000002,-13.05,certain,certain,-13.05,6.085833333333319,690.2159294827507,None,690.2159294827507,None,690.2159294827507,None,690.2159294827507,None,690.2159294827507,None,690.2159294827507,None,690.2159294827507,None,3,0.9839597380705527,690.2159294827507,None,691.2329965799945,None,691.2329965799945,None,691.2329965799945,None,691.2329965799945,None,691.2329965799945,None,691.2329965799945,None,691.2329965799945,None,695.2344937948292,None,695.2344937948292,None,695.2344937948292,None,695.2344937948292,None,695.2344937948292,None,695.2344937948292,None,695.2344937948292,None,704.7216265148163,None,696.2182410621535,None,697.2187268010093,None,0.84,7.502804037969327,700.219832352901,None,None,700.219832352901,None,,,,,,,,,,,,,,,,,,,24269,2020_Feb_28_1008,Mmi_3levels,3.1.5,60.00011519463731,
,,,2,0,0.9,,,,,,,,,0,1,1,1,0,16,16,0,,,,,,,,,,,,,,,,,,,,,,,,,,,,,,,,,,,,,,,,,,,,,,,,,,,,,,,,,,,False,False,False,0.84,0.84,13.920000000000002,4.1,0.225,-3.8749999999999996,-1.8249999999999997,gamble,win,0.225,6.310833333333319,706.7390510365003,None,706.7390510365003,None,706.7390510365003,None,706.7390510365003,None,706.7390510365003,None,706.7390510365003,None,706.7390510365003,None,1,1.7342659647474647,706.7390510365003,None,708.5064214805388,None,708.5064214805388,None,708.5064214805388,None,708.5064214805388,None,708.5064214805388,None,708.5064214805388,None,708.5064214805388,None,712.5079599735836,None,712.5079599735836,None,712.5079599735836,None,712.5079599735836,None,712.5079599735836,None,712.5079599735836,None,712.5079599735836,None,713.4917021211222,None,,,,,,,,,,,,,,,,,,,,,,,,,,,,,,24269,2020_Feb_28_1008,Mmi_3levels,3.1.5,60.00011519463731,
,,,2,0,1.7,,,,,,,,,0,1,1,1,0,17,17,5,,,,,,,,,,,,,,,,,,,,,,,,,,,,,,,,,,,,,,,,,,,,,,,,,,,,,,,,,,,False,True,True,0.84,0.84,14.760000000000002,-26.520000000000003,1.7,-24.820000000000004,-11.560000000000002,certain,certain,-11.560000000000002,-5.249166666666683,715.5090933642568,None,715.5090933642568,None,715.5090933642568,None,715.5090933642568,None,715.5090933642568,None,715.5090933642568,None,715.5090933642568,None,3,1.1673731959235738,715.5090933642568,None,716.7095700795107,None,716.7095700795107,None,716.7095700795107,None,716.7095700795107,None,716.7095700795107,None,716.7095700795107,None,716.7095700795107,None,720.7111808894115,None,720.7111808894115,None,720.7111808894115,None,720.7111808894115,None,720.7111808894115,None,720.7111808894115,None,720.7111808894115,None,721.6948923182863,None,,,,,,,,,,,,,,,,,,,,,,,,,,,,,,24269,2020_Feb_28_1008,Mmi_3levels,3.1.5,60.00011519463731,
,,,2,0,13.9,,,,,,,,,0,1,1,1,0,18,18,14,,,,,,,,,,,,,,,,,,,,,,,,,,,,,,,,,,,,,,,,,,,,,,,,,,,,,,,,,,,False,True,True,0.84,0.84,15.600000000000001,-27.36,13.9,-13.459999999999999,0.22000000000000064,certain,certain,0.22000000000000064,-5.029166666666683,723.7123670777873,None,723.7123670777873,None,723.7123670777873,None,723.7123670777873,None,723.7123670777873,None,723.7123670777873,None,723.7123670777873,None,3,1.1673658362342394,723.7123670777873,None,724.9128437930412,None,724.9128437930412,None,724.9128437930412,None,724.9128437930412,None,724.9128437930412,None,724.9128437930412,None,724.9128437930412,None,728.9144091649141,None,728.9144091649141,None,728.9144091649141,None,728.9144091649141,None,728.9144091649141,None,728.9144091649141,None,728.9144091649141,None,738.4014548486884,None,729.8980949949109,None,730.8985199364179,None,0.9,7.502812357604853,733.8996514071696,None,None,733.8996514071696,None,,,,,,,,,,,,,,,,,,,24269,2020_Feb_28_1008,Mmi_3levels,3.1.5,60.00011519463731,
,,,2,0,4.3,,,,,,,,,0,1,1,1,0,19,19,11,,,,,,,,,,,,,,,,,,,,,,,,,,,,,,,,,,,,,,,,,,,,,,,,,,,,,,,,,,,False,True,False,0.9,0.9,16.5,-29.1,4.3,-24.8,-10.25,certain,certain,-10.25,-15.279166666666683,740.418871370719,None,740.418871370719,None,740.418871370719,None,740.418871370719,None,740.418871370719,None,740.418871370719,None,740.418871370719,None,3,0.7672469294120674,740.418871370719,None,741.2192224594401,None,741.2192224594401,None,741.2192224594401,None,741.2192224594401,None,741.2192224594401,None,741.2192224594401,None,741.2192224594401,None,745.2207833515131,None,745.2207833515131,None,745.2207833515131,None,745.2207833515131,None,745.2207833515131,None,745.2207833515131,None,745.2207833515131,None,746.2044883806666,None,,,,,,,,,,,,,,,,,,,,,,,,,,,,,,24269,2020_Feb_28_1008,Mmi_3levels,3.1.5,60.00011519463731,
,,,2,0,12.5,,,,,,,,,0,1,1,1,0,20,20,15,,,,,,,,,,,,,,,,,,,,,,,,,,,,,,,,,,,,,,,,,,,,,,,,,,,,,,,,,,,False,False,True,0.9,0.9,17.4,4.6,3.125,-1.4749999999999996,0.8250000000000002,gamble,win,3.125,-12.154166666666683,748.2220005785348,None,748.2220005785348,None,748.2220005785348,None,748.2220005785348,None,748.2220005785348,None,748.2220005785348,None,748.2220005785348,None,1,0.7505158175554243,748.2220005785348,None,749.0055392789291,None,749.0055392789291,None,749.0055392789291,None,749.0055392789291,None,749.0055392789291,None,749.0055392789291,None,749.0055392789291,None,753.0071721678687,None,753.0071721678687,None,753.0071721678687,None,753.0071721678687,None,753.0071721678687,None,753.0071721678687,None,753.0071721678687,None,762.4941528944692,None,753.9908912764149,None,754.9912845392973,None,0.9,7.502822277179803,757.9924742475196,None,None,757.9924742475196,None,,,,,,,,,,,,,,,,,,,24269,2020_Feb_28_1008,Mmi_3levels,3.1.5,60.00011519463731,
,,,2,0,6.3,,,,,,,,,0,1,1,1,0,21,21,1,,,,,,,,,,,,,,,,,,,,,,,,,,,,,,,,,,,,,,,,,,,,,,,,,,,,,,,,,,,False,False,True,0.9,0.9,18.299999999999997,4.675,1.575,-3.0999999999999996,-0.7624999999999998,gamble,win,1.575,-10.579166666666683,764.5116759718658,None,764.5116759718658,None,764.5116759718658,None,764.5116759718658,None,764.5116759718658,None,764.5116759718658,None,764.5116759718658,None,1,0.8838933729639393,764.5116759718658,None,765.4286754240457,None,765.4286754240457,None,765.4286754240457,None,765.4286754240457,None,765.4286754240457,None,765.4286754240457,None,765.4286754240457,None,769.4302948735713,None,769.4302948735713,None,769.4302948735713,None,769.4302948735713,None,769.4302948735713,None,769.4302948735713,None,769.4302948735713,None,770.4139586245219,None,,,,,,,,,,,,,,,,,,,,,,,,,,,,,,24269,2020_Feb_28_1008,Mmi_3levels,3.1.5,60.00011519463731,
,,,2,0,-1.5,,,,,,,,,0,1,1,1,0,22,22,10,,,,,,,,,,,,,,,,,,,,,,,,,,,,,,,,,,,,,,,,,,,,,,,,,,,,,,,,,,,False,False,False,0.9,0.9,19.199999999999996,4.75,-0.375,-5.125,-2.75,certain,certain,-2.75,-13.329166666666683,772.431374506581,None,772.431374506581,None,772.431374506581,None,772.431374506581,None,772.431374506581,None,772.431374506581,None,772.431374506581,None,3,1.7509970766113838,772.431374506581,None,774.2154751025228,None,774.2154751025228,None,774.2154751025228,None,774.2154751025228,None,774.2154751025228,None,774.2154751025228,None,774.2154751025228,None,778.217035034635,None,778.217035034635,None,778.217035034635,None,778.217035034635,None,778.217035034635,None,778.217035034635,None,778.217035034635,None,787.70408615817,None,779.2007288642853,None,780.2011458061388,None,0.88,7.502779719026876,783.202308635533,None,None,783.202308635533,None,,,,,,,,,,,,,,,,,,,24269,2020_Feb_28_1008,Mmi_3levels,3.1.5,60.00011519463731,
,,,2,0,1.1,,,,,,,,,0,1,1,1,0,23,23,25,,,,,,,,,,,,,,,,,,,,,,,,,,,,,,,,,,,,,,,,,,,,,,,,,,,,,,,,,,,False,True,True,0.88,0.88,20.079999999999995,-32.39999999999999,1.1,-31.29999999999999,-15.099999999999994,certain,certain,-15.099999999999994,-28.429166666666678,789.7215436384213,None,789.7215436384213,None,789.7215436384213,None,789.7215436384213,None,789.7215436384213,None,789.7215436384213,None,789.7215436384213,None,3,1.2507308481945074,789.7215436384213,None,791.0053175285866,None,791.0053175285866,None,791.0053175285866,None,791.0053175285866,None,791.0053175285866,None,791.0053175285866,None,791.0053175285866,None,795.0068797005952,None,795.0068797005952,None,795.0068797005952,None,795.0068797005952,None,795.0068797005952,None,795.0068797005952,None,795.0068797005952,None,795.99063816743,None,,,,,,,,,,,,,,,,,,,,,,,,,,,,,,24269,2020_Feb_28_1008,Mmi_3levels,3.1.5,60.00011519463731,
,,,2,0,10.5,,,,,,,,,0,1,1,1,0,24,24,22,,,,,,,,,,,,,,,,,,,,,,,,,,,,,,,,,,,,,,,,,,,,,,,,,,,,,,,,,,,False,False,True,0.88,0.88,20.959999999999994,4.826666666666666,2.625,-2.201666666666666,0.2116666666666669,gamble,win,2.625,-25.804166666666678,798.0080870080565,None,798.0080870080565,None,798.0080870080565,None,798.0080870080565,None,798.0080870080565,None,798.0080870080565,None,798.0080870080565,None,1,0.8339150680185412,798.0080870080565,None,798.8751011155982,None,798.8751011155982,None,798.8751011155982,None,798.8751011155982,None,798.8751011155982,None,798.8751011155982,None,798.8751011155982,None,802.8766962461814,None,802.8766962461814,None,802.8766962461814,None,802.8766962461814,None,802.8766962461814,None,802.8766962461814,None,802.8766962461814,None,803.8604127948347,None,,,,,,,,,,,,,,,,,,,,,,,,,,,,,,24269,2020_Feb_28_1008,Mmi_3levels,3.1.5,60.00011519463731,
,,,2,0,13.5,,,,,,,,,0,1,1,1,0,25,25,2,,,,,,,,,,,,,,,,,,,,,,,,,,,,,,,,,,,,,,,,,,,,,,,,,,,,,,,,,,,False,True,False,0.88,0.88,21.839999999999993,-34.16,13.5,-20.659999999999997,-3.5799999999999983,certain,certain,-3.5799999999999983,-29.384166666666676,805.8778673952111,None,805.8778673952111,None,805.8778673952111,None,805.8778673952111,None,805.8778673952111,None,805.8778673952111,None,805.8778673952111,None,3,0.7838778856385034,805.8778673952111,None,806.6948497601406,None,806.6948497601406,None,806.6948497601406,None,806.6948497601406,None,806.6948497601406,None,806.6948497601406,None,806.6948497601406,None,810.6963556146075,None,810.6963556146075,None,810.6963556146075,None,810.6963556146075,None,810.6963556146075,None,810.6963556146075,None,810.6963556146075,None,820.183465615577,None,811.6801355205025,None,812.6805319832492,None,0.84,7.502835396604496,815.681691292797,None,None,815.681691292797,None,,,,,,,,,,,,,,,,,,,24269,2020_Feb_28_1008,Mmi_3levels,3.1.5,60.00011519463731,
,,,2,0,0.3,,,,,,,,,0,1,1,1,0,26,26,12,,,,,,,,,,,,,,,,,,,,,,,,,,,,,,,,,,,,,,,,,,,,,,,,,,,,,,,,,,,False,True,True,0.84,0.84,22.679999999999993,-34.43999999999999,0.3,-34.13999999999999,-16.919999999999998,certain,certain,-16.919999999999998,-46.304166666666674,822.2009266156747,None,822.2009266156747,None,822.2009266156747,None,822.2009266156747,None,822.2009266156747,None,822.2009266156747,None,822.2009266156747,None,3,0.8672908954977174,822.2009266156747,None,823.1013280702027,None,823.1013280702027,None,823.1013280702027,None,823.1013280702027,None,823.1013280702027,None,823.1013280702027,None,823.1013280702027,None,827.1028438442372,None,827.1028438442372,None,827.1028438442372,None,827.1028438442372,None,827.1028438442372,None,827.1028438442372,None,827.1028438442372,None,828.086565512669,None,,,,,,,,,,,,,,,,,,,,,,,,,,,,,,24269,2020_Feb_28_1008,Mmi_3levels,3.1.5,60.00011519463731,
,,,3,1,2.3,,,,,,,,,0,2,2,2,0,0,0,21,,,,,,,,,,,,,,,,,,,,,,,,,,,,,,,,,,,,,,,,,,,,,,,,840.7748574782017,None,0.9,7.502092388938763,843.7760558260561,None,None,843.7760558260561,None,848.2777117539881,None,True,True,False,0.9,-0.09999999999999998,-0.09999999999999998,1.4999999999999996,2.3,0.8000000000000003,1.55,gamble,win,2.3,-44.00416666666668,851.3123172879568,None,851.3123172879568,None,851.3123172879568,None,851.3123172879568,None,851.3123172879568,None,851.3123172879568,None,851.3123172879568,None,1,0.7671749325454584,851.3123172879568,None,852.1126638968708,None,852.1126638968708,None,852.1126638968708,None,852.1126638968708,None,852.1126638968708,None,852.1126638968708,None,852.1126638968708,None,856.09752087589,None,856.09752087589,None,856.09752087589,None,856.09752087589,None,856.09752087589,None,856.09752087589,None,856.09752087589,None,865.601245513797,None,857.0979138187904,None,858.0982808428162,None,0.89,7.5028475560684456,861.0994923100952,None,None,861.0994923100952,None,830.0873050004884,None,4,10.671038316409977,830.0873050004884,None,,,,,,,,,,,,,24269,2020_Feb_28_1008,Mmi_3levels,3.1.5,60.00011519463731,
,,,3,1,3.1,,,,,,,,,0,2,2,2,0,1,1,2,,,,,,,,,,,,,,,,,,,,,,,,,,,,,,,,,,,,,,,,,,,,,,,,,,,,,,,,,,,True,True,True,0.89,-0.10999999999999999,-0.20999999999999996,1.7499999999999998,3.1,1.3500000000000003,0.6750000000000002,gamble,win,3.1,-40.904166666666676,867.6186684355489,None,867.6186684355489,None,867.6186684355489,None,867.6186684355489,None,867.6186684355489,None,867.6186684355489,None,867.6186684355489,None,1,0.7505769348936155,867.6186684355489,None,868.4023434500123,None,868.4023434500123,None,868.4023434500123,None,868.4023434500123,None,868.4023434500123,None,868.4023434500123,None,868.4023434500123,None,872.4039104218173,None,872.4039104218173,None,872.4039104218173,None,872.4039104218173,None,872.4039104218173,None,872.4039104218173,None,872.4039104218173,None,873.38762153071,None,,,,,,,,,,,,,,,,,,,,,,,,,,,,,,24269,2020_Feb_28_1008,Mmi_3levels,3.1.5,60.00011519463731,
,,,3,1,12.7,,,,,,,,,0,2,2,2,0,2,2,12,,,,,,,,,,,,,,,,,,,,,,,,,,,,,,,,,,,,,,,,,,,,,,,,,,,,,,,,,,,True,True,True,0.89,-0.10999999999999999,-0.31999999999999995,1.8599999999999999,12.7,10.84,5.42,gamble,win,12.7,-28.204166666666676,875.4050812508649,None,875.4050812508649,None,875.4050812508649,None,875.4050812508649,None,875.4050812508649,None,875.4050812508649,None,875.4050812508649,None,1,1.4509912528665154,875.4050812508649,None,876.8890131501466,None,876.8890131501466,None,876.8890131501466,None,876.8890131501466,None,876.8890131501466,None,876.8890131501466,None,876.8890131501466,None,880.8905631626913,None,880.8905631626913,None,880.8905631626913,None,880.8905631626913,None,880.8905631626913,None,880.8905631626913,None,880.8905631626913,None,881.8742745915733,None,,,,,,,,,,,,,,,,,,,,,,,,,,,,,,24269,2020_Feb_28_1008,Mmi_3levels,3.1.5,60.00011519463731,
,,,3,1,2.5,,,,,,,,,0,2,2,2,0,3,3,19,,,,,,,,,,,,,,,,,,,,,,,,,,,,,,,,,,,,,,,,,,,,,,,,,,,,,,,,,,,True,True,True,0.89,-0.10999999999999999,-0.42999999999999994,1.9699999999999998,2.5,0.5300000000000002,1.5150000000000001,gamble,win,2.5,-25.704166666666676,883.8917371915959,None,883.8917371915959,None,883.8917371915959,None,883.8917371915959,None,883.8917371915959,None,883.8917371915959,None,883.8917371915959,None,1,2.2676344325445825,883.8917371915959,None,886.1926364164683,None,886.1926364164683,None,886.1926364164683,None,886.1926364164683,None,886.1926364164683,None,886.1926364164683,None,886.1926364164683,None,890.1941784293595,None,890.1941784293595,None,890.1941784293595,None,890.1941784293595,None,890.1941784293595,None,890.1941784293595,None,890.1941784293595,None,899.6811825149416,None,891.1779484156868,None,892.1783195995304,None,0.88,7.50275859994872,895.1794539501643,None,None,895.1794539501643,None,,,,,,,,,,,,,,,,,,,24269,2020_Feb_28_1008,Mmi_3levels,3.1.5,60.00011519463731,
,,,3,1,12.5,,,,,,,,,0,2,2,2,0,4,4,11,,,,,,,,,,,,,,,,,,,,,,,,,,,,,,,,,,,,,,,,,,,,,,,,,,,,,,,,,,,True,False,False,0.88,-0.12,-0.5499999999999999,-0.4658333333333333,12.5,12.034166666666668,6.017083333333334,gamble,lose,12.034166666666668,-13.670000000000009,901.6987055923382,None,901.6987055923382,None,901.6987055923382,None,901.6987055923382,None,901.6987055923382,None,901.6987055923382,None,901.6987055923382,None,1,0.8170508419498219,901.6987055923382,None,902.5489741886486,None,902.5489741886486,None,902.5489741886486,None,902.5489741886486,None,902.5489741886486,None,902.5489741886486,None,902.5489741886486,None,906.5506025977738,None,906.5506025977738,None,906.5506025977738,None,906.5506025977738,None,906.5506025977738,None,906.5506025977738,None,906.5506025977738,None,907.5343249061843,None,,,,,,,,,,,,,,,,,,,,,,,,,,,,,,24269,2020_Feb_28_1008,Mmi_3levels,3.1.5,60.00011519463731,
,,,3,1,0.9,,,,,,,,,0,2,2,2,0,5,5,3,,,,,,,,,,,,,,,,,,,,,,,,,,,,,,,,,,,,,,,,,,,,,,,,,,,,,,,,,,,True,True,False,0.88,-0.12,-0.6699999999999999,2.3499999999999996,0.9,-1.4499999999999997,-0.27499999999999986,gamble,win,0.9,-12.770000000000008,909.5517743867822,None,909.5517743867822,None,909.5517743867822,None,909.5517743867822,None,909.5517743867822,None,909.5517743867822,None,909.5517743867822,None,1,1.7342608449689578,909.5517743867822,None,911.3190824335325,None,911.3190824335325,None,911.3190824335325,None,911.3190824335325,None,911.3190824335325,None,911.3190824335325,None,911.3190824335325,None,915.3207393214252,None,915.3207393214252,None,915.3207393214252,None,915.3207393214252,None,915.3207393214252,None,915.3207393214252,None,915.3207393214252,None,924.8077507666894,None,916.3044165117972,None,917.3048120145831,None,0.89,7.502824517076078,920.3059764439095,None,None,920.3059764439095,None,,,,,,,,,,,,,,,,,,,24269,2020_Feb_28_1008,Mmi_3levels,3.1.5,60.00011519463731,
,,,3,1,4.7,,,,,,,,,0,2,2,2,0,6,6,7,,,,,,,,,,,,,,,,,,,,,,,,,,,,,,,,,,,,,,,,,,,,,,,,,,,,,,,,,,,True,True,False,0.89,-0.10999999999999999,-0.7799999999999999,2.32,4.7,2.3800000000000003,1.1900000000000002,gamble,win,4.7,-8.070000000000007,926.8251416898347,None,926.8251416898347,None,926.8251416898347,None,926.8251416898347,None,926.8251416898347,None,926.8251416898347,None,926.8251416898347,None,1,0.7005925502162427,926.8251416898347,None,927.5587731221967,None,927.5587731221967,None,927.5587731221967,None,927.5587731221967,None,927.5587731221967,None,927.5587731221967,None,927.5587731221967,None,931.5603932116865,None,931.5603932116865,None,931.5603932116865,None,931.5603932116865,None,931.5603932116865,None,931.5603932116865,None,931.5603932116865,None,932.5441180799826,None,,,,,,,,,,,,,,,,,,,,,,,,,,,,,,24269,2020_Feb_28_1008,Mmi_3levels,3.1.5,60.00011519463731,
,,,3,1,3.7,,,,,,,,,0,2,2,2,0,7,7,0,,,,,,,,,,,,,,,,,,,,,,,,,,,,,,,,,,,,,,,,,,,,,,,,,,,,,,,,,,,True,True,True,0.89,-0.10999999999999999,-0.8899999999999999,2.4299999999999997,3.7,1.2700000000000005,0.6350000000000002,gamble,win,3.7,-4.370000000000007,934.561569800484,None,934.561569800484,None,934.561569800484,None,934.561569800484,None,934.561569800484,None,934.561569800484,None,934.561569800484,None,1,2.2344672359831748,934.561569800484,None,936.829122956573,None,936.829122956573,None,936.829122956573,None,936.829122956573,None,936.829122956573,None,936.829122956573,None,936.829122956573,None,940.8306848085995,None,940.8306848085995,None,940.8306848085995,None,940.8306848085995,None,940.8306848085995,None,940.8306848085995,None,940.8306848085995,None,950.317716092999,None,941.8144029571849,None,942.8147984599709,None,0.84,7.502855875711248,945.8159622493258,None,None,945.8159622493258,None,,,,,,,,,,,,,,,,,,,24269,2020_Feb_28_1008,Mmi_3levels,3.1.5,60.00011519463731,
,,,3,1,6.5,,,,,,,,,0,2,2,2,0,8,8,13,,,,,,,,,,,,,,,,,,,,,,,,,,,,,,,,,,,,,,,,,,,,,,,,,,,,,,,,,,,True,True,False,0.84,-0.16000000000000003,-1.0499999999999998,3.29,6.5,3.21,1.605,gamble,win,6.5,2.129999999999993,952.3352276508958,None,952.3352276508958,None,952.3352276508958,None,952.3352276508958,None,952.3352276508958,None,952.3352276508958,None,952.3352276508958,None,1,0.9505919102375628,952.3352276508958,None,953.318909961039,None,953.318909961039,None,953.318909961039,None,953.318909961039,None,953.318909961039,None,953.318909961039,None,953.318909961039,None,957.3204676532478,None,957.3204676532478,None,957.3204676532478,None,957.3204676532478,None,957.3204676532478,None,957.3204676532478,None,957.3204676532478,None,958.3041858018332,None,,,,,,,,,,,,,,,,,,,,,,,,,,,,,,24269,2020_Feb_28_1008,Mmi_3levels,3.1.5,60.00011519463731,
,,,3,1,9.5,,,,,,,,,0,2,2,2,0,9,9,1,,,,,,,,,,,,,,,,,,,,,,,,,,,,,,,,,,,,,,,,,,,,,,,,,,,,,,,,,,,True,True,False,0.84,-0.16000000000000003,-1.21,3.45,9.5,6.05,3.025,gamble,win,9.5,11.629999999999992,960.3216471219203,None,960.3216471219203,None,960.3216471219203,None,960.3216471219203,None,960.3216471219203,None,960.3216471219203,None,960.3216471219203,None,1,1.0339882808330003,960.3216471219203,None,961.3887283625445,None,961.3887283625445,None,961.3887283625445,None,961.3887283625445,None,961.3887283625445,None,961.3887283625445,None,961.3887283625445,None,965.3736259798025,None,965.3736259798025,None,965.3736259798025,None,965.3736259798025,None,965.3736259798025,None,965.3736259798025,None,965.3736259798025,None,966.3740163628099,None,,,,,,,,,,,,,,,,,,,,,,,,,,,,,,24269,2020_Feb_28_1008,Mmi_3levels,3.1.5,60.00011519463731,
,,,3,1,7.3,,,,,,,,,0,2,2,2,0,10,10,17,,,,,,,,,,,,,,,,,,,,,,,,,,,,,,,,,,,,,,,,,,,,,,,,,,,,,,,,,,,True,True,True,0.84,-0.16000000000000003,-1.37,3.6100000000000003,7.3,3.6899999999999995,1.8449999999999998,gamble,win,7.3,18.929999999999993,968.3914738430612,None,968.3914738430612,None,968.3914738430612,None,968.3914738430612,None,968.3914738430612,None,968.3914738430612,None,968.3914738430612,None,None,,968.3914738430612,None,971.3926497918801,None,971.3926497918801,None,971.3926497918801,None,971.3926497918801,None,971.3926497918801,None,971.3926497918801,None,971.3926497918801,None,975.3942151637602,None,975.3942151637602,None,975.3942151637602,None,975.3942151637602,None,975.3942151637602,None,975.3942151637602,None,975.3942151637602,None,984.8812931661232,None,976.3779038736247,None,977.3783243353246,None,0.91,7.5028331567009445,980.3794836448724,None,None,980.3794836448724,None,,,,,,,,,,,,,,,,,,,24269,2020_Feb_28_1008,Mmi_3levels,3.1.5,60.00011519463731,
,,,3,1,10.1,,,,,,,,,0,2,2,2,0,11,11,15,,,,,,,,,,,,,,,,,,,,,,,,,,,,,,,,,,,,,,,,,,,,,,,,,,,,,,,,,,,True,True,True,0.91,-0.08999999999999997,-1.46,2.7199999999999998,10.1,7.38,3.69,gamble,win,10.1,29.029999999999994,986.8987368869712,None,986.8987368869712,None,986.8987368869712,None,986.8987368869712,None,986.8987368869712,None,986.8987368869712,None,986.8987368869712,None,1,0.7171889479359379,986.8987368869712,None,987.6490047153202,None,987.6490047153202,None,987.6490047153202,None,987.6490047153202,None,987.6490047153202,None,987.6490047153202,None,987.6490047153202,None,991.6506340844062,None,991.6506340844062,None,991.6506340844062,None,991.6506340844062,None,991.6506340844062,None,991.6506340844062,None,991.6506340844062,None,992.6342930355677,None,,,,,,,,,,,,,,,,,,,,,,,,,,,,,,24269,2020_Feb_28_1008,Mmi_3levels,3.1.5,60.00011519463731,
,,,3,1,1.5,,,,,,,,,0,2,2,2,0,12,12,10,,,,,,,,,,,,,,,,,,,,,,,,,,,,,,,,,,,,,,,,,,,,,,,,,,,,,,,,,,,True,False,True,0.91,-0.08999999999999997,-1.5499999999999998,-0.44416666666666654,1.5,1.0558333333333334,1.2779166666666666,gamble,lose,1.0558333333333334,30.085833333333326,994.6517789945792,None,994.6517789945792,None,994.6517789945792,None,994.6517789945792,None,994.6517789945792,None,994.6517789945792,None,994.6517789945792,None,1,1.0671375581732718,994.6517789945792,None,995.7521419867844,None,995.7521419867844,None,995.7521419867844,None,995.7521419867844,None,995.7521419867844,None,995.7521419867844,None,995.7521419867844,None,999.737074802506,None,999.737074802506,None,999.737074802506,None,999.737074802506,None,999.737074802506,None,999.737074802506,None,999.737074802506,None,1009.2407911207702,None,1000.737461345685,None,1001.7378555685282,None,0.87,7.502888834278565,1004.7390155180474,None,None,1004.7390155180474,None,,,,,,,,,,,,,,,,,,,24269,2020_Feb_28_1008,Mmi_3levels,3.1.5,60.00011519463731,
,,,3,1,8.3,,,,,,,,,0,2,2,2,0,13,13,5,,,,,,,,,,,,,,,,,,,,,,,,,,,,,,,,,,,,,,,,,,,,,,,,,,,,,,,,,,,True,False,True,0.87,-0.13,-1.6799999999999997,-0.595,8.3,7.705000000000001,3.8525000000000005,gamble,lose,7.705000000000001,37.790833333333325,1011.258243481243,None,1011.258243481243,None,1011.258243481243,None,1011.258243481243,None,1011.258243481243,None,1011.258243481243,None,1011.258243481243,None,1,0.8172441135320696,1011.258243481243,None,1012.1085226370997,None,1012.1085226370997,None,1012.1085226370997,None,1012.1085226370997,None,1012.1085226370997,None,1012.1085226370997,None,1012.1085226370997,None,1016.1101472063965,None,1016.1101472063965,None,1016.1101472063965,None,1016.1101472063965,None,1016.1101472063965,None,1016.1101472063965,None,1016.1101472063965,None,1017.0938851941173,None,,,,,,,,,,,,,,,,,,,,,,,,,,,,,,24269,2020_Feb_28_1008,Mmi_3levels,3.1.5,60.00011519463731,
,,,3,1,1.7,,,,,,,,,0,2,2,2,0,14,14,26,,,,,,,,,,,,,,,,,,,,,,,,,,,,,,,,,,,,,,,,,,,,,,,,,,,,,,,,,,,True,False,True,0.87,-0.13,-1.8099999999999996,-0.6058333333333333,1.7,1.0941666666666667,1.3970833333333332,gamble,lose,1.0941666666666667,38.88499999999999,1019.1113570737434,None,1019.1113570737434,None,1019.1113570737434,None,1019.1113570737434,None,1019.1113570737434,None,1019.1113570737434,None,1019.1113570737434,None,1,1.1838435191311873,1019.1113570737434,None,1020.3284746647842,None,1020.3284746647842,None,1020.3284746647842,None,1020.3284746647842,None,1020.3284746647842,None,1020.3284746647842,None,1020.3284746647842,None,1024.3300352368678,None,1024.3300352368678,None,1024.3300352368678,None,1024.3300352368678,None,1024.3300352368678,None,1024.3300352368678,None,1024.3300352368678,None,1025.313690348201,None,,,,,,,,,,,,,,,,,,,,,,,,,,,,,,24269,2020_Feb_28_1008,Mmi_3levels,3.1.5,60.00011519463731,
,,,3,1,11.3,,,,,,,,,0,2,2,2,0,15,15,8,,,,,,,,,,,,,,,,,,,,,,,,,,,,,,,,,,,,,,,,,,,,,,,,,,,,,,,,,,,True,True,False,0.87,-0.13,-1.9399999999999995,3.76,11.3,7.540000000000001,3.7700000000000005,gamble,win,11.3,50.18499999999999,1027.3312390244828,None,1027.3312390244828,None,1027.3312390244828,None,1027.3312390244828,None,1027.3312390244828,None,1027.3312390244828,None,1027.3312390244828,None,1,1.1339839290230884,1027.3312390244828,None,1028.4983354324431,None,1028.4983354324431,None,1028.4983354324431,None,1028.4983354324431,None,1028.4983354324431,None,1028.4983354324431,None,1028.4983354324431,None,1032.4831783320842,None,1032.4831783320842,None,1032.4831783320842,None,1032.4831783320842,None,1032.4831783320842,None,1032.4831783320842,None,1032.4831783320842,None,1041.9869439282047,None,1033.4836109532553,None,1034.4839978164164,None,0.86,7.5028523558721645,1037.4851561660034,None,None,1037.4851561660034,None,,,,,,,,,,,,,,,,,,,24269,2020_Feb_28_1008,Mmi_3levels,3.1.5,60.00011519463731,
,,,3,1,11.5,,,,,,,,,0,2,2,2,0,16,16,24,,,,,,,,,,,,,,,,,,,,,,,,,,,,,,,,,,,,,,,,,,,,,,,,,,,,,,,,,,,True,False,True,0.86,-0.14,-2.0799999999999996,-0.6633333333333333,11.5,10.836666666666666,5.418333333333333,gamble,lose,10.836666666666666,61.021666666666654,1044.0044215675734,None,1044.0044215675734,None,1044.0044215675734,None,1044.0044215675734,None,1044.0044215675734,None,1044.0044215675734,None,1044.0044215675734,None,1,0.9005748869749368,1044.0044215675734,None,1044.9380990139325,None,1044.9380990139325,None,1044.9380990139325,None,1044.9380990139325,None,1044.9380990139325,None,1044.9380990139325,None,1044.9380990139325,None,1048.9396650257768,None,1048.9396650257768,None,1048.9396650257768,None,1048.9396650257768,None,1048.9396650257768,None,1048.9396650257768,None,1048.9396650257768,None,1049.9233754946981,None,,,,,,,,,,,,,,,,,,,,,,,,,,,,,,24269,2020_Feb_28_1008,Mmi_3levels,3.1.5,60.00011519463731,
,,,3,1,9.1,,,,,,,,,0,2,2,2,0,17,17,20,,,,,,,,,,,,,,,,,,,,,,,,,,,,,,,,,,,,,,,,,,,,,,,,,,,,,,,,,,,True,True,True,0.86,-0.14,-2.2199999999999998,4.18,9.1,4.92,2.46,gamble,win,9.1,70.12166666666666,1051.9408073760642,None,1051.9408073760642,None,1051.9408073760642,None,1051.9408073760642,None,1051.9408073760642,None,1051.9408073760642,None,1051.9408073760642,None,1,1.5008793217275525,1051.9408073760642,None,1053.4747163003485,None,1053.4747163003485,None,1053.4747163003485,None,1053.4747163003485,None,1053.4747163003485,None,1053.4747163003485,None,1053.4747163003485,None,1057.4596583956663,None,1057.4596583956663,None,1057.4596583956663,None,1057.4596583956663,None,1057.4596583956663,None,1057.4596583956663,None,1057.4596583956663,None,1066.9633503949954,None,1058.4601070161443,None,1059.4604446014564,None,0.86,7.502811397651385,1062.4616045509756,None,None,1062.4616045509756,None,,,,,,,,,,,,,,,,,,,24269,2020_Feb_28_1008,Mmi_3levels,3.1.5,60.00011519463731,
,,,3,1,0.1,,,,,,,,,0,2,2,2,0,18,18,4,,,,,,,,,,,,,,,,,,,,,,,,,,,,,,,,,,,,,,,,,,,,,,,,,,,,,,,,,,,True,True,True,0.86,-0.14,-2.36,4.32,0.1,-4.220000000000001,-2.0600000000000005,certain,certain,-2.0600000000000005,68.06166666666665,1068.9808017955074,None,1068.9808017955074,None,1068.9808017955074,None,1068.9808017955074,None,1068.9808017955074,None,1068.9808017955074,None,1068.9808017955074,None,3,1.4008823935946566,1068.9808017955074,None,1070.4147579497367,None,1070.4147579497367,None,1070.4147579497367,None,1070.4147579497367,None,1070.4147579497367,None,1070.4147579497367,None,1070.4147579497367,None,1074.416301882542,None,1074.416301882542,None,1074.416301882542,None,1074.416301882542,None,1074.416301882542,None,1074.416301882542,None,1074.416301882542,None,1075.4000683490303,None,,,,,,,,,,,,,,,,,,,,,,,,,,,,,,24269,2020_Feb_28_1008,Mmi_3levels,3.1.5,60.00011519463731,
,,,3,1,9.7,,,,,,,,,0,2,2,2,0,19,19,25,,,,,,,,,,,,,,,,,,,,,,,,,,,,,,,,,,,,,,,,,,,,,,,,,,,,,,,,,,,True,True,True,0.86,-0.14,-2.5,4.46,9.7,5.239999999999999,2.6199999999999997,gamble,win,9.7,77.76166666666666,1077.4175600677845,None,1077.4175600677845,None,1077.4175600677845,None,1077.4175600677845,None,1077.4175600677845,None,1077.4175600677845,None,1077.4175600677845,None,1,1.0174126822021208,1077.4175600677845,None,1078.4678468393104,None,1078.4678468393104,None,1078.4678468393104,None,1078.4678468393104,None,1078.4678468393104,None,1078.4678468393104,None,1078.4678468393104,None,1082.4527962943102,None,1082.4527962943102,None,1082.4527962943102,None,1082.4527962943102,None,1082.4527962943102,None,1082.4527962943102,None,1082.4527962943102,None,1091.9564738942572,None,1083.4531764377607,None,1084.453564580872,None,0.84,7.502848836018529,1087.454720050584,None,None,1087.454720050584,None,,,,,,,,,,,,,,,,,,,24269,2020_Feb_28_1008,Mmi_3levels,3.1.5,60.00011519463731,
,,,3,1,4.9,,,,,,,,,0,2,2,2,0,20,20,9,,,,,,,,,,,,,,,,,,,,,,,,,,,,,,,,,,,,,,,,,,,,,,,,,,,,,,,,,,,True,False,False,0.84,-0.16000000000000003,-2.66,-0.7816666666666667,4.9,4.118333333333334,2.059166666666667,gamble,lose,4.118333333333334,81.88,1093.9739624131544,None,1093.9739624131544,None,1093.9739624131544,None,1093.9739624131544,None,1093.9739624131544,None,1093.9739624131544,None,1093.9739624131544,None,1,0.6671152871422237,1093.9739624131544,None,1094.6741751399022,None,1094.6741751399022,None,1094.6741751399022,None,1094.6741751399022,None,1094.6741751399022,None,1094.6741751399022,None,1094.6741751399022,None,1098.6590855565955,None,1098.6590855565955,None,1098.6590855565955,None,1098.6590855565955,None,1098.6590855565955,None,1098.6590855565955,None,1098.6590855565955,None,1099.6594842592458,None,,,,,,,,,,,,,,,,,,,,,,,,,,,,,,24269,2020_Feb_28_1008,Mmi_3levels,3.1.5,60.00011519463731,
,,,3,1,13.9,,,,,,,,,0,2,2,2,0,21,21,14,,,,,,,,,,,,,,,,,,,,,,,,,,,,,,,,,,,,,,,,,,,,,,,,,,,,,,,,,,,True,True,False,0.84,-0.16000000000000003,-2.8200000000000003,5.0600000000000005,13.9,8.84,4.42,gamble,win,13.9,95.78,1101.6769257401902,None,1101.6769257401902,None,1101.6769257401902,None,1101.6769257401902,None,1101.6769257401902,None,1101.6769257401902,None,1101.6769257401902,None,1,1.5508832255654852,1101.6769257401902,None,1103.2609236846038,None,1103.2609236846038,None,1103.2609236846038,None,1103.2609236846038,None,1103.2609236846038,None,1103.2609236846038,None,1103.2609236846038,None,1107.262498336073,None,1107.262498336073,None,1107.262498336073,None,1107.262498336073,None,1107.262498336073,None,1107.262498336073,None,1107.262498336073,None,1108.2462046451765,None,,,,,,,,,,,,,,,,,,,,,,,,,,,,,,24269,2020_Feb_28_1008,Mmi_3levels,3.1.5,60.00011519463731,
,,,3,1,11.1,,,,,,,,,0,2,2,2,0,22,22,18,,,,,,,,,,,,,,,,,,,,,,,,,,,,,,,,,,,,,,,,,,,,,,,,,,,,,,,,,,,True,False,True,0.84,-0.16000000000000003,-2.9800000000000004,-0.8083333333333335,11.1,10.291666666666666,5.145833333333333,gamble,lose,10.291666666666666,106.07166666666667,1110.263666925217,None,1110.263666925217,None,1110.263666925217,None,1110.263666925217,None,1110.263666925217,None,1110.263666925217,None,1110.263666925217,None,1,0.7505321368444129,1110.263666925217,None,1111.047329780209,None,1111.047329780209,None,1111.047329780209,None,1111.047329780209,None,1111.047329780209,None,1111.047329780209,None,1111.047329780209,None,1115.048870193168,None,1115.048870193168,None,1115.048870193168,None,1115.048870193168,None,1115.048870193168,None,1115.048870193168,None,1115.048870193168,None,1124.5359197167782,None,1116.0325864218394,None,1117.0329499260188,None,0.86,7.502873474943044,1120.0341700329227,None,None,1120.0341700329227,None,,,,,,,,,,,,,,,,,,,24269,2020_Feb_28_1008,Mmi_3levels,3.1.5,60.00011519463731,
,,,3,1,0.5,,,,,,,,,0,2,2,2,0,23,23,22,,,,,,,,,,,,,,,,,,,,,,,,,,,,,,,,,,,,,,,,,,,,,,,,,,,,,,,,,,,True,False,True,0.86,-0.14,-3.1200000000000006,-0.7500000000000001,0.5,-0.2500000000000001,0.12499999999999994,gamble,lose,-0.2500000000000001,105.82166666666667,1126.5533711172902,None,1126.5533711172902,None,1126.5533711172902,None,1126.5533711172902,None,1126.5533711172902,None,1126.5533711172902,None,1126.5533711172902,None,1,0.650511849722534,1126.5533711172902,None,1127.237005365525,None,1127.237005365525,None,1127.237005365525,None,1127.237005365525,None,1127.237005365525,None,1127.237005365525,None,1127.237005365525,None,1131.2384840211744,None,1131.2384840211744,None,1131.2384840211744,None,1131.2384840211744,None,1131.2384840211744,None,1131.2384840211744,None,1131.2384840211744,None,1132.2222578473375,None,,,,,,,,,,,,,,,,,,,,,,,,,,,,,,24269,2020_Feb_28_1008,Mmi_3levels,3.1.5,60.00011519463731,
,,,3,1,9.3,,,,,,,,,0,2,2,2,0,24,24,6,,,,,,,,,,,,,,,,,,,,,,,,,,,,,,,,,,,,,,,,,,,,,,,,,,,,,,,,,,,True,True,False,0.86,-0.14,-3.2600000000000007,5.220000000000001,9.3,4.08,2.04,gamble,win,9.3,115.12166666666667,1134.2397182074637,None,1134.2397182074637,None,1134.2397182074637,None,1134.2397182074637,None,1134.2397182074637,None,1134.2397182074637,None,1134.2397182074637,None,1,0.883900092667318,1134.2397182074637,None,1135.1567087000367,None,1135.1567087000367,None,1135.1567087000367,None,1135.1567087000367,None,1135.1567087000367,None,1135.1567087000367,None,1135.1567087000367,None,1139.1416312762085,None,1139.1416312762085,None,1139.1416312762085,None,1139.1416312762085,None,1139.1416312762085,None,1139.1416312762085,None,1139.1416312762085,None,1148.6453488744155,None,1140.142026139023,None,1141.142415562077,None,0.86,7.5027614798236755,1144.1435787114533,None,None,1144.1435787114533,None,,,,,,,,,,,,,,,,,,,24269,2020_Feb_28_1008,Mmi_3levels,3.1.5,60.00011519463731,
,,,3,1,7.9,,,,,,,,,0,2,2,2,0,25,25,16,,,,,,,,,,,,,,,,,,,,,,,,,,,,,,,,,,,,,,,,,,,,,,,,,,,,,,,,,,,True,False,False,0.86,-0.14,-3.400000000000001,-0.7733333333333334,7.9,7.126666666666667,3.5633333333333335,gamble,lose,7.126666666666667,122.24833333333333,1150.6627817157423,None,1150.6627817157423,None,1150.6627817157423,None,1150.6627817157423,None,1150.6627817157423,None,1150.6627817157423,None,1150.6627817157423,None,1,0.8839596100806375,1150.6627817157423,None,1151.579838445432,None,1151.579838445432,None,1151.579838445432,None,1151.579838445432,None,1151.579838445432,None,1151.579838445432,None,1151.579838445432,None,1155.581399337505,None,1155.581399337505,None,1155.581399337505,None,1155.581399337505,None,1155.581399337505,None,1155.581399337505,None,1155.581399337505,None,1156.5651206859475,None,,,,,,,,,,,,,,,,,,,,,,,,,,,,,,24269,2020_Feb_28_1008,Mmi_3levels,3.1.5,60.00011519463731,
,,,3,1,2.7,,,,,,,,,0,2,2,2,0,26,26,23,,,,,,,,,,,,,,,,,,,,,,,,,,,,,,,,,,,,,,,,,,,,,,,,,,,,,,,,,,,True,False,False,0.86,-0.14,-3.540000000000001,-0.7850000000000001,2.7,1.915,0.9575,gamble,lose,1.915,124.16333333333334,1158.582606644959,None,1158.582606644959,None,1158.582606644959,None,1158.582606644959,None,1158.582606644959,None,1158.582606644959,None,1158.582606644959,None,1,1.1006487397680758,1158.582606644959,None,1159.716314745987,None,1159.716314745987,None,1159.716314745987,None,1159.716314745987,None,1159.716314745987,None,1159.716314745987,None,1159.716314745987,None,1163.7179165962734,None,1163.7179165962734,None,1163.7179165962734,None,1163.7179165962734,None,1163.7179165962734,None,1163.7179165962734,None,1163.7179165962734,None,1173.204964199962,None,1164.7016353848303,None,1165.7020292876841,None,0.87,7.5027522002201295,1168.7031924370676,None,None,1168.7031924370676,None,,,,,,,,,,,,,,,,,,,24269,2020_Feb_28_1008,Mmi_3levels,3.1.5,60.00011519463731,
,,,,,,,,,,,,,,,,,,,,,,,,,,,,,,0,0,0,0,,,,,,,,,,,,,,,,,,,,,,,,,,,,,,,,,,,,,,,,,,,,,,,,,,,,,,,,,,,,,,,,,,,,,,,,,,,,,,,,,,,,,,,,,,,,,,,,,,,,,,,,,,,,,,,,,,,,,,,,1175.2057408061592,None,4,25.09330441939528,1175.2057408061592,None,124.16333333333334,4,1200.3322217017121,None,1200.3322217017121,None,1200.3322217017121,None,4,18.057266627751233,1200.3322217017121,None,24269,2020_Feb_28_1008,Mmi_3levels,3.1.5,60.00011519463731,
