currSlide,currImage,currText,blockNum,targetHappiness,highAmount,instructionLoop1.thisRepN,instructionLoop1.thisTrialN,instructionLoop1.thisN,instructionLoop1.thisIndex,instructionLoop2.thisRepN,instructionLoop2.thisTrialN,instructionLoop2.thisN,instructionLoop2.thisIndex,blockLoop.thisRepN,blockLoop.thisTrialN,blockLoop.thisN,blockLoop.thisIndex,trialLoop.thisRepN,trialLoop.thisTrialN,trialLoop.thisN,trialLoop.thisIndex,doRatingLoop.thisRepN,doRatingLoop.thisTrialN,doRatingLoop.thisN,doRatingLoop.thisIndex,trialHappyLoop.thisRepN,trialHappyLoop.thisTrialN,trialHappyLoop.thisN,trialHappyLoop.thisIndex,logWinningsLoop.thisRepN,logWinningsLoop.thisTrialN,logWinningsLoop.thisN,logWinningsLoop.thisIndex,instrImage.started,instrImage.stopped,instrText.started,instrText.stopped,instrContinueText.started,instrContinueText.stopped,instrKeyResp.keys,instrKeyResp.rt,instrKeyResp.started,instrKeyResp.stopped,lifeHappyText.started,lifeHappyText.stopped,lifeHappySlider.response,lifeHappySlider.rt,lifeHappySlider.started,lifeHappySlider.stopped,lifeHappyResp.keys,lifeHappyResp.started,lifeHappyResp.stopped,instrImage_2.started,instrImage_2.stopped,instrText_2.started,instrText_2.stopped,instrContinueText_2.started,instrContinueText_2.stopped,instrKeyResp_2.keys,instrKeyResp_2.rt,instrKeyResp_2.started,instrKeyResp_2.stopped,localizing.started,localizing.stopped,start_exp.keys,start_exp.rt,start_exp.started,start_exp.stopped,blockHappyText.started,blockHappyText.stopped,blockHappySlider.response,blockHappySlider.rt,blockHappySlider.started,blockHappySlider.stopped,blockHappyResp.keys,blockHappyResp.started,blockHappyResp.stopped,blankText.started,blankText.stopped,isHappyBlock,isCongruent,isWinOnTop,lastHappyRating,diff,sumDiff,RPE,winAmount,loseAmount,certainAmount,choice,outcome,outcomeAmount,currentWinnings,fixCross.started,fixCross.stopped,certainBox.started,certainBox.stopped,outcome1Box.started,outcome1Box.stopped,outcome2Box.started,outcome2Box.stopped,certainText.started,certainText.stopped,outcome1Text.started,outcome1Text.stopped,outcome2Text.started,outcome2Text.stopped,choiceKey.keys,choiceKey.rt,choiceKey.started,choiceKey.stopped,fixCross_2.started,fixCross_2.stopped,certainBox_2.started,certainBox_2.stopped,outcome1Box_2.started,outcome1Box_2.stopped,outcome2Box_2.started,outcome2Box_2.stopped,certainText_2.started,certainText_2.stopped,outcome1Text_2.started,outcome1Text_2.stopped,outcome2Text_2.started,outcome2Text_2.stopped,fixCross_3.started,fixCross_3.stopped,certainBox_3.started,certainBox_3.stopped,outcome1Box_3.started,outcome1Box_3.stopped,outcome2Box_3.started,outcome2Box_3.stopped,certainText_3.started,certainText_3.stopped,outcome1Text_3.started,outcome1Text_3.stopped,outcome2Text_3.started,outcome2Text_3.stopped,fixCross_ITI.started,fixCross_ITI.stopped,fixCross_ISI.started,fixCross_ISI.stopped,happyText.started,happyText.stopped,happySlider.response,happySlider.rt,happySlider.started,happySlider.stopped,happyResp.keys,happyResp.started,happyResp.stopped,endOfBlockText.started,endOfBlockText.stopped,restKeyResp.keys,restKeyResp.rt,restKeyResp.started,restKeyResp.stopped,finalWinnings,cashBonus,goodbyeText.started,goodbyeText.stopped,finalWinningsText.started,finalWinningsText.stopped,spaceToContinue.started,spaceToContinue.stopped,goodbyeKeyResp_2.keys,goodbyeKeyResp_2.rt,goodbyeKeyResp_2.started,goodbyeKeyResp_2.stopped,participant,date,expName,psychopyVersion,frameRate,
1,black.png,"Welcome! You are about to play our gambling task.
This task has 3 blocks and takes about 15 minutes.",,,,0,0,0,0,,,,,,,,,,,,,,,,,,,,,,,,,12.494975610814436,None,12.494975610814436,None,12.494975610814436,None,4,7.287600043004204,12.494975610814436,None,,,,,,,,,,,,,,,,,,,,,,,,,,,,,,,,,,,,,,,,,,,,,,,,,,,,,,,,,,,,,,,,,,,,,,,,,,,,,,,,,,,,,,,,,,,,,,,,,,,,,,,,,,,,,,,,,,,,,,,,,,,,,,,,23540,2019_Oct_23_1716,Mmi_3levels,3.1.5,59.977814114431204,
2,black.png,"In this game, you may win or lose points. Your goal is to get as many points as possible. These points will be converted to a cash bonus at the end.
Sometimes we will ask you to rate your mood.",,,,0,1,1,1,,,,,,,,,,,,,,,,,,,,,,,,,19.832306611253443,None,19.832306611253443,None,19.832306611253443,None,4,3.835043434632098,19.832306611253443,None,,,,,,,,,,,,,,,,,,,,,,,,,,,,,,,,,,,,,,,,,,,,,,,,,,,,,,,,,,,,,,,,,,,,,,,,,,,,,,,,,,,,,,,,,,,,,,,,,,,,,,,,,,,,,,,,,,,,,,,,,,,,,,,,23540,2019_Oct_23_1716,Mmi_3levels,3.1.5,59.977814114431204,
3,black.png,"On the next screen, please rate how you feel about your life these days. Use the LEFT (green) and RIGHT (blue) buttons to move the slider (you can press and hold them to slide gradually) and the TOP (red) button to lock in your response.
Make your rating as accurately and quickly as you can!",,,,0,2,2,2,,,,,,,,,,,,,,,,,,,,,,,,,23.71718819796297,None,23.71718819796297,None,23.71718819796297,None,4,31.879105235064344,23.71718819796297,None,,,,,,,,,,,,,,,,,,,,,,,,,,,,,,,,,,,,,,,,,,,,,,,,,,,,,,,,,,,,,,,,,,,,,,,,,,,,,,,,,,,,,,,,,,,,,,,,,,,,,,,,,,,,,,,,,,,,,,,,,,,,,,,,23540,2019_Oct_23_1716,Mmi_3levels,3.1.5,59.977814114431204,
,,,,,,,,,,,,,,,,,,,,,,,,,,,,,,,,,,,,,,,,,,,,55.61276557074234,None,0.66,10.502924653999798,59.614290934594464,None,None,59.614290934594464,None,,,,,,,,,,,,,,,,,,,,,,,,,,,,,,,,,,,,,,,,,,,,,,,,,,,,,,,,,,,,,,,,,,,,,,,,,,,,,,,,,,,,,,,,,,,,,,,,,,,,,,,,,,,,,,,,,,,,,,,23540,2019_Oct_23_1716,Mmi_3levels,3.1.5,59.977814114431204,
4,black.png,"In this game you can win money by earning points according to your choices. You will decide whether to gamble a number of points or stick with a guaranteed number of points. 
Make your choice by pressing the left or right arrow key once. An example of one trial is shown on the next screen.",,,,,,,,0,0,0,0,,,,,,,,,,,,,,,,,,,,,,,,,,,,,,,,,,,,,,,,66.16689950837463,None,66.16689950837463,None,66.16689950837463,None,4,3.0513526364738937,66.16689950837463,None,,,,,,,,,,,,,,,,,,,,,,,,,,,,,,,,,,,,,,,,,,,,,,,,,,,,,,,,,,,,,,,,,,,,,,,,,,,,,,,,,,,,,,,,,,,,,,,,,,,,,,,,,,,,,23540,2019_Oct_23_1716,Mmi_3levels,3.1.5,59.977814114431204,
5,example_start.png,"The GAMBLING OPTION will be shown on the RIGHT SIDE. 
Select this option using the RIGHT (blue) button on your keypad.",,,,,,,,0,1,1,1,,,,,,,,,,,,,,,,,,,,,,,,,,,,,,,,,,,,,,,,69.28470770738932,None,69.28470770738932,None,69.28470770738932,None,4,1.9843175828682433,69.28470770738932,None,,,,,,,,,,,,,,,,,,,,,,,,,,,,,,,,,,,,,,,,,,,,,,,,,,,,,,,,,,,,,,,,,,,,,,,,,,,,,,,,,,,,,,,,,,,,,,,,,,,,,,,,,,,,,23540,2019_Oct_23_1716,Mmi_3levels,3.1.5,59.977814114431204,
6,example_gamble.png,"Once you select the gambling choice, the choice you made will remain on the screen.",,,,,,,,0,2,2,2,,,,,,,,,,,,,,,,,,,,,,,,,,,,,,,,,,,,,,,,71.30218203506956,None,71.30218203506956,None,71.30218203506956,None,4,1.3673771805333672,71.30218203506956,None,,,,,,,,,,,,,,,,,,,,,,,,,,,,,,,,,,,,,,,,,,,,,,,,,,,,,,,,,,,,,,,,,,,,,,,,,,,,,,,,,,,,,,,,,,,,,,,,,,,,,,,,,,,,,23540,2019_Oct_23_1716,Mmi_3levels,3.1.5,59.977814114431204,
7,example_win.png,"The outcome you received will then be shown on the screen. In this example , you WON 10 points.",,,,,,,,0,3,3,3,,,,,,,,,,,,,,,,,,,,,,,,,,,,,,,,,,,,,,,,72.7027150004651,None,72.7027150004651,None,72.7027150004651,None,4,0.8671995893964777,72.7027150004651,None,,,,,,,,,,,,,,,,,,,,,,,,,,,,,,,,,,,,,,,,,,,,,,,,,,,,,,,,,,,,,,,,,,,,,,,,,,,,,,,,,,,,,,,,,,,,,,,,,,,,,,,,,,,,,23540,2019_Oct_23_1716,Mmi_3levels,3.1.5,59.977814114431204,
8,example_start.png,"The GUARANTEED OPTION will be shown on the LEFT SIDE. You are 100% guaranteed to gain or lose this amount. In this example, you have a 100% chance of winning 1 point. Select this option using the LEFT (green) button on your keyboard.",,,,,,,,0,4,4,4,,,,,,,,,,,,,,,,,,,,,,,,,,,,,,,,,,,,,,,,73.61968650524796,None,73.61968650524796,None,73.61968650524796,None,4,1.4841758299444336,73.61968650524796,None,,,,,,,,,,,,,,,,,,,,,,,,,,,,,,,,,,,,,,,,,,,,,,,,,,,,,,,,,,,,,,,,,,,,,,,,,,,,,,,,,,,,,,,,,,,,,,,,,,,,,,,,,,,,,23540,2019_Oct_23_1716,Mmi_3levels,3.1.5,59.977814114431204,
9,example_certain.png,"Once you select the guaranteed choice, your selection will remain on the screen.",,,,,,,,0,5,5,5,,,,,,,,,,,,,,,,,,,,,,,,,,,,,,,,,,,,,,,,75.13698548168395,None,75.13698548168395,None,75.13698548168395,None,4,1.2673402543769043,75.13698548168395,None,,,,,,,,,,,,,,,,,,,,,,,,,,,,,,,,,,,,,,,,,,,,,,,,,,,,,,,,,,,,,,,,,,,,,,,,,,,,,,,,,,,,,,,,,,,,,,,,,,,,,,,,,,,,,23540,2019_Oct_23_1716,Mmi_3levels,3.1.5,59.977814114431204,
10,black.png,"Please make your choices as fast as possible.
You will be given a break at the end of each block.
Let's play!",,,,,,,,0,6,6,6,,,,,,,,,,,,,,,,,,,,,,,,,,,,,,,,,,,,,,,,76.43740120493021,None,76.43740120493021,None,76.43740120493021,None,4,3.8683953697036486,76.43740120493021,None,,,,,,,,,,,,,,,,,,,,,,,,,,,,,,,,,,,,,,,,,,,,,,,,,,,,,,,,,,,,,,,,,,,,,,,,,,,,,,,,,,,,,,,,,,,,,,,,,,,,,,,,,,,,,23540,2019_Oct_23_1716,Mmi_3levels,3.1.5,59.977814114431204,
,,,,,,,,,,,,,,,,,,,,,,,,,,,,,,,,,,,,,,,,,,,,,,,,,,,,,,,,,,,,,,,80.32232502953411,None,space,25.359922512667254,80.32232502953411,None,,,,,,,,,,,,,,,,,,,,,,,,,,,,,,,,,,,,,,,,,,,,,,,,,,,,,,,,,,,,,,,,,,,,,,,,,,,,,,,,,,,,,,,,,,,,,,,,,,,,,,,23540,2019_Oct_23_1716,Mmi_3levels,3.1.5,59.977814114431204,
,,,1,1,11.3,,,,,,,,,0,0,0,0,0,0,0,10,,,,,,,,,,,,,,,,,,,,,,,,,,,,,,,,,,,,,,,,,,,,,,,,105.69877439718039,None,0.54,7.527662299100484,108.71658118826599,None,None,108.71658118826599,None,113.23497291015155,None,True,True,False,0.54,-0.45999999999999996,-0.45999999999999996,6.8999999999999995,11.3,4.400000000000001,2.2000000000000006,gamble,win,11.3,11.3,116.26950814615338,None,116.26950814615338,None,116.26950814615338,None,116.26950814615338,None,116.26950814615338,None,116.26950814615338,None,116.26950814615338,None,1,1.6507015969764325,116.26950814615338,None,117.95349416157114,None,117.95349416157114,None,117.95349416157114,None,117.95349416157114,None,117.95349416157114,None,117.95349416157114,None,117.95349416157114,None,121.93835315740944,None,121.93835315740944,None,121.93835315740944,None,121.93835315740944,None,121.93835315740944,None,121.93835315740944,None,121.93835315740944,None,122.93869490034922,None,,,,,,,,,,,,,,,,,,,,,,,,,,,,,,23540,2019_Oct_23_1716,Mmi_3levels,3.1.5,59.977814114431204,
,,,1,1,3.7,,,,,,,,,0,0,0,0,0,1,1,0,,,,,,,,,,,,,,,,,,,,,,,,,,,,,,,,,,,,,,,,,,,,,,,,,,,,,,,,,,,True,True,False,0.54,-0.45999999999999996,-0.9199999999999999,7.359999999999999,3.7,-3.6599999999999993,0.020000000000000462,certain,certain,0.020000000000000462,11.32,124.95618874705542,None,124.95618874705542,None,124.95618874705542,None,124.95618874705542,None,124.95618874705542,None,124.95618874705542,None,124.95618874705542,None,3,1.9676681740020285,124.95618874705542,None,126.95695702870216,None,126.95695702870216,None,126.95695702870216,None,126.95695702870216,None,126.95695702870216,None,126.95695702870216,None,126.95695702870216,None,130.94183170375982,None,130.94183170375982,None,130.94183170375982,None,130.94183170375982,None,130.94183170375982,None,130.94183170375982,None,130.94183170375982,None,131.9422121647658,None,,,,,,,,,,,,,,,,,,,,,,,,,,,,,,23540,2019_Oct_23_1716,Mmi_3levels,3.1.5,59.977814114431204,
,,,1,1,7.1,,,,,,,,,0,0,0,0,0,2,2,16,,,,,,,,,,,,,,,,,,,,,,,,,,,,,,,,,,,,,,,,,,,,,,,,,,,,,,,,,,,True,False,False,0.54,-0.45999999999999996,-1.38,-1.7249999999999999,7.1,5.375,2.6875,gamble,lose,5.375,16.695,133.95964905431902,None,133.95964905431902,None,133.95964905431902,None,133.95964905431902,None,133.95964905431902,None,133.95964905431902,None,133.95964905431902,None,1,1.3007577861717436,133.95964905431902,None,135.29350502822854,None,135.29350502822854,None,135.29350502822854,None,135.29350502822854,None,135.29350502822854,None,135.29350502822854,None,135.29350502822854,None,139.2783643440489,None,139.2783643440489,None,139.2783643440489,None,139.2783643440489,None,139.2783643440489,None,139.2783643440489,None,139.2783643440489,None,148.78203168097752,None,140.27875248467535,None,141.27913838540917,None,0.56,7.502838258315023,144.28028296827324,None,None,144.28028296827324,None,,,,,,,,,,,,,,,,,,,23540,2019_Oct_23_1716,Mmi_3levels,3.1.5,59.977814114431204,
,,,1,1,11.5,,,,,,,,,0,0,0,0,0,3,3,21,,,,,,,,,,,,,,,,,,,,,,,,,,,,,,,,,,,,,,,,,,,,,,,,,,,,,,,,,,,True,False,True,0.56,-0.43999999999999995,-1.8199999999999998,-1.6916666666666664,11.5,9.808333333333334,4.904166666666667,gamble,lose,9.808333333333334,26.503333333333334,150.79938089490315,None,150.79938089490315,None,150.79938089490315,None,150.79938089490315,None,150.79938089490315,None,150.79938089490315,None,150.79938089490315,None,1,1.1674527607574419,150.79938089490315,None,151.999931843402,None,151.999931843402,None,151.999931843402,None,151.999931843402,None,151.999931843402,None,151.999931843402,None,151.999931843402,None,156.00147544634456,None,156.00147544634456,None,156.00147544634456,None,156.00147544634456,None,156.00147544634456,None,156.00147544634456,None,156.00147544634456,None,156.98518665947995,None,,,,,,,,,,,,,,,,,,,,,,,,,,,,,,23540,2019_Oct_23_1716,Mmi_3levels,3.1.5,59.977814114431204,
,,,1,1,4.9,,,,,,,,,0,0,0,0,0,4,4,5,,,,,,,,,,,,,,,,,,,,,,,,,,,,,,,,,,,,,,,,,,,,,,,,,,,,,,,,,,,True,True,False,0.56,-0.43999999999999995,-2.26,8.419999999999998,4.9,-3.519999999999998,0.6900000000000013,certain,certain,0.6900000000000013,27.193333333333335,159.00258451098125,None,159.00258451098125,None,159.00258451098125,None,159.00258451098125,None,159.00258451098125,None,159.00258451098125,None,159.00258451098125,None,3,1.4175167575631349,159.00258451098125,None,160.45318473701627,None,160.45318473701627,None,160.45318473701627,None,160.45318473701627,None,160.45318473701627,None,160.45318473701627,None,160.45318473701627,None,164.43805525228163,None,164.43805525228163,None,164.43805525228163,None,164.43805525228163,None,164.43805525228163,None,164.43805525228163,None,164.43805525228163,None,173.94171458960773,None,165.43844115301545,None,166.43883217349503,None,0.54,7.502786100918456,169.43990348001535,None,None,169.43990348001535,None,,,,,,,,,,,,,,,,,,,23540,2019_Oct_23_1716,Mmi_3levels,3.1.5,59.977814114431204,
,,,1,1,4.1,,,,,,,,,0,0,0,0,0,5,5,23,,,,,,,,,,,,,,,,,,,,,,,,,,,,,,,,,,,,,,,,,,,,,,,,,,,,,,,,,,,True,False,True,0.54,-0.45999999999999996,-2.7199999999999998,-1.8366666666666664,4.1,2.263333333333333,1.1316666666666666,gamble,lose,2.263333333333333,29.456666666666667,175.9591556389496,None,175.9591556389496,None,175.9591556389496,None,175.9591556389496,None,175.9591556389496,None,175.9591556389496,None,175.9591556389496,None,1,1.767605201148399,175.9591556389496,None,177.75987854686173,None,177.75987854686173,None,177.75987854686173,None,177.75987854686173,None,177.75987854686173,None,177.75987854686173,None,177.75987854686173,None,181.7447340228755,None,181.7447340228755,None,181.7447340228755,None,181.7447340228755,None,181.7447340228755,None,181.7447340228755,None,181.7447340228755,None,182.74511000410712,None,,,,,,,,,,,,,,,,,,,,,,,,,,,,,,23540,2019_Oct_23_1716,Mmi_3levels,3.1.5,59.977814114431204,
,,,1,1,7.9,,,,,,,,,0,0,0,0,0,6,6,20,,,,,,,,,,,,,,,,,,,,,,,,,,,,,,,,,,,,,,,,,,,,,,,,,,,,,,,,,,,True,True,False,0.54,-0.45999999999999996,-3.1799999999999997,9.62,7.9,-1.7199999999999989,-0.8599999999999994,gamble,win,7.9,37.35666666666667,184.76254753362446,None,184.76254753362446,None,184.76254753362446,None,184.76254753362446,None,184.76254753362446,None,184.76254753362446,None,184.76254753362446,None,1,2.4512053158287017,184.76254753362446,None,187.24683919778545,None,187.24683919778545,None,187.24683919778545,None,187.24683919778545,None,187.24683919778545,None,187.24683919778545,None,187.24683919778545,None,191.24839847994735,None,191.24839847994735,None,191.24839847994735,None,191.24839847994735,None,191.24839847994735,None,191.24839847994735,None,191.24839847994735,None,192.23208761418573,None,,,,,,,,,,,,,,,,,,,,,,,,,,,,,,23540,2019_Oct_23_1716,Mmi_3levels,3.1.5,59.977814114431204,
,,,1,1,4.3,,,,,,,,,0,0,0,0,0,7,7,4,,,,,,,,,,,,,,,,,,,,,,,,,,,,,,,,,,,,,,,,,,,,,,,,,,,,,,,,,,,True,False,False,0.54,-0.45999999999999996,-3.6399999999999997,-1.913333333333333,4.3,2.3866666666666667,1.1933333333333334,gamble,lose,2.3866666666666667,39.74333333333334,194.24953154338436,None,194.24953154338436,None,194.24953154338436,None,194.24953154338436,None,194.24953154338436,None,194.24953154338436,None,194.24953154338436,None,1,1.467490262886713,194.24953154338436,None,195.75007039648335,None,195.75007039648335,None,195.75007039648335,None,195.75007039648335,None,195.75007039648335,None,195.75007039648335,None,195.75007039648335,None,199.73495275115783,None,199.73495275115783,None,199.73495275115783,None,199.73495275115783,None,199.73495275115783,None,199.73495275115783,None,199.73495275115783,None,209.23863640726995,None,200.73536809042344,None,201.73572327269358,None,0.58,7.502880176223698,204.73688193485214,None,None,204.73688193485214,None,,,,,,,,,,,,,,,,,,,23540,2019_Oct_23_1716,Mmi_3levels,3.1.5,59.977814114431204,
,,,1,1,6.1,,,,,,,,,0,0,0,0,0,8,8,1,,,,,,,,,,,,,,,,,,,,,,,,,,,,,,,,,,,,,,,,,,,,,,,,,,,,,,,,,,,True,False,True,0.58,-0.42000000000000004,-4.06,-1.8083333333333336,6.1,4.291666666666666,2.145833333333333,gamble,lose,4.291666666666666,44.035000000000004,211.25608065645065,None,211.25608065645065,None,211.25608065645065,None,211.25608065645065,None,211.25608065645065,None,211.25608065645065,None,211.25608065645065,None,1,1.3007529864116805,211.25608065645065,None,212.5899401501847,None,212.5899401501847,None,212.5899401501847,None,212.5899401501847,None,212.5899401501847,None,212.5899401501847,None,212.5899401501847,None,216.57478666664974,None,216.57478666664974,None,216.57478666664974,None,216.57478666664974,None,216.57478666664974,None,216.57478666664974,None,216.57478666664974,None,217.5751764071938,None,,,,,,,,,,,,,,,,,,,,,,,,,,,,,,23540,2019_Oct_23_1716,Mmi_3levels,3.1.5,59.977814114431204,
,,,1,1,0.5,,,,,,,,,0,0,0,0,0,9,9,13,,,,,,,,,,,,,,,,,,,,,,,,,,,,,,,,,,,,,,,,,,,,,,,,,,,,,,,,,,,True,True,True,0.58,-0.42000000000000004,-4.4799999999999995,10.36,0.5,-9.86,-4.68,certain,certain,-4.68,39.355000000000004,219.5926267360701,None,219.5926267360701,None,219.5926267360701,None,219.5926267360701,None,219.5926267360701,None,219.5926267360701,None,219.5926267360701,None,3,2.1010480756813195,219.5926267360701,None,221.72677619933165,None,221.72677619933165,None,221.72677619933165,None,221.72677619933165,None,221.72677619933165,None,221.72677619933165,None,221.72677619933165,None,225.7116521543212,None,225.7116521543212,None,225.7116521543212,None,225.7116521543212,None,225.7116521543212,None,225.7116521543212,None,225.7116521543212,None,235.21530669188724,None,226.71202941548836,None,227.7124194760181,None,0.53,7.502777781333862,230.71356245896095,None,None,230.71356245896095,None,,,,,,,,,,,,,,,,,,,23540,2019_Oct_23_1716,Mmi_3levels,3.1.5,59.977814114431204,
,,,1,1,0.3,,,,,,,,,0,0,0,0,0,10,10,12,,,,,,,,,,,,,,,,,,,,,,,,,,,,,,,,,,,,,,,,,,,,,,,,,,,,,,,,,,,True,False,False,0.53,-0.47,-4.949999999999999,-2.0575,0.3,-1.7575,-0.72875,gamble,lose,-1.7575,37.597500000000004,237.23271862268666,None,237.23271862268666,None,237.23271862268666,None,237.23271862268666,None,237.23271862268666,None,237.23271862268666,None,237.23271862268666,None,None,,237.23271862268666,None,240.23384592641014,None,240.23384592641014,None,240.23384592641014,None,240.23384592641014,None,240.23384592641014,None,240.23384592641014,None,240.23384592641014,None,244.23545992583968,None,244.23545992583968,None,244.23545992583968,None,244.23545992583968,None,244.23545992583968,None,244.23545992583968,None,244.23545992583968,None,245.21915545975935,None,,,,,,,,,,,,,,,,,,,,,,,,,,,,,,23540,2019_Oct_23_1716,Mmi_3levels,3.1.5,59.977814114431204,
,,,1,1,11.1,,,,,,,,,0,0,0,0,0,11,11,18,,,,,,,,,,,,,,,,,,,,,,,,,,,,,,,,,,,,,,,,,,,,,,,,,,,,,,,,,,,True,False,True,0.53,-0.47,-5.419999999999999,-2.0966666666666667,11.1,9.003333333333334,4.501666666666667,gamble,lose,9.003333333333334,46.60083333333334,247.23660322876458,None,247.23660322876458,None,247.23660322876458,None,247.23660322876458,None,247.23660322876458,None,247.23660322876458,None,247.23660322876458,None,1,1.084005726435862,247.23660322876458,None,248.35363194669117,None,248.35363194669117,None,248.35363194669117,None,248.35363194669117,None,248.35363194669117,None,248.35363194669117,None,248.35363194669117,None,252.33855845915969,None,252.33855845915969,None,252.33855845915969,None,252.33855845915969,None,252.33855845915969,None,252.33855845915969,None,252.33855845915969,None,261.8422024372521,None,253.33887940313798,None,254.33928610283692,None,0.53,7.5028545774985105,257.3404767633983,None,None,257.3404767633983,None,,,,,,,,,,,,,,,,,,,23540,2019_Oct_23_1716,Mmi_3levels,3.1.5,59.977814114431204,
,,,1,1,13.5,,,,,,,,,0,0,0,0,0,12,12,26,,,,,,,,,,,,,,,,,,,,,,,,,,,,,,,,,,,,,,,,,,,,,,,,,,,,,,,,,,,True,True,False,0.53,-0.47,-5.889999999999999,12.469999999999999,13.5,1.0300000000000011,0.5150000000000006,gamble,win,13.5,60.10083333333334,263.8596658854767,None,263.8596658854767,None,263.8596658854767,None,263.8596658854767,None,263.8596658854767,None,263.8596658854767,None,263.8596658854767,None,1,1.6174757356129703,263.8596658854767,None,265.5103025256976,None,265.5103025256976,None,265.5103025256976,None,265.5103025256976,None,265.5103025256976,None,265.5103025256976,None,265.5103025256976,None,269.51177669210665,None,269.51177669210665,None,269.51177669210665,None,269.51177669210665,None,269.51177669210665,None,269.51177669210665,None,269.51177669210665,None,270.49550870420353,None,,,,,,,,,,,,,,,,,,,,,,,,,,,,,,23540,2019_Oct_23_1716,Mmi_3levels,3.1.5,59.977814114431204,
,,,1,1,5.7,,,,,,,,,0,0,0,0,0,13,13,9,,,,,,,,,,,,,,,,,,,,,,,,,,,,,,,,,,,,,,,,,,,,,,,,,,,,,,,,,,,True,True,False,0.53,-0.47,-6.3599999999999985,12.939999999999998,5.7,-7.2399999999999975,-0.7699999999999987,certain,certain,-0.7699999999999987,59.330833333333345,272.51300063100643,None,272.51300063100643,None,272.51300063100643,None,272.51300063100643,None,272.51300063100643,None,272.51300063100643,None,272.51300063100643,None,3,1.2674048911503633,272.51300063100643,None,273.8134982701631,None,273.8134982701631,None,273.8134982701631,None,273.8134982701631,None,273.8134982701631,None,273.8134982701631,None,273.8134982701631,None,277.8150396332203,None,277.8150396332203,None,277.8150396332203,None,277.8150396332203,None,277.8150396332203,None,277.8150396332203,None,277.8150396332203,None,278.79874956642016,None,,,,,,,,,,,,,,,,,,,,,,,,,,,,,,23540,2019_Oct_23_1716,Mmi_3levels,3.1.5,59.977814114431204,
,,,1,1,0.9,,,,,,,,,0,0,0,0,0,14,14,17,,,,,,,,,,,,,,,,,,,,,,,,,,,,,,,,,,,,,,,,,,,,,,,,,,,,,,,,,,,True,True,True,0.53,-0.47,-6.829999999999998,13.409999999999998,0.9,-12.509999999999998,-5.804999999999999,certain,certain,-5.804999999999999,53.525833333333345,280.8161416582079,None,280.8161416582079,None,280.8161416582079,None,280.8161416582079,None,280.8161416582079,None,280.8161416582079,None,280.8161416582079,None,3,1.4175093979283702,280.8161416582079,None,282.2667537236521,None,282.2667537236521,None,282.2667537236521,None,282.2667537236521,None,282.2667537236521,None,282.2667537236521,None,282.2667537236521,None,286.26830308630815,None,286.26830308630815,None,286.26830308630815,None,286.26830308630815,None,286.26830308630815,None,286.26830308630815,None,286.26830308630815,None,295.75523141884696,None,287.2519352633899,None,288.2524190792392,None,0.54,7.50247379650682,291.2535335836037,None,None,291.2535335836037,None,,,,,,,,,,,,,,,,,,,23540,2019_Oct_23_1716,Mmi_3levels,3.1.5,59.977814114431204,
,,,1,1,8.9,,,,,,,,,0,0,0,0,0,15,15,14,,,,,,,,,,,,,,,,,,,,,,,,,,,,,,,,,,,,,,,,,,,,,,,,,,,,,,,,,,,True,False,True,0.54,-0.45999999999999996,-7.289999999999998,-2.2175,8.9,6.682500000000001,3.3412500000000005,gamble,lose,6.682500000000001,60.20833333333334,297.77272494556746,None,297.77272494556746,None,297.77272494556746,None,297.77272494556746,None,297.77272494556746,None,297.77272494556746,None,297.77272494556746,None,1,1.2006626229194808,297.77272494556746,None,299.0065324738971,None,299.0065324738971,None,299.0065324738971,None,299.0065324738971,None,299.0065324738971,None,299.0065324738971,None,299.0065324738971,None,303.0080645574162,None,303.0080645574162,None,303.0080645574162,None,303.0080645574162,None,303.0080645574162,None,303.0080645574162,None,303.0080645574162,None,303.9917325727074,None,,,,,,,,,,,,,,,,,,,,,,,,,,,,,,23540,2019_Oct_23_1716,Mmi_3levels,3.1.5,59.977814114431204,
,,,1,1,3.9,,,,,,,,,0,0,0,0,0,16,16,15,,,,,,,,,,,,,,,,,,,,,,,,,,,,,,,,,,,,,,,,,,,,,,,,,,,,,,,,,,,True,True,True,0.54,-0.45999999999999996,-7.749999999999998,14.189999999999998,3.9,-10.289999999999997,-3.1949999999999985,certain,certain,-3.1949999999999985,57.01333333333334,306.00922193963925,None,306.00922193963925,None,306.00922193963925,None,306.00922193963925,None,306.00922193963925,None,306.00922193963925,None,306.00922193963925,None,3,1.4508024559399928,306.00922193963925,None,307.493131542873,None,307.493131542873,None,307.493131542873,None,307.493131542873,None,307.493131542873,None,307.493131542873,None,307.493131542873,None,311.4946604265497,None,311.4946604265497,None,311.4946604265497,None,311.4946604265497,None,311.4946604265497,None,311.4946604265497,None,311.4946604265497,None,320.98165531576524,None,312.4783764394451,None,313.4787636201181,None,0.54,7.502831858633726,316.4799072430287,None,None,316.4799072430287,None,,,,,,,,,,,,,,,,,,,23540,2019_Oct_23_1716,Mmi_3levels,3.1.5,59.977814114431204,
,,,1,1,3.3,,,,,,,,,0,0,0,0,0,17,17,25,,,,,,,,,,,,,,,,,,,,,,,,,,,,,,,,,,,,,,,,,,,,,,,,,,,,,,,,,,,True,True,False,0.54,-0.45999999999999996,-8.209999999999997,14.649999999999997,3.3,-11.349999999999998,-4.024999999999999,certain,certain,-4.024999999999999,52.988333333333344,322.9990947651895,None,322.9990947651895,None,322.9990947651895,None,322.9990947651895,None,322.9990947651895,None,322.9990947651895,None,322.9990947651895,None,3,1.2840792587630858,322.9990947651895,None,324.3162744515794,None,324.3162744515794,None,324.3162744515794,None,324.3162744515794,None,324.3162744515794,None,324.3162744515794,None,324.3162744515794,None,328.3178164546007,None,328.3178164546007,None,328.3178164546007,None,328.3178164546007,None,328.3178164546007,None,328.3178164546007,None,328.3178164546007,None,329.30152830770385,None,,,,,,,,,,,,,,,,,,,,,,,,,,,,,,23540,2019_Oct_23_1716,Mmi_3levels,3.1.5,59.977814114431204,
,,,1,1,11.7,,,,,,,,,0,0,0,0,0,18,18,8,,,,,,,,,,,,,,,,,,,,,,,,,,,,,,,,,,,,,,,,,,,,,,,,,,,,,,,,,,,True,True,False,0.54,-0.45999999999999996,-8.669999999999998,15.109999999999998,11.7,-3.4099999999999984,-1.7049999999999992,gamble,win,11.7,64.68833333333335,331.3189210394594,None,331.3189210394594,None,331.3189210394594,None,331.3189210394594,None,331.3189210394594,None,331.3189210394594,None,331.3189210394594,None,1,1.7509349933243357,331.3189210394594,None,333.1029897387525,None,333.1029897387525,None,333.1029897387525,None,333.1029897387525,None,333.1029897387525,None,333.1029897387525,None,333.1029897387525,None,337.1044991034032,None,337.1044991034032,None,337.1044991034032,None,337.1044991034032,None,337.1044991034032,None,337.1044991034032,None,337.1044991034032,None,338.0882410350059,None,,,,,,,,,,,,,,,,,,,,,,,,,,,,,,23540,2019_Oct_23_1716,Mmi_3levels,3.1.5,59.977814114431204,
,,,1,1,1.7,,,,,,,,,0,0,0,0,0,19,19,3,,,,,,,,,,,,,,,,,,,,,,,,,,,,,,,,,,,,,,,,,,,,,,,,,,,,,,,,,,,True,True,False,0.54,-0.45999999999999996,-9.129999999999999,15.569999999999999,1.7,-13.87,-6.085,certain,certain,-6.085,58.603333333333346,340.10568304430126,None,340.10568304430126,None,340.10568304430126,None,340.10568304430126,None,340.10568304430126,None,340.10568304430126,None,340.10568304430126,None,3,1.4507973361978657,340.10568304430126,None,341.58954624984835,None,341.58954624984835,None,341.58954624984835,None,341.58954624984835,None,341.58954624984835,None,341.58954624984835,None,341.58954624984835,None,345.5911068119458,None,345.5911068119458,None,345.5911068119458,None,345.5911068119458,None,345.5911068119458,None,345.5911068119458,None,345.5911068119458,None,355.07811034073166,None,346.57484330382067,None,347.57523048449366,None,0.52,7.502841778139555,350.5763645078805,None,None,350.5763645078805,None,,,,,,,,,,,,,,,,,,,23540,2019_Oct_23_1716,Mmi_3levels,3.1.5,59.977814114431204,
,,,1,1,5.1,,,,,,,,,0,0,0,0,0,20,20,19,,,,,,,,,,,,,,,,,,,,,,,,,,,,,,,,,,,,,,,,,,,,,,,,,,,,,,,,,,,True,False,False,0.52,-0.48,-9.61,-2.480833333333333,5.1,2.6191666666666666,1.3095833333333333,gamble,lose,2.6191666666666666,61.22250000000001,357.0955081922293,None,357.0955081922293,None,357.0955081922293,None,357.0955081922293,None,357.0955081922293,None,357.0955081922293,None,357.0955081922293,None,1,1.2174835432233522,357.0955081922293,None,358.34603648585835,None,358.34603648585835,None,358.34603648585835,None,358.34603648585835,None,358.34603648585835,None,358.34603648585835,None,358.34603648585835,None,362.34758072876866,None,362.34758072876866,None,362.34758072876866,None,362.34758072876866,None,362.34758072876866,None,362.34758072876866,None,362.34758072876866,None,363.331243304332,None,,,,,,,,,,,,,,,,,,,,,,,,,,,,,,23540,2019_Oct_23_1716,Mmi_3levels,3.1.5,59.977814114431204,
,,,1,1,2.7,,,,,,,,,0,0,0,0,0,21,21,6,,,,,,,,,,,,,,,,,,,,,,,,,,,,,,,,,,,,,,,,,,,,,,,,,,,,,,,,,,,True,False,False,0.52,-0.48,-10.09,-2.520833333333333,2.7,0.17916666666666714,1.4395833333333337,certain,certain,1.4395833333333337,62.66208333333334,365.3487381109917,None,365.3487381109917,None,365.3487381109917,None,365.3487381109917,None,365.3487381109917,None,365.3487381109917,None,365.3487381109917,None,3,2.1177355626423378,365.3487381109917,None,367.4995638617693,None,367.4995638617693,None,367.4995638617693,None,367.4995638617693,None,367.4995638617693,None,367.4995638617693,None,367.4995638617693,None,371.48443149717787,None,371.48443149717787,None,371.48443149717787,None,371.48443149717787,None,371.48443149717787,None,371.48443149717787,None,371.48443149717787,None,380.98808635472597,None,372.48481451805856,None,373.4852004187924,None,0.54,7.5027374633464206,376.4863005238767,None,None,376.4863005238767,None,,,,,,,,,,,,,,,,,,,23540,2019_Oct_23_1716,Mmi_3levels,3.1.5,59.977814114431204,
,,,1,1,12.9,,,,,,,,,0,0,0,0,0,22,22,2,,,,,,,,,,,,,,,,,,,,,,,,,,,,,,,,,,,,,,,,,,,,,,,,,,,,,,,,,,,True,True,True,0.54,-0.45999999999999996,-10.55,16.990000000000002,12.9,-4.090000000000002,-2.045000000000001,gamble,win,12.9,75.56208333333335,383.00553188384583,None,383.00553188384583,None,383.00553188384583,None,383.00553188384583,None,383.00553188384583,None,383.00553188384583,None,383.00553188384583,None,1,1.9009854228097538,383.00553188384583,None,384.9396126145366,None,384.9396126145366,None,384.9396126145366,None,384.9396126145366,None,384.9396126145366,None,384.9396126145366,None,384.9396126145366,None,388.941161657207,None,388.941161657207,None,388.941161657207,None,388.941161657207,None,388.941161657207,None,388.941161657207,None,388.941161657207,None,389.9248155932037,None,,,,,,,,,,,,,,,,,,,,,,,,,,,,,,23540,2019_Oct_23_1716,Mmi_3levels,3.1.5,59.977814114431204,
,,,1,1,2.3,,,,,,,,,0,0,0,0,0,23,23,7,,,,,,,,,,,,,,,,,,,,,,,,,,,,,,,,,,,,,,,,,,,,,,,,,,,,,,,,,,,True,False,False,0.54,-0.45999999999999996,-11.010000000000002,-2.5275,2.3,-0.22750000000000004,1.03625,certain,certain,1.03625,76.59833333333334,391.94230624007105,None,391.94230624007105,None,391.94230624007105,None,391.94230624007105,None,391.94230624007105,None,391.94230624007105,None,391.94230624007105,None,3,1.9009515044999716,391.94230624007105,None,393.8763959303142,None,393.8763959303142,None,393.8763959303142,None,393.8763959303142,None,393.8763959303142,None,393.8763959303142,None,393.8763959303142,None,397.86125172631364,None,397.86125172631364,None,397.86125172631364,None,397.86125172631364,None,397.86125172631364,None,397.86125172631364,None,397.86125172631364,None,407.36489442447055,None,398.86163154735186,None,399.8620251277025,None,0.53,7.502848177817214,402.86315979106075,None,None,402.86315979106075,None,,,,,,,,,,,,,,,,,,,23540,2019_Oct_23_1716,Mmi_3levels,3.1.5,59.977814114431204,
,,,1,1,1.3,,,,,,,,,0,0,0,0,0,24,24,24,,,,,,,,,,,,,,,,,,,,,,,,,,,,,,,,,,,,,,,,,,,,,,,,,,,,,,,,,,,True,True,False,0.53,-0.47,-11.480000000000002,18.060000000000002,1.3,-16.76,-7.73,certain,certain,-7.73,68.86833333333334,409.3823044353594,None,409.3823044353594,None,409.3823044353594,None,409.3823044353594,None,409.3823044353594,None,409.3823044353594,None,409.3823044353594,None,3,1.333959328749188,409.3823044353594,None,410.74953954298326,None,410.74953954298326,None,410.74953954298326,None,410.74953954298326,None,410.74953954298326,None,410.74953954298326,None,410.74953954298326,None,414.7510853858148,None,414.7510853858148,None,414.7510853858148,None,414.7510853858148,None,414.7510853858148,None,414.7510853858148,None,414.7510853858148,None,415.73479403907913,None,,,,,,,,,,,,,,,,,,,,,,,,,,,,,,23540,2019_Oct_23_1716,Mmi_3levels,3.1.5,59.977814114431204,
,,,1,1,10.7,,,,,,,,,0,0,0,0,0,25,25,22,,,,,,,,,,,,,,,,,,,,,,,,,,,,,,,,,,,,,,,,,,,,,,,,,,,,,,,,,,,True,True,False,0.53,-0.47,-11.950000000000003,18.53,10.7,-7.830000000000002,1.4349999999999987,certain,certain,1.4349999999999987,70.30333333333334,417.75220564989286,None,417.75220564989286,None,417.75220564989286,None,417.75220564989286,None,417.75220564989286,None,417.75220564989286,None,417.75220564989286,None,3,2.184404234540125,417.75220564989286,None,419.96972663124325,None,419.96972663124325,None,419.96972663124325,None,419.96972663124325,None,419.96972663124325,None,419.96972663124325,None,419.96972663124325,None,423.9713095922234,None,423.9713095922234,None,423.9713095922234,None,423.9713095922234,None,423.9713095922234,None,423.9713095922234,None,423.9713095922234,None,424.9550124857742,None,,,,,,,,,,,,,,,,,,,,,,,,,,,,,,23540,2019_Oct_23_1716,Mmi_3levels,3.1.5,59.977814114431204,
,,,1,1,9.1,,,,,,,,,0,0,0,0,0,26,26,11,,,,,,,,,,,,,,,,,,,,,,,,,,,,,,,,,,,,,,,,,,,,,,,,,,,,,,,,,,,True,False,True,0.53,-0.47,-12.420000000000003,-2.6800000000000006,9.1,6.419999999999999,3.2099999999999995,gamble,lose,6.419999999999999,76.72333333333334,426.97241097724327,None,426.97241097724327,None,426.97241097724327,None,426.97241097724327,None,426.97241097724327,None,426.97241097724327,None,426.97241097724327,None,1,1.4341805657059012,426.97241097724327,None,428.43968749079795,None,428.43968749079795,None,428.43968749079795,None,428.43968749079795,None,428.43968749079795,None,428.43968749079795,None,428.43968749079795,None,432.42454648663625,None,432.42454648663625,None,432.42454648663625,None,432.42454648663625,None,432.42454648663625,None,432.42454648663625,None,432.42454648663625,None,441.9282115836759,None,433.42493750711947,None,434.42532436780675,None,0.53,7.50284337805715,437.4264644708928,None,None,437.4264644708928,None,,,,,,,,,,,,,,,,,,,23540,2019_Oct_23_1716,Mmi_3levels,3.1.5,59.977814114431204,
,,,2,0,9.3,,,,,,,,,0,1,1,1,0,0,0,4,,,,,,,,,,,,,,,,,,,,,,,,,,,,,,,,,,,,,,,,,,,,,,,,447.3469282813385,None,0.55,7.50184406794142,450.36477251055476,None,None,450.36477251055476,None,454.8498426958504,None,False,True,True,0.55,0.55,0.55,-8.250000000000002,9.3,1.049999999999999,0.5249999999999995,gamble,lose,1.049999999999999,77.77333333333334,457.88435457301966,None,457.88435457301966,None,457.88435457301966,None,457.88435457301966,None,457.88435457301966,None,457.88435457301966,None,457.88435457301966,None,1,1.3673704608663684,457.88435457301966,None,459.2848187418458,None,459.2848187418458,None,459.2848187418458,None,459.2848187418458,None,459.2848187418458,None,459.2848187418458,None,459.2848187418458,None,463.28636138483853,None,463.28636138483853,None,463.28636138483853,None,463.28636138483853,None,463.28636138483853,None,463.28636138483853,None,463.28636138483853,None,464.2700975567277,None,,,,,,,,,,,,443.92893858738535,None,4,3.4015585141969495,443.92893858738535,None,,,,,,,,,,,,,23540,2019_Oct_23_1716,Mmi_3levels,3.1.5,59.977814114431204,
,,,2,0,0.1,,,,,,,,,0,1,1,1,0,1,1,7,,,,,,,,,,,,,,,,,,,,,,,,,,,,,,,,,,,,,,,,,,,,,,,,,,,,,,,,,,,False,True,True,0.55,0.55,1.1,-8.8,0.1,-8.700000000000001,-4.300000000000001,certain,certain,-4.300000000000001,73.47333333333334,466.28755588521017,None,466.28755588521017,None,466.28755588521017,None,466.28755588521017,None,466.28755588521017,None,466.28755588521017,None,466.28755588521017,None,3,2.2010830819344847,466.28755588521017,None,468.52178547246876,None,468.52178547246876,None,468.52178547246876,None,468.52178547246876,None,468.52178547246876,None,468.52178547246876,None,468.52178547246876,None,472.5233194758912,None,472.5233194758912,None,472.5233194758912,None,472.5233194758912,None,472.5233194758912,None,472.5233194758912,None,472.5233194758912,None,482.01031148525,None,473.50699837063803,None,474.5073538728939,None,0.55,7.50281201962207,477.5085272543183,None,None,477.5085272543183,None,,,,,,,,,,,,,,,,,,,23540,2019_Oct_23_1716,Mmi_3levels,3.1.5,59.977814114431204,
,,,2,0,7.1,,,,,,,,,0,1,1,1,0,2,2,9,,,,,,,,,,,,,,,,,,,,,,,,,,,,,,,,,,,,,,,,,,,,,,,,,,,,,,,,,,,False,True,True,0.55,0.55,1.6500000000000001,-9.350000000000001,7.1,-2.2500000000000018,-1.1250000000000009,gamble,lose,-2.2500000000000018,71.22333333333334,484.0277170163645,None,484.0277170163645,None,484.0277170163645,None,484.0277170163645,None,484.0277170163645,None,484.0277170163645,None,484.0277170163645,None,1,1.6008423259518167,484.0277170163645,None,485.6617144872107,None,485.6617144872107,None,485.6617144872107,None,485.6617144872107,None,485.6617144872107,None,485.6617144872107,None,485.6617144872107,None,489.6631992130933,None,489.6631992130933,None,489.6631992130933,None,489.6631992130933,None,489.6631992130933,None,489.6631992130933,None,489.6631992130933,None,490.6469645035322,None,,,,,,,,,,,,,,,,,,,,,,,,,,,,,,23540,2019_Oct_23_1716,Mmi_3levels,3.1.5,59.977814114431204,
,,,2,0,4.3,,,,,,,,,0,1,1,1,0,3,3,15,,,,,,,,,,,,,,,,,,,,,,,,,,,,,,,,,,,,,,,,,,,,,,,,,,,,,,,,,,,False,False,False,0.55,0.55,2.2,2.1083333333333334,1.075,-1.0333333333333334,0.02083333333333326,certain,certain,0.02083333333333326,71.24416666666667,492.66435691530205,None,492.66435691530205,None,492.66435691530205,None,492.66435691530205,None,492.66435691530205,None,492.66435691530205,None,492.66435691530205,None,3,1.9343197587586474,492.66435691530205,None,494.6318276591628,None,494.6318276591628,None,494.6318276591628,None,494.6318276591628,None,494.6318276591628,None,494.6318276591628,None,494.6318276591628,None,498.61669337466446,None,498.61669337466446,None,498.61669337466446,None,498.61669337466446,None,498.61669337466446,None,498.61669337466446,None,498.61669337466446,None,508.12033255299684,None,499.6170530367126,None,500.61742453816623,None,0.54,7.502885295965825,503.6186343977679,None,None,503.6186343977679,None,,,,,,,,,,,,,,,,,,,23540,2019_Oct_23_1716,Mmi_3levels,3.1.5,59.977814114431204,
,,,2,0,1.1,,,,,,,,,0,1,1,1,0,4,4,0,,,,,,,,,,,,,,,,,,,,,,,,,,,,,,,,,,,,,,,,,,,,,,,,,,,,,,,,,,,False,True,True,0.54,0.54,2.74,-10.3,1.1,-9.200000000000001,-4.050000000000001,certain,certain,-4.050000000000001,67.19416666666667,510.1378152002653,None,510.1378152002653,None,510.1378152002653,None,510.1378152002653,None,510.1378152002653,None,510.1378152002653,None,510.1378152002653,None,3,1.2673552936248598,510.1378152002653,None,511.43825972207196,None,511.43825972207196,None,511.43825972207196,None,511.43825972207196,None,511.43825972207196,None,511.43825972207196,None,511.43825972207196,None,515.4397940454801,None,515.4397940454801,None,515.4397940454801,None,515.4397940454801,None,515.4397940454801,None,515.4397940454801,None,515.4397940454801,None,516.4234850996218,None,,,,,,,,,,,,,,,,,,,,,,,,,,,,,,23540,2019_Oct_23_1716,Mmi_3levels,3.1.5,59.977814114431204,
,,,2,0,6.5,,,,,,,,,0,1,1,1,0,5,5,17,,,,,,,,,,,,,,,,,,,,,,,,,,,,,,,,,,,,,,,,,,,,,,,,,,,,,,,,,,,False,False,False,0.54,0.54,3.2800000000000002,2.1633333333333336,1.625,-0.5383333333333336,0.5433333333333332,gamble,win,1.625,68.81916666666667,518.4409597472877,None,518.4409597472877,None,518.4409597472877,None,518.4409597472877,None,518.4409597472877,None,518.4409597472877,None,518.4409597472877,None,1,1.9176495509345841,518.4409597472877,None,520.3917538836431,None,520.3917538836431,None,520.3917538836431,None,520.3917538836431,None,520.3917538836431,None,520.3917538836431,None,520.3917538836431,None,524.3932898069725,None,524.3932898069725,None,524.3932898069725,None,524.3932898069725,None,524.3932898069725,None,524.3932898069725,None,524.3932898069725,None,525.3769632619915,None,,,,,,,,,,,,,,,,,,,,,,,,,,,,,,23540,2019_Oct_23_1716,Mmi_3levels,3.1.5,59.977814114431204,
,,,2,0,2.7,,,,,,,,,0,1,1,1,0,6,6,11,,,,,,,,,,,,,,,,,,,,,,,,,,,,,,,,,,,,,,,,,,,,,,,,,,,,,,,,,,,False,True,True,0.54,0.54,3.8200000000000003,-11.38,2.7,-8.68,-2.9899999999999998,certain,certain,-2.9899999999999998,65.82916666666668,527.3944100710469,None,527.3944100710469,None,527.3944100710469,None,527.3944100710469,None,527.3944100710469,None,527.3944100710469,None,527.3944100710469,None,3,1.8509319214790594,527.3944100710469,None,529.27846833886,None,529.27846833886,None,529.27846833886,None,529.27846833886,None,529.27846833886,None,529.27846833886,None,529.27846833886,None,533.2633721324601,None,533.2633721324601,None,533.2633721324601,None,533.2633721324601,None,533.2633721324601,None,533.2633721324601,None,533.2633721324601,None,542.7670292299008,None,534.2637196351134,None,535.2641042559153,None,0.55,7.502816499400069,538.2651998812216,None,None,538.2651998812216,None,,,,,,,,,,,,,,,,,,,23540,2019_Oct_23_1716,Mmi_3levels,3.1.5,59.977814114431204,
,,,2,0,6.9,,,,,,,,,0,1,1,1,0,7,7,20,,,,,,,,,,,,,,,,,,,,,,,,,,,,,,,,,,,,,,,,,,,,,,,,,,,,,,,,,,,False,True,False,0.55,0.55,4.37,-12.07,6.9,-5.17,0.8650000000000002,certain,certain,0.8650000000000002,66.69416666666667,544.7844309212087,None,544.7844309212087,None,544.7844309212087,None,544.7844309212087,None,544.7844309212087,None,544.7844309212087,None,544.7844309212087,None,3,1.8343049114955647,544.7844309212087,None,546.6518202611296,None,546.6518202611296,None,546.6518202611296,None,546.6518202611296,None,546.6518202611296,None,546.6518202611296,None,546.6518202611296,None,550.653380503245,None,550.653380503245,None,550.653380503245,None,550.653380503245,None,550.653380503245,None,550.653380503245,None,550.653380503245,None,551.637100355947,None,,,,,,,,,,,,,,,,,,,,,,,,,,,,,,23540,2019_Oct_23_1716,Mmi_3levels,3.1.5,59.977814114431204,
,,,2,0,3.3,,,,,,,,,0,1,1,1,0,8,8,1,,,,,,,,,,,,,,,,,,,,,,,,,,,,,,,,,,,,,,,,,,,,,,,,,,,,,,,,,,,False,True,True,0.55,0.55,4.92,-12.620000000000001,3.3,-9.32,-3.0100000000000002,certain,certain,-3.0100000000000002,63.68416666666668,553.6545014072872,None,553.6545014072872,None,553.6545014072872,None,553.6545014072872,None,553.6545014072872,None,553.6545014072872,None,553.6545014072872,None,3,1.7009243698557839,553.6545014072872,None,555.3885185251529,None,555.3885185251529,None,555.3885185251529,None,555.3885185251529,None,555.3885185251529,None,555.3885185251529,None,555.3885185251529,None,559.3900525285753,None,559.3900525285753,None,559.3900525285753,None,559.3900525285753,None,559.3900525285753,None,559.3900525285753,None,559.3900525285753,None,568.8770368583173,None,560.3738043796839,None,561.3741506024016,None,0.55,7.502795380452881,564.3752497475325,None,None,564.3752497475325,None,,,,,,,,,,,,,,,,,,,23540,2019_Oct_23_1716,Mmi_3levels,3.1.5,59.977814114431204,
,,,2,0,5.5,,,,,,,,,0,1,1,1,0,9,9,13,,,,,,,,,,,,,,,,,,,,,,,,,,,,,,,,,,,,,,,,,,,,,,,,,,,,,,,,,,,False,True,False,0.55,0.55,5.47,-13.170000000000002,5.5,-7.670000000000002,-1.0850000000000009,certain,certain,-1.0850000000000009,62.599166666666676,570.8945230254103,None,570.8945230254103,None,570.8945230254103,None,570.8945230254103,None,570.8945230254103,None,570.8945230254103,None,570.8945230254103,None,3,1.2340075183456065,570.8945230254103,None,572.1616367310926,None,572.1616367310926,None,572.1616367310926,None,572.1616367310926,None,572.1616367310926,None,572.1616367310926,None,572.1616367310926,None,576.1631780941498,None,576.1631780941498,None,576.1631780941498,None,576.1631780941498,None,576.1631780941498,None,576.1631780941498,None,576.1631780941498,None,577.1468921871419,None,,,,,,,,,,,,,,,,,,,,,,,,,,,,,,23540,2019_Oct_23_1716,Mmi_3levels,3.1.5,59.977814114431204,
,,,2,0,10.5,,,,,,,,,0,1,1,1,0,10,10,8,,,,,,,,,,,,,,,,,,,,,,,,,,,,,,,,,,,,,,,,,,,,,,,,,,,,,,,,,,,False,True,True,0.55,0.55,6.02,-13.72,10.5,-3.2200000000000006,-1.6100000000000003,gamble,lose,-3.2200000000000006,59.37916666666668,579.164352115542,None,579.164352115542,None,579.164352115542,None,579.164352115542,None,579.164352115542,None,579.164352115542,None,579.164352115542,None,1,1.534154455010139,579.164352115542,None,580.7316444363096,None,580.7316444363096,None,580.7316444363096,None,580.7316444363096,None,580.7316444363096,None,580.7316444363096,None,580.7316444363096,None,584.7164522347011,None,584.7164522347011,None,584.7164522347011,None,584.7164522347011,None,584.7164522347011,None,584.7164522347011,None,584.7164522347011,None,585.7168358955496,None,,,,,,,,,,,,,,,,,,,,,,,,,,,,,,23540,2019_Oct_23_1716,Mmi_3levels,3.1.5,59.977814114431204,
,,,2,0,8.5,,,,,,,,,0,1,1,1,0,11,11,2,,,,,,,,,,,,,,,,,,,,,,,,,,,,,,,,,,,,,,,,,,,,,,,,,,,,,,,,,,,False,True,True,0.55,0.55,6.569999999999999,-14.27,8.5,-5.77,1.3650000000000002,certain,certain,1.3650000000000002,60.74416666666668,587.7343463814286,None,587.7343463814286,None,587.7343463814286,None,587.7343463814286,None,587.7343463814286,None,587.7343463814286,None,587.7343463814286,None,3,2.0176263200955873,587.7343463814286,None,589.7850552100426,None,589.7850552100426,None,589.7850552100426,None,589.7850552100426,None,589.7850552100426,None,589.7850552100426,None,589.7850552100426,None,593.7866231317712,None,593.7866231317712,None,593.7866231317712,None,593.7866231317712,None,593.7866231317712,None,593.7866231317712,None,593.7866231317712,None,603.2736538591962,None,594.7703362648135,None,595.7707554438857,None,0.52,7.502835378458258,598.7718625886191,None,None,598.7718625886191,None,,,,,,,,,,,,,,,,,,,23540,2019_Oct_23_1716,Mmi_3levels,3.1.5,59.977814114431204,
,,,2,0,6.1,,,,,,,,,0,1,1,1,0,12,12,24,,,,,,,,,,,,,,,,,,,,,,,,,,,,,,,,,,,,,,,,,,,,,,,,,,,,,,,,,,,False,False,False,0.52,0.52,7.09,2.4108333333333336,1.525,-0.8858333333333337,0.3195833333333331,gamble,win,1.525,62.26916666666668,605.291052670651,None,605.291052670651,None,605.291052670651,None,605.291052670651,None,605.291052670651,None,605.291052670651,None,605.291052670651,None,1,1.400838870122243,605.291052670651,None,606.7249222118808,None,606.7249222118808,None,606.7249222118808,None,606.7249222118808,None,606.7249222118808,None,606.7249222118808,None,606.7249222118808,None,610.726483413946,None,610.726483413946,None,610.726483413946,None,610.726483413946,None,610.726483413946,None,610.726483413946,None,610.726483413946,None,611.7101943070993,None,,,,,,,,,,,,,,,,,,,,,,,,,,,,,,23540,2019_Oct_23_1716,Mmi_3levels,3.1.5,59.977814114431204,
,,,2,0,12.1,,,,,,,,,0,1,1,1,0,13,13,26,,,,,,,,,,,,,,,,,,,,,,,,,,,,,,,,,,,,,,,,,,,,,,,,,,,,,,,,,,,False,True,True,0.52,0.52,7.609999999999999,-14.89,12.1,-2.790000000000001,-1.3950000000000005,gamble,lose,-2.790000000000001,59.47916666666668,613.7276225570822,None,613.7276225570822,None,613.7276225570822,None,613.7276225570822,None,613.7276225570822,None,613.7276225570822,None,613.7276225570822,None,1,1.6175032542378176,613.7276225570822,None,615.3782668769163,None,615.3782668769163,None,615.3782668769163,None,615.3782668769163,None,615.3782668769163,None,615.3782668769163,None,615.3782668769163,None,619.3797880809761,None,619.3797880809761,None,619.3797880809761,None,619.3797880809761,None,619.3797880809761,None,619.3797880809761,None,619.3797880809761,None,628.8667903298265,None,620.3635178531877,None,621.3639066337782,None,0.52,7.5028244990026,624.3650441769933,None,None,624.3650441769933,None,,,,,,,,,,,,,,,,,,,23540,2019_Oct_23_1716,Mmi_3levels,3.1.5,59.977814114431204,
,,,2,0,13.9,,,,,,,,,0,1,1,1,0,14,14,5,,,,,,,,,,,,,,,,,,,,,,,,,,,,,,,,,,,,,,,,,,,,,,,,,,,,,,,,,,,False,False,True,0.52,0.52,8.129999999999999,2.4975,3.475,0.9775,0.48875,gamble,win,3.475,62.95416666666668,630.8842339390394,None,630.8842339390394,None,630.8842339390394,None,630.8842339390394,None,630.8842339390394,None,630.8842339390394,None,630.8842339390394,None,1,1.3007584261395095,630.8842339390394,None,632.2180867131101,None,632.2180867131101,None,632.2180867131101,None,632.2180867131101,None,632.2180867131101,None,632.2180867131101,None,632.2180867131101,None,636.2029505087085,None,636.2029505087085,None,636.2029505087085,None,636.2029505087085,None,636.2029505087085,None,636.2029505087085,None,636.2029505087085,None,637.2033373693957,None,,,,,,,,,,,,,,,,,,,,,,,,,,,,,,23540,2019_Oct_23_1716,Mmi_3levels,3.1.5,59.977814114431204,
,,,2,0,13.1,,,,,,,,,0,1,1,1,0,15,15,10,,,,,,,,,,,,,,,,,,,,,,,,,,,,,,,,,,,,,,,,,,,,,,,,,,,,,,,,,,,False,True,False,0.52,0.52,8.649999999999999,-15.93,13.1,-2.83,-1.415,gamble,lose,-2.83,60.12416666666668,639.2208164968397,None,639.2208164968397,None,639.2208164968397,None,639.2208164968397,None,639.2208164968397,None,639.2208164968397,None,639.2208164968397,None,1,1.4841198327376333,639.2208164968397,None,640.7379874796643,None,640.7379874796643,None,640.7379874796643,None,640.7379874796643,None,640.7379874796643,None,640.7379874796643,None,640.7379874796643,None,644.7395349224134,None,644.7395349224134,None,644.7395349224134,None,644.7395349224134,None,644.7395349224134,None,644.7395349224134,None,644.7395349224134,None,654.2265483707051,None,645.7233184519428,None,646.7236605148646,None,0.52,7.502752502594376,649.7248063776642,None,None,649.7248063776642,None,,,,,,,,,,,,,,,,,,,23540,2019_Oct_23_1716,Mmi_3levels,3.1.5,59.977814114431204,
,,,2,0,6.3,,,,,,,,,0,1,1,1,0,16,16,22,,,,,,,,,,,,,,,,,,,,,,,,,,,,,,,,,,,,,,,,,,,,,,,,,,,,,,,,,,,False,True,True,0.52,0.52,9.169999999999998,-16.45,6.3,-10.149999999999999,-1.9249999999999994,certain,certain,-1.9249999999999994,58.199166666666684,656.2440396575403,None,656.2440396575403,None,656.2440396575403,None,656.2440396575403,None,656.2440396575403,None,656.2440396575403,None,656.2440396575403,None,3,1.4674297859055514,656.2440396575403,None,657.7445775506858,None,657.7445775506858,None,657.7445775506858,None,657.7445775506858,None,657.7445775506858,None,657.7445775506858,None,657.7445775506858,None,661.7461483522711,None,661.7461483522711,None,661.7461483522711,None,661.7461483522711,None,661.7461483522711,None,661.7461483522711,None,661.7461483522711,None,662.7298717248013,None,,,,,,,,,,,,,,,,,,,,,,,,,,,,,,23540,2019_Oct_23_1716,Mmi_3levels,3.1.5,59.977814114431204,
,,,2,0,4.7,,,,,,,,,0,1,1,1,0,17,17,14,,,,,,,,,,,,,,,,,,,,,,,,,,,,,,,,,,,,,,,,,,,,,,,,,,,,,,,,,,,False,False,True,0.52,0.52,9.689999999999998,2.6275,1.175,-1.4525,-0.13874999999999993,certain,certain,-0.13874999999999993,58.06041666666668,664.747302854641,None,664.747302854641,None,664.747302854641,None,664.747302854641,None,664.747302854641,None,664.747302854641,None,664.747302854641,None,3,2.4345341480548086,664.747302854641,None,667.2148865528616,None,667.2148865528616,None,667.2148865528616,None,667.2148865528616,None,667.2148865528616,None,667.2148865528616,None,667.2148865528616,None,671.2164243960942,None,671.2164243960942,None,671.2164243960942,None,671.2164243960942,None,671.2164243960942,None,671.2164243960942,None,671.2164243960942,None,672.2001247297703,None,,,,,,,,,,,,,,,,,,,,,,,,,,,,,,23540,2019_Oct_23_1716,Mmi_3levels,3.1.5,59.977814114431204,
,,,2,0,-0.1,,,,,,,,,0,1,1,1,0,18,18,23,,,,,,,,,,,,,,,,,,,,,,,,,,,,,,,,,,,,,,,,,,,,,,,,,,,,,,,,,,,False,True,True,0.52,0.52,10.209999999999997,-17.49,-0.1,-17.59,-8.845,certain,certain,-8.845,49.215416666666684,674.2175785784748,None,674.2175785784748,None,674.2175785784748,None,674.2175785784748,None,674.2175785784748,None,674.2175785784748,None,674.2175785784748,None,3,2.551286079797137,674.2175785784748,None,676.8019046089212,None,676.8019046089212,None,676.8019046089212,None,676.8019046089212,None,676.8019046089212,None,676.8019046089212,None,676.8019046089212,None,680.8035096487984,None,680.8035096487984,None,680.8035096487984,None,680.8035096487984,None,680.8035096487984,None,680.8035096487984,None,680.8035096487984,None,690.2904312616702,None,681.7871975030976,None,682.7875805239782,None,0.48,7.502799540248816,685.7887423859793,None,None,685.7887423859793,None,,,,,,,,,,,,,,,,,,,23540,2019_Oct_23_1716,Mmi_3levels,3.1.5,59.977814114431204,
,,,2,0,5.9,,,,,,,,,0,1,1,1,0,19,19,12,,,,,,,,,,,,,,,,,,,,,,,,,,,,,,,,,,,,,,,,,,,,,,,,,,,,,,,,,,,False,True,False,0.48,0.48,10.689999999999998,-17.409999999999997,5.9,-11.509999999999996,-2.804999999999998,certain,certain,-2.804999999999998,46.410416666666684,692.3078729509798,None,692.3078729509798,None,692.3078729509798,None,692.3078729509798,None,692.3078729509798,None,692.3078729509798,None,692.3078729509798,None,3,1.6342041805255576,692.3078729509798,None,693.9752095575386,None,693.9752095575386,None,693.9752095575386,None,693.9752095575386,None,693.9752095575386,None,693.9752095575386,None,693.9752095575386,None,697.9767182822216,None,697.9767182822216,None,697.9767182822216,None,697.9767182822216,None,697.9767182822216,None,697.9767182822216,None,697.9767182822216,None,698.960434295117,None,,,,,,,,,,,,,,,,,,,,,,,,,,,,,,23540,2019_Oct_23_1716,Mmi_3levels,3.1.5,59.977814114431204,
,,,2,0,12.5,,,,,,,,,0,1,1,1,0,20,20,18,,,,,,,,,,,,,,,,,,,,,,,,,,,,,,,,,,,,,,,,,,,,,,,,,,,,,,,,,,,False,False,False,0.48,0.48,11.169999999999998,2.610833333333333,3.125,0.5141666666666671,1.8195833333333336,gamble,win,3.125,49.535416666666684,700.9778811041724,None,700.9778811041724,None,700.9778811041724,None,700.9778811041724,None,700.9778811041724,None,700.9778811041724,None,700.9778811041724,None,1,1.9010276607004926,700.9778811041724,None,702.9119176770691,None,702.9119176770691,None,702.9119176770691,None,702.9119176770691,None,702.9119176770691,None,702.9119176770691,None,702.9119176770691,None,706.8967891522843,None,706.8967891522843,None,706.8967891522843,None,706.8967891522843,None,706.8967891522843,None,706.8967891522843,None,706.8967891522843,None,716.4005192060795,None,707.89721409107,None,708.897605751521,None,0.52,7.502804340005241,711.8987224957709,None,None,711.8987224957709,None,,,,,,,,,,,,,,,,,,,23540,2019_Oct_23_1716,Mmi_3levels,3.1.5,59.977814114431204,
,,,2,0,9.5,,,,,,,,,0,1,1,1,0,21,21,3,,,,,,,,,,,,,,,,,,,,,,,,,,,,,,,,,,,,,,,,,,,,,,,,,,,,,,,,,,,False,True,False,0.52,0.52,11.689999999999998,-18.97,9.5,-9.469999999999999,0.015000000000000568,certain,certain,0.015000000000000568,49.550416666666685,718.4179304969075,None,718.4179304969075,None,718.4179304969075,None,718.4179304969075,None,718.4179304969075,None,718.4179304969075,None,718.4179304969075,None,3,2.184379915754107,718.4179304969075,None,720.6354444386125,None,720.6354444386125,None,720.6354444386125,None,720.6354444386125,None,720.6354444386125,None,720.6354444386125,None,720.6354444386125,None,724.6203059943218,None,724.6203059943218,None,724.6203059943218,None,724.6203059943218,None,724.6203059943218,None,724.6203059943218,None,724.6203059943218,None,725.6207050144039,None,,,,,,,,,,,,,,,,,,,,,,,,,,,,,,23540,2019_Oct_23_1716,Mmi_3levels,3.1.5,59.977814114431204,
,,,2,0,7.9,,,,,,,,,0,1,1,1,0,22,22,19,,,,,,,,,,,,,,,,,,,,,,,,,,,,,,,,,,,,,,,,,,,,,,,,,,,,,,,,,,,False,True,True,0.52,0.52,12.209999999999997,-19.49,7.9,-11.589999999999998,-1.8449999999999989,certain,certain,-1.8449999999999989,47.705416666666686,727.6381825419267,None,727.6381825419267,None,727.6381825419267,None,727.6381825419267,None,727.6381825419267,None,727.6381825419267,None,727.6381825419267,None,3,1.3507572101989354,727.6381825419267,None,729.022004661525,None,729.022004661525,None,729.022004661525,None,729.022004661525,None,729.022004661525,None,729.022004661525,None,729.022004661525,None,733.0235418647899,None,733.0235418647899,None,733.0235418647899,None,733.0235418647899,None,733.0235418647899,None,733.0235418647899,None,733.0235418647899,None,742.510516275026,None,734.0072210795224,None,735.0076482581972,None,0.52,7.5028251389703655,738.0087822815876,None,None,738.0087822815876,None,,,,,,,,,,,,,,,,,,,23540,2019_Oct_23_1716,Mmi_3levels,3.1.5,59.977814114431204,
,,,2,0,7.3,,,,,,,,,0,1,1,1,0,23,23,6,,,,,,,,,,,,,,,,,,,,,,,,,,,,,,,,,,,,,,,,,,,,,,,,,,,,,,,,,,,False,True,True,0.52,0.52,12.729999999999997,-20.009999999999998,7.3,-12.709999999999997,-2.7049999999999987,certain,certain,-2.7049999999999987,45.00041666666669,744.5279586043034,None,744.5279586043034,None,744.5279586043034,None,744.5279586043034,None,744.5279586043034,None,744.5279586043034,None,744.5279586043034,None,3,1.667562195296341,744.5279586043034,None,746.2286305067646,None,746.2286305067646,None,746.2286305067646,None,746.2286305067646,None,746.2286305067646,None,746.2286305067646,None,746.2286305067646,None,750.23020610811,None,750.23020610811,None,750.23020610811,None,750.23020610811,None,750.23020610811,None,750.23020610811,None,750.23020610811,None,751.2138658038166,None,,,,,,,,,,,,,,,,,,,,,,,,,,,,,,23540,2019_Oct_23_1716,Mmi_3levels,3.1.5,59.977814114431204,
,,,2,0,2.5,,,,,,,,,0,1,1,1,0,24,24,21,,,,,,,,,,,,,,,,,,,,,,,,,,,,,,,,,,,,,,,,,,,,,,,,,,,,,,,,,,,False,False,False,0.52,0.52,13.249999999999996,2.9241666666666664,0.625,-2.2991666666666664,-0.8370833333333332,certain,certain,-0.8370833333333332,44.163333333333355,753.2313209324566,None,753.2313209324566,None,753.2313209324566,None,753.2313209324566,None,753.2313209324566,None,753.2313209324566,None,753.2313209324566,None,3,2.2509407530378667,753.2313209324566,None,755.5155413041757,None,755.5155413041757,None,755.5155413041757,None,755.5155413041757,None,755.5155413041757,None,755.5155413041757,None,755.5155413041757,None,759.5171130657145,None,759.5171130657145,None,759.5171130657145,None,759.5171130657145,None,759.5171130657145,None,759.5171130657145,None,759.5171130657145,None,760.5008332384023,None,,,,,,,,,,,,,,,,,,,,,,,,,,,,,,23540,2019_Oct_23_1716,Mmi_3levels,3.1.5,59.977814114431204,
,,,2,0,10.3,,,,,,,,,0,1,1,1,0,25,25,25,,,,,,,,,,,,,,,,,,,,,,,,,,,,,,,,,,,,,,,,,,,,,,,,,,,,,,,,,,,False,False,False,0.52,0.52,13.769999999999996,2.9675,2.575,-0.3924999999999996,1.0912500000000003,gamble,win,2.575,46.73833333333336,762.5182291699966,None,762.5182291699966,None,762.5182291699966,None,762.5182291699966,None,762.5182291699966,None,762.5182291699966,None,762.5182291699966,None,1,1.8676370075590967,762.5182291699966,None,764.4189640453151,None,764.4189640453151,None,764.4189640453151,None,764.4189640453151,None,764.4189640453151,None,764.4189640453151,None,764.4189640453151,None,768.4038176014255,None,768.4038176014255,None,768.4038176014255,None,768.4038176014255,None,768.4038176014255,None,768.4038176014255,None,768.4038176014255,None,777.9075047773586,None,769.4042326207054,None,770.4045932427034,None,0.54,7.502773621541564,773.4057314258862,None,None,773.4057314258862,None,,,,,,,,,,,,,,,,,,,23540,2019_Oct_23_1716,Mmi_3levels,3.1.5,59.977814114431204,
,,,2,0,3.7,,,,,,,,,0,1,1,1,0,26,26,16,,,,,,,,,,,,,,,,,,,,,,,,,,,,,,,,,,,,,,,,,,,,,,,,,,,,,,,,,,,False,False,True,0.54,0.54,14.309999999999995,3.0824999999999996,0.925,-2.1574999999999998,-0.6162499999999999,certain,certain,-0.6162499999999999,46.12208333333336,779.9249615059198,None,779.9249615059198,None,779.9249615059198,None,779.9249615059198,None,779.9249615059198,None,779.9249615059198,None,779.9249615059198,None,3,2.2844309212086955,779.9249615059198,None,782.2424854951241,None,782.2424854951241,None,782.2424854951241,None,782.2424854951241,None,782.2424854951241,None,782.2424854951241,None,782.2424854951241,None,786.2440175786396,None,786.2440175786396,None,786.2440175786396,None,786.2440175786396,None,786.2440175786396,None,786.2440175786396,None,786.2440175786396,None,787.2277230320651,None,,,,,,,,,,,,,,,,,,,,,,,,,,,,,,23540,2019_Oct_23_1716,Mmi_3levels,3.1.5,59.977814114431204,
,,,3,1,13.9,,,,,,,,,0,2,2,2,0,0,0,11,,,,,,,,,,,,,,,,,,,,,,,,,,,,,,,,,,,,,,,,,,,,,,,,796.481341411436,None,0.52,7.502099415196426,799.4824373567244,None,None,799.4824373567244,None,803.9842305472084,None,True,False,False,0.52,-0.48,-0.48,-1.72,13.9,12.18,6.09,gamble,lose,12.18,58.30208333333336,807.0186877071064,None,807.0186877071064,None,807.0186877071064,None,807.0186877071064,None,807.0186877071064,None,807.0186877071064,None,807.0186877071064,None,1,1.1674098828989372,807.0186877071064,None,808.219149060078,None,808.219149060078,None,808.219149060078,None,808.219149060078,None,808.219149060078,None,808.219149060078,None,808.219149060078,None,812.2206945829239,None,812.2206945829239,None,812.2206945829239,None,812.2206945829239,None,812.2206945829239,None,812.2206945829239,None,812.2206945829239,None,821.7076693131457,None,813.2044013162849,None,814.204844174179,None,0.52,7.5028664169076364,817.2059103609536,None,None,817.2059103609536,None,789.2284964334576,None,4,7.236327402537427,789.2284964334576,None,,,,,,,,,,,,,23540,2019_Oct_23_1716,Mmi_3levels,3.1.5,59.977814114431204,
,,,3,1,8.1,,,,,,,,,0,2,2,2,0,1,1,13,,,,,,,,,,,,,,,,,,,,,,,,,,,,,,,,,,,,,,,,,,,,,,,,,,,,,,,,,,,True,True,True,0.52,-0.48,-0.96,7.68,8.1,0.41999999999999993,0.20999999999999996,gamble,win,8.1,66.40208333333335,823.725121561929,None,823.725121561929,None,823.725121561929,None,823.725121561929,None,823.725121561929,None,823.725121561929,None,823.725121561929,None,1,1.634020509696711,823.725121561929,None,825.3757809210147,None,825.3757809210147,None,825.3757809210147,None,825.3757809210147,None,825.3757809210147,None,825.3757809210147,None,825.3757809210147,None,829.3772896456976,None,829.3772896456976,None,829.3772896456976,None,829.3772896456976,None,829.3772896456976,None,829.3772896456976,None,829.3772896456976,None,830.3776589072659,None,,,,,,,,,,,,,,,,,,,,,,,,,,,,,,23540,2019_Oct_23_1716,Mmi_3levels,3.1.5,59.977814114431204,
,,,3,1,4.5,,,,,,,,,0,2,2,2,0,2,2,3,,,,,,,,,,,,,,,,,,,,,,,,,,,,,,,,,,,,,,,,,,,,,,,,,,,,,,,,,,,True,True,True,0.52,-0.48,-1.44,8.16,4.5,-3.66,0.41999999999999993,certain,certain,0.41999999999999993,66.82208333333335,832.3951149958593,None,832.3951149958593,None,832.3951149958593,None,832.3951149958593,None,832.3951149958593,None,832.3951149958593,None,832.3951149958593,None,3,2.201150278579007,832.3951149958593,None,834.6293100248404,None,834.6293100248404,None,834.6293100248404,None,834.6293100248404,None,834.6293100248404,None,834.6293100248404,None,834.6293100248404,None,838.6142051788775,None,838.6142051788775,None,838.6142051788775,None,838.6142051788775,None,838.6142051788775,None,838.6142051788775,None,838.6142051788775,None,839.6145613210974,None,,,,,,,,,,,,,,,,,,,,,,,,,,,,,,23540,2019_Oct_23_1716,Mmi_3levels,3.1.5,59.977814114431204,
,,,3,1,6.5,,,,,,,,,0,2,2,2,0,3,3,7,,,,,,,,,,,,,,,,,,,,,,,,,,,,,,,,,,,,,,,,,,,,,,,,,,,,,,,,,,,True,True,True,0.52,-0.48,-1.92,8.64,6.5,-2.1400000000000006,-1.0700000000000003,gamble,win,6.5,73.32208333333335,841.6320548478216,None,841.6320548478216,None,841.6320548478216,None,841.6320548478216,None,841.6320548478216,None,841.6320548478216,None,841.6320548478216,None,1,2.0343851634934254,841.6320548478216,None,843.6995004409364,None,843.6995004409364,None,843.6995004409364,None,843.6995004409364,None,843.6995004409364,None,843.6995004409364,None,843.6995004409364,None,847.7010494836068,None,847.7010494836068,None,847.7010494836068,None,847.7010494836068,None,847.7010494836068,None,847.7010494836068,None,847.7010494836068,None,857.1879918954437,None,848.6847469374297,None,849.6851059595101,None,0.52,7.502799220263114,852.6862451026427,None,None,852.6862451026427,None,,,,,,,,,,,,,,,,,,,23540,2019_Oct_23_1716,Mmi_3levels,3.1.5,59.977814114431204,
,,,3,1,5.1,,,,,,,,,0,2,2,2,0,4,4,24,,,,,,,,,,,,,,,,,,,,,,,,,,,,,,,,,,,,,,,,,,,,,,,,,,,,,,,,,,,True,True,False,0.52,-0.48,-2.4,9.12,5.1,-4.02,0.54,certain,certain,0.54,73.86208333333336,859.2054393444669,None,859.2054393444669,None,859.2054393444669,None,859.2054393444669,None,859.2054393444669,None,859.2054393444669,None,859.2054393444669,None,3,1.7008974911987025,859.2054393444669,None,860.9394404631312,None,860.9394404631312,None,860.9394404631312,None,860.9394404631312,None,860.9394404631312,None,860.9394404631312,None,860.9394404631312,None,864.9243103384251,None,864.9243103384251,None,864.9243103384251,None,864.9243103384251,None,864.9243103384251,None,864.9243103384251,None,864.9243103384251,None,865.9246421618627,None,,,,,,,,,,,,,,,,,,,,,,,,,,,,,,23540,2019_Oct_23_1716,Mmi_3levels,3.1.5,59.977814114431204,
,,,3,1,-0.9,,,,,,,,,0,2,2,2,0,5,5,25,,,,,,,,,,,,,,,,,,,,,,,,,,,,,,,,,,,,,,,,,,,,,,,,,,,,,,,,,,,True,True,True,0.52,-0.48,-2.88,9.6,-0.9,-10.5,-5.7,certain,certain,-5.7,68.16208333333336,867.9421305688411,None,867.9421305688411,None,867.9421305688411,None,867.9421305688411,None,867.9421305688411,None,867.9421305688411,None,867.9421305688411,None,3,2.301181445025577,867.9421305688411,None,870.2764060418085,None,870.2764060418085,None,870.2764060418085,None,870.2764060418085,None,870.2764060418085,None,870.2764060418085,None,870.2764060418085,None,874.2779051669713,None,874.2779051669713,None,874.2779051669713,None,874.2779051669713,None,874.2779051669713,None,874.2779051669713,None,874.2779051669713,None,883.7649278947974,None,875.2616151001712,None,876.2619984410376,None,0.52,7.502745142963249,879.2631395040735,None,None,879.2631395040735,None,,,,,,,,,,,,,,,,,,,23540,2019_Oct_23_1716,Mmi_3levels,3.1.5,59.977814114431204,
,,,3,1,-0.3,,,,,,,,,0,2,2,2,0,6,6,26,,,,,,,,,,,,,,,,,,,,,,,,,,,,,,,,,,,,,,,,,,,,,,,,,,,,,,,,,,,True,True,True,0.52,-0.48,-3.36,10.08,-0.3,-10.38,-5.340000000000001,certain,certain,-5.340000000000001,62.82208333333335,885.7823705440605,None,885.7823705440605,None,885.7823705440605,None,885.7823705440605,None,885.7823705440605,None,885.7823705440605,None,885.7823705440605,None,3,1.8342460344356368,885.7823705440605,None,887.6497134863021,None,887.6497134863021,None,887.6497134863021,None,887.6497134863021,None,887.6497134863021,None,887.6497134863021,None,887.6497134863021,None,891.6512551693413,None,891.6512551693413,None,891.6512551693413,None,891.6512551693413,None,891.6512551693413,None,891.6512551693413,None,891.6512551693413,None,892.6350041405931,None,,,,,,,,,,,,,,,,,,,,,,,,,,,,,,23540,2019_Oct_23_1716,Mmi_3levels,3.1.5,59.977814114431204,
,,,3,1,0.1,,,,,,,,,0,2,2,2,0,7,7,22,,,,,,,,,,,,,,,,,,,,,,,,,,,,,,,,,,,,,,,,,,,,,,,,,,,,,,,,,,,True,True,False,0.52,-0.48,-3.84,10.559999999999999,0.1,-10.459999999999999,-5.18,certain,certain,-5.18,57.64208333333335,894.6524125515643,None,894.6524125515643,None,894.6524125515643,None,894.6524125515643,None,894.6524125515643,None,894.6524125515643,None,894.6524125515643,None,3,1.8843430535962398,894.6524125515643,None,896.569818594653,None,896.569818594653,None,896.569818594653,None,896.569818594653,None,896.569818594653,None,896.569818594653,None,896.569818594653,None,900.5713980358087,None,900.5713980358087,None,900.5713980358087,None,900.5713980358087,None,900.5713980358087,None,900.5713980358087,None,900.5713980358087,None,910.0583222085552,None,901.5550250931446,None,902.5554929097925,None,0.53,7.502869936732168,905.5565933348589,None,None,905.5565933348589,None,,,,,,,,,,,,,,,,,,,23540,2019_Oct_23_1716,Mmi_3levels,3.1.5,59.977814114431204,
,,,3,1,13.3,,,,,,,,,0,2,2,2,0,8,8,9,,,,,,,,,,,,,,,,,,,,,,,,,,,,,,,,,,,,,,,,,,,,,,,,,,,,,,,,,,,True,True,False,0.53,-0.47,-4.31,10.89,13.3,2.41,1.205,gamble,win,13.3,70.94208333333336,912.0757763772417,None,912.0757763772417,None,912.0757763772417,None,912.0757763772417,None,912.0757763772417,None,912.0757763772417,None,912.0757763772417,None,1,1.0507053087894747,912.0757763772417,None,913.1595270764083,None,913.1595270764083,None,913.1595270764083,None,913.1595270764083,None,913.1595270764083,None,913.1595270764083,None,913.1595270764083,None,917.1443959917524,None,917.1443959917524,None,917.1443959917524,None,917.1443959917524,None,917.1443959917524,None,917.1443959917524,None,917.1443959917524,None,918.1447722929661,None,,,,,,,,,,,,,,,,,,,,,,,,,,,,,,23540,2019_Oct_23_1716,Mmi_3levels,3.1.5,59.977814114431204,
,,,3,1,11.7,,,,,,,,,0,2,2,2,0,9,9,0,,,,,,,,,,,,,,,,,,,,,,,,,,,,,,,,,,,,,,,,,,,,,,,,,,,,,,,,,,,True,True,False,0.53,-0.47,-4.779999999999999,11.36,11.7,0.33999999999999986,0.16999999999999993,gamble,win,11.7,82.64208333333336,920.1622536602954,None,920.1622536602954,None,920.1622536602954,None,920.1622536602954,None,920.1622536602954,None,920.1622536602954,None,920.1622536602954,None,1,1.7009224499524862,920.1622536602954,None,921.8962259803993,None,921.8962259803993,None,921.8962259803993,None,921.8962259803993,None,921.8962259803993,None,921.8962259803993,None,921.8962259803993,None,925.8810913759153,None,925.8810913759153,None,925.8810913759153,None,925.8810913759153,None,925.8810913759153,None,925.8810913759153,None,925.8810913759153,None,926.8814740768139,None,,,,,,,,,,,,,,,,,,,,,,,,,,,,,,23540,2019_Oct_23_1716,Mmi_3levels,3.1.5,59.977814114431204,
,,,3,1,5.3,,,,,,,,,0,2,2,2,0,10,10,5,,,,,,,,,,,,,,,,,,,,,,,,,,,,,,,,,,,,,,,,,,,,,,,,,,,,,,,,,,,True,False,True,0.53,-0.47,-5.249999999999999,-2.0825,5.3,3.2175,1.60875,gamble,lose,3.2175,85.85958333333336,928.8989183259946,None,928.8989183259946,None,928.8989183259946,None,928.8989183259946,None,928.8989183259946,None,928.8989183259946,None,928.8989183259946,None,1,1.400797592184972,928.8989183259946,None,930.3328067462862,None,930.3328067462862,None,930.3328067462862,None,930.3328067462862,None,930.3328067462862,None,930.3328067462862,None,930.3328067462862,None,934.3176705418846,None,934.3176705418846,None,934.3176705418846,None,934.3176705418846,None,934.3176705418846,None,934.3176705418846,None,934.3176705418846,None,943.8213157999126,None,935.3180570825898,None,936.3184458631804,None,0.52,7.502725303955231,939.3195824464419,None,None,939.3195824464419,None,,,,,,,,,,,,,,,,,,,23540,2019_Oct_23_1716,Mmi_3levels,3.1.5,59.977814114431204,
,,,3,1,3.1,,,,,,,,,0,2,2,2,0,11,11,4,,,,,,,,,,,,,,,,,,,,,,,,,,,,,,,,,,,,,,,,,,,,,,,,,,,,,,,,,,,True,False,True,0.52,-0.48,-5.729999999999999,-2.1574999999999998,3.1,0.9425000000000003,0.47125000000000017,gamble,lose,0.9425000000000003,86.80208333333336,945.838769328635,None,945.838769328635,None,945.838769328635,None,945.838769328635,None,945.838769328635,None,945.838769328635,None,945.838769328635,None,1,1.8843152149856905,945.838769328635,None,947.7562192095356,None,947.7562192095356,None,947.7562192095356,None,947.7562192095356,None,947.7562192095356,None,947.7562192095356,None,947.7562192095356,None,951.7410471669245,None,951.7410471669245,None,951.7410471669245,None,951.7410471669245,None,951.7410471669245,None,951.7410471669245,None,951.7410471669245,None,952.7413924296889,None,,,,,,,,,,,,,,,,,,,,,,,,,,,,,,23540,2019_Oct_23_1716,Mmi_3levels,3.1.5,59.977814114431204,
,,,3,1,11.9,,,,,,,,,0,2,2,2,0,12,12,6,,,,,,,,,,,,,,,,,,,,,,,,,,,,,,,,,,,,,,,,,,,,,,,,,,,,,,,,,,,True,True,False,0.52,-0.48,-6.209999999999999,12.93,11.9,-1.0299999999999994,-0.5149999999999997,gamble,win,11.9,98.70208333333336,954.7588693172438,None,954.7588693172438,None,954.7588693172438,None,954.7588693172438,None,954.7588693172438,None,954.7588693172438,None,954.7588693172438,None,1,1.8842902562282688,954.7588693172438,None,956.6762580811956,None,956.6762580811956,None,956.6762580811956,None,956.6762580811956,None,956.6762580811956,None,956.6762580811956,None,956.6762580811956,None,960.6778010441703,None,960.6778010441703,None,960.6778010441703,None,960.6778010441703,None,960.6778010441703,None,960.6778010441703,None,960.6778010441703,None,970.1647959333859,None,961.6615276165394,None,962.6619503154398,None,0.53,7.502812339607772,965.663060660012,None,None,965.663060660012,None,,,,,,,,,,,,,,,,,,,23540,2019_Oct_23_1716,Mmi_3levels,3.1.5,59.977814114431204,
,,,3,1,1.5,,,,,,,,,0,2,2,2,0,13,13,18,,,,,,,,,,,,,,,,,,,,,,,,,,,,,,,,,,,,,,,,,,,,,,,,,,,,,,,,,,,True,True,False,0.53,-0.47,-6.679999999999999,13.259999999999998,1.5,-11.759999999999998,-5.129999999999999,certain,certain,-5.129999999999999,93.57208333333337,972.1822379426812,None,972.1822379426812,None,972.1822379426812,None,972.1822379426812,None,972.1822379426812,None,972.1822379426812,None,972.1822379426812,None,3,1.5008345183414349,972.1822379426812,None,973.7161748085528,None,973.7161748085528,None,973.7161748085528,None,973.7161748085528,None,973.7161748085528,None,973.7161748085528,None,973.7161748085528,None,977.7177062521041,None,977.7177062521041,None,977.7177062521041,None,977.7177062521041,None,977.7177062521041,None,977.7177062521041,None,977.7177062521041,None,978.7013867467722,None,,,,,,,,,,,,,,,,,,,,,,,,,,,,,,23540,2019_Oct_23_1716,Mmi_3levels,3.1.5,59.977814114431204,
,,,3,1,8.3,,,,,,,,,0,2,2,2,0,14,14,12,,,,,,,,,,,,,,,,,,,,,,,,,,,,,,,,,,,,,,,,,,,,,,,,,,,,,,,,,,,True,True,True,0.53,-0.47,-7.149999999999999,13.729999999999999,8.3,-5.429999999999998,1.4350000000000014,certain,certain,1.4350000000000014,95.00708333333337,980.7189017124256,None,980.7189017124256,None,980.7189017124256,None,980.7189017124256,None,980.7189017124256,None,980.7189017124256,None,980.7189017124256,None,3,1.317432793752232,980.7189017124256,None,982.0693786166194,None,982.0693786166194,None,982.0693786166194,None,982.0693786166194,None,982.0693786166194,None,982.0693786166194,None,982.0693786166194,None,986.0542872099795,None,986.0542872099795,None,986.0542872099795,None,986.0542872099795,None,986.0542872099795,None,986.0542872099795,None,986.0542872099795,None,987.0546702308602,None,,,,,,,,,,,,,,,,,,,,,,,,,,,,,,23540,2019_Oct_23_1716,Mmi_3levels,3.1.5,59.977814114431204,
,,,3,1,-1.1,,,,,,,,,0,2,2,2,0,15,15,1,,,,,,,,,,,,,,,,,,,,,,,,,,,,,,,,,,,,,,,,,,,,,,,,,,,,,,,,,,,True,True,True,0.53,-0.47,-7.619999999999998,14.2,-1.1,-15.299999999999999,-8.2,certain,certain,-8.2,86.80708333333337,989.0720722421538,None,989.0720722421538,None,989.0720722421538,None,989.0720722421538,None,989.0720722421538,None,989.0720722421538,None,989.0720722421538,None,3,2.7513020150036027,989.0720722421538,None,991.8564775646373,None,991.8564775646373,None,991.8564775646373,None,991.8564775646373,None,991.8564775646373,None,991.8564775646373,None,991.8564775646373,None,995.858059565664,None,995.858059565664,None,995.858059565664,None,995.858059565664,None,995.858059565664,None,995.858059565664,None,995.858059565664,None,1005.3450496551195,None,996.8417346206079,None,997.8421157215816,None,0.54,7.502808179815474,1000.8432612643956,None,None,1000.8432612643956,None,,,,,,,,,,,,,,,,,,,23540,2019_Oct_23_1716,Mmi_3levels,3.1.5,59.977814114431204,
,,,3,1,12.5,,,,,,,,,0,2,2,2,0,16,16,17,,,,,,,,,,,,,,,,,,,,,,,,,,,,,,,,,,,,,,,,,,,,,,,,,,,,,,,,,,,True,True,False,0.54,-0.45999999999999996,-8.079999999999998,14.519999999999998,12.5,-2.019999999999998,-1.009999999999999,gamble,win,12.5,99.30708333333337,1007.3623767901481,None,1007.3623767901481,None,1007.3623767901481,None,1007.3623767901481,None,1007.3623767901481,None,1007.3623767901481,None,1007.3623767901481,None,1,2.8014361523055413,1007.3623767901481,None,1010.1969367289166,None,1010.1969367289166,None,1010.1969367289166,None,1010.1969367289166,None,1010.1969367289166,None,1010.1969367289166,None,1010.1969367289166,None,1014.1984524932486,None,1014.1984524932486,None,1014.1984524932486,None,1014.1984524932486,None,1014.1984524932486,None,1014.1984524932486,None,1014.1984524932486,None,1015.1821048293241,None,,,,,,,,,,,,,,,,,,,,,,,,,,,,,,23540,2019_Oct_23_1716,Mmi_3levels,3.1.5,59.977814114431204,
,,,3,1,9.5,,,,,,,,,0,2,2,2,0,17,17,2,,,,,,,,,,,,,,,,,,,,,,,,,,,,,,,,,,,,,,,,,,,,,,,,,,,,,,,,,,,True,True,True,0.54,-0.45999999999999996,-8.54,14.979999999999999,9.5,-5.479999999999999,-2.7399999999999993,certain,certain,-2.7399999999999993,96.56708333333337,1017.1996041157618,None,1017.1996041157618,None,1017.1996041157618,None,1017.1996041157618,None,1017.1996041157618,None,1017.1996041157618,None,1017.1996041157618,None,3,1.6174795754195657,1017.1996041157618,None,1018.8502017179271,None,1018.8502017179271,None,1018.8502017179271,None,1018.8502017179271,None,1018.8502017179271,None,1018.8502017179271,None,1018.8502017179271,None,1022.8517430809843,None,1022.8517430809843,None,1022.8517430809843,None,1022.8517430809843,None,1022.8517430809843,None,1022.8517430809843,None,1022.8517430809843,None,1032.3387664487782,None,1023.8354910922826,None,1024.8358376349825,None,0.52,7.502742583088548,1027.8369783780363,None,None,1027.8369783780363,None,,,,,,,,,,,,,,,,,,,23540,2019_Oct_23_1716,Mmi_3levels,3.1.5,59.977814114431204,
,,,3,1,1.7,,,,,,,,,0,2,2,2,0,18,18,20,,,,,,,,,,,,,,,,,,,,,,,,,,,,,,,,,,,,,,,,,,,,,,,,,,,,,,,,,,,True,True,False,0.52,-0.48,-9.02,15.739999999999998,1.7,-14.04,-6.17,certain,certain,-6.17,90.39708333333337,1034.3561511809312,None,1034.3561511809312,None,1034.3561511809312,None,1034.3561511809312,None,1034.3561511809312,None,1034.3561511809312,None,1034.3561511809312,None,3,1.4175138777063694,1034.3561511809312,None,1035.8067290080871,None,1035.8067290080871,None,1035.8067290080871,None,1035.8067290080871,None,1035.8067290080871,None,1035.8067290080871,None,1035.8067290080871,None,1039.8082684512374,None,1039.8082684512374,None,1039.8082684512374,None,1039.8082684512374,None,1039.8082684512374,None,1039.8082684512374,None,1039.8082684512374,None,1040.7919886239251,None,,,,,,,,,,,,,,,,,,,,,,,,,,,,,,23540,2019_Oct_23_1716,Mmi_3levels,3.1.5,59.977814114431204,
,,,3,1,2.3,,,,,,,,,0,2,2,2,0,19,19,10,,,,,,,,,,,,,,,,,,,,,,,,,,,,,,,,,,,,,,,,,,,,,,,,,,,,,,,,,,,True,False,True,0.52,-0.48,-9.5,-2.4716666666666667,2.3,-0.17166666666666686,1.0641666666666665,certain,certain,1.0641666666666665,91.46125000000004,1042.809421353686,None,1042.809421353686,None,1042.809421353686,None,1042.809421353686,None,1042.809421353686,None,1042.809421353686,None,1042.809421353686,None,3,1.9175362765890895,1042.809421353686,None,1044.7601694123405,None,1044.7601694123405,None,1044.7601694123405,None,1044.7601694123405,None,1044.7601694123405,None,1044.7601694123405,None,1044.7601694123405,None,1048.7617110953797,None,1048.7617110953797,None,1048.7617110953797,None,1048.7617110953797,None,1048.7617110953797,None,1048.7617110953797,None,1048.7617110953797,None,1058.2486375080152,None,1049.7454619865348,None,1050.7458622865524,None,0.52,7.502783221061691,1053.7469380728508,None,None,1053.7469380728508,None,,,,,,,,,,,,,,,,,,,23540,2019_Oct_23_1716,Mmi_3levels,3.1.5,59.977814114431204,
,,,3,1,9.9,,,,,,,,,0,2,2,2,0,20,20,16,,,,,,,,,,,,,,,,,,,,,,,,,,,,,,,,,,,,,,,,,,,,,,,,,,,,,,,,,,,True,True,True,0.52,-0.48,-9.98,16.7,9.9,-6.799999999999999,1.5500000000000007,certain,certain,1.5500000000000007,93.01125000000003,1060.2661358344994,None,1060.2661358344994,None,1060.2661358344994,None,1060.2661358344994,None,1060.2661358344994,None,1060.2661358344994,None,1060.2661358344994,None,3,1.3674536567123141,1060.2661358344994,None,1061.6666835191572,None,1061.6666835191572,None,1061.6666835191572,None,1061.6666835191572,None,1061.6666835191572,None,1061.6666835191572,None,1061.6666835191572,None,1065.6682184825331,None,1065.6682184825331,None,1065.6682184825331,None,1065.6682184825331,None,1065.6682184825331,None,1065.6682184825331,None,1065.6682184825331,None,1066.6519303356363,None,,,,,,,,,,,,,,,,,,,,,,,,,,,,,,23540,2019_Oct_23_1716,Mmi_3levels,3.1.5,59.977814114431204,
,,,3,1,10.3,,,,,,,,,0,2,2,2,0,21,21,19,,,,,,,,,,,,,,,,,,,,,,,,,,,,,,,,,,,,,,,,,,,,,,,,,,,,,,,,,,,True,True,True,0.52,-0.48,-10.46,17.18,10.3,-6.879999999999999,1.7100000000000009,certain,certain,1.7100000000000009,94.72125000000003,1068.6693697850606,None,1068.6693697850606,None,1068.6693697850606,None,1068.6693697850606,None,1068.6693697850606,None,1068.6693697850606,None,1068.6693697850606,None,3,1.1506843178358395,1068.6693697850606,None,1069.8531602902367,None,1069.8531602902367,None,1069.8531602902367,None,1069.8531602902367,None,1069.8531602902367,None,1069.8531602902367,None,1069.8531602902367,None,1073.8547035731972,None,1073.8547035731972,None,1073.8547035731972,None,1073.8547035731972,None,1073.8547035731972,None,1073.8547035731972,None,1073.8547035731972,None,1074.8384080666692,None,,,,,,,,,,,,,,,,,,,,,,,,,,,,,,23540,2019_Oct_23_1716,Mmi_3levels,3.1.5,59.977814114431204,
,,,3,1,7.5,,,,,,,,,0,2,2,2,0,22,22,14,,,,,,,,,,,,,,,,,,,,,,,,,,,,,,,,,,,,,,,,,,,,,,,,,,,,,,,,,,,True,True,True,0.52,-0.48,-10.940000000000001,17.66,7.5,-10.16,-1.33,certain,certain,-1.33,93.39125000000003,1076.8558526358356,None,1076.8558526358356,None,1076.8558526358356,None,1076.8558526358356,None,1076.8558526358356,None,1076.8558526358356,None,1076.8558526358356,None,3,1.3505911384891078,1076.8558526358356,None,1078.2397614711044,None,1078.2397614711044,None,1078.2397614711044,None,1078.2397614711044,None,1078.2397614711044,None,1078.2397614711044,None,1078.2397614711044,None,1082.241257716414,None,1082.241257716414,None,1082.241257716414,None,1082.241257716414,None,1082.241257716414,None,1082.241257716414,None,1082.241257716414,None,1091.7282670049099,None,1083.2249769291484,None,1084.2253522704123,None,0.52,7.502766581892502,1087.2264968532763,None,None,1087.2264968532763,None,,,,,,,,,,,,,,,,,,,23540,2019_Oct_23_1716,Mmi_3levels,3.1.5,59.977814114431204,
,,,3,1,5.5,,,,,,,,,0,2,2,2,0,23,23,8,,,,,,,,,,,,,,,,,,,,,,,,,,,,,,,,,,,,,,,,,,,,,,,,,,,,,,,,,,,True,True,True,0.52,-0.48,-11.420000000000002,18.14,5.5,-12.64,-3.5700000000000003,certain,certain,-3.5700000000000003,89.82125000000002,1093.7456920550503,None,1093.7456920550503,None,1093.7456920550503,None,1093.7456920550503,None,1093.7456920550503,None,1093.7456920550503,None,1093.7456920550503,None,3,2.084372428129427,1093.7456920550503,None,1095.8631674706776,None,1095.8631674706776,None,1095.8631674706776,None,1095.8631674706776,None,1095.8631674706776,None,1095.8631674706776,None,1095.8631674706776,None,1099.864730272664,None,1099.864730272664,None,1099.864730272664,None,1099.864730272664,None,1099.864730272664,None,1099.864730272664,None,1099.864730272664,None,1100.8484075674933,None,,,,,,,,,,,,,,,,,,,,,,,,,,,,,,23540,2019_Oct_23_1716,Mmi_3levels,3.1.5,59.977814114431204,
,,,3,1,6.9,,,,,,,,,0,2,2,2,0,24,24,15,,,,,,,,,,,,,,,,,,,,,,,,,,,,,,,,,,,,,,,,,,,,,,,,,,,,,,,,,,,True,True,False,0.52,-0.48,-11.900000000000002,18.62,6.9,-11.72,-2.41,certain,certain,-2.41,87.41125000000002,1102.8658617361798,None,1102.8658617361798,None,1102.8658617361798,None,1102.8658617361798,None,1102.8658617361798,None,1102.8658617361798,None,1102.8658617361798,None,3,1.700946768734866,1102.8658617361798,None,1104.5998692545254,None,1104.5998692545254,None,1104.5998692545254,None,1104.5998692545254,None,1104.5998692545254,None,1104.5998692545254,None,1104.5998692545254,None,1108.6014605350902,None,1108.6014605350902,None,1108.6014605350902,None,1108.6014605350902,None,1108.6014605350902,None,1108.6014605350902,None,1108.6014605350902,None,1118.0883923874499,None,1109.5851215107323,None,1110.585497491964,None,0.52,7.502820659192366,1113.5866427147957,None,None,1113.5866427147957,None,,,,,,,,,,,,,,,,,,,23540,2019_Oct_23_1716,Mmi_3levels,3.1.5,59.977814114431204,
,,,3,1,4.7,,,,,,,,,0,2,2,2,0,25,25,23,,,,,,,,,,,,,,,,,,,,,,,,,,,,,,,,,,,,,,,,,,,,,,,,,,,,,,,,,,,True,True,False,0.52,-0.48,-12.380000000000003,19.1,4.7,-14.400000000000002,-4.850000000000001,certain,certain,-4.850000000000001,82.56125000000003,1120.105837596584,None,1120.105837596584,None,1120.105837596584,None,1120.105837596584,None,1120.105837596584,None,1120.105837596584,None,1120.105837596584,None,3,1.8510135174037714,1120.105837596584,None,1121.9898875448125,None,1121.9898875448125,None,1121.9898875448125,None,1121.9898875448125,None,1121.9898875448125,None,1121.9898875448125,None,1121.9898875448125,None,1125.9747545402533,None,1125.9747545402533,None,1125.9747545402533,None,1125.9747545402533,None,1125.9747545402533,None,1125.9747545402533,None,1125.9747545402533,None,1126.9751820389101,None,,,,,,,,,,,,,,,,,,,,,,,,,,,,,,23540,2019_Oct_23_1716,Mmi_3levels,3.1.5,59.977814114431204,
,,,3,1,10.1,,,,,,,,,0,2,2,2,0,26,26,21,,,,,,,,,,,,,,,,,,,,,,,,,,,,,,,,,,,,,,,,,,,,,,,,,,,,,,,,,,,True,True,True,0.52,-0.48,-12.860000000000003,19.580000000000002,10.1,-9.480000000000002,0.3099999999999987,certain,certain,0.3099999999999987,82.87125000000003,1128.992581170347,None,1128.992581170347,None,1128.992581170347,None,1128.992581170347,None,1128.992581170347,None,1128.992581170347,None,1128.992581170347,None,3,1.284089498254616,1128.992581170347,None,1130.3097627766401,None,1130.3097627766401,None,1130.3097627766401,None,1130.3097627766401,None,1130.3097627766401,None,1130.3097627766401,None,1130.3097627766401,None,1134.3112606218674,None,1134.3112606218674,None,1134.3112606218674,None,1134.3112606218674,None,1134.3112606218674,None,1134.3112606218674,None,1134.3112606218674,None,1143.7983233476953,None,1135.295004793359,None,1136.2954402916184,None,0.53,7.502757622340141,1139.2965362369105,None,None,1139.2965362369105,None,,,,,,,,,,,,,,,,,,,23540,2019_Oct_23_1716,Mmi_3levels,3.1.5,59.977814114431204,
,,,,,,,,,,,,,,,,,,,,,,,,,,,,,,0,0,0,0,,,,,,,,,,,,,,,,,,,,,,,,,,,,,,,,,,,,,,,,,,,,,,,,,,,,,,,,,,,,,,,,,,,,,,,,,,,,,,,,,,,,,,,,,,,,,,,,,,,,,,,,,,,,,,,,,,,,,,,,1145.7990413918524,None,4,2.6346003207509057,1145.7990413918524,None,82.87125000000003,3,1148.4667485399114,None,1148.4667485399114,None,1148.4667485399114,None,4,5.719064584292937,1148.4667485399114,None,23540,2019_Oct_23_1716,Mmi_3levels,3.1.5,59.977814114431204,
