currSlide,currImage,currText,blockNum,targetHappiness,highAmount,instructionLoop1.thisRepN,instructionLoop1.thisTrialN,instructionLoop1.thisN,instructionLoop1.thisIndex,instructionLoop2.thisRepN,instructionLoop2.thisTrialN,instructionLoop2.thisN,instructionLoop2.thisIndex,blockLoop.thisRepN,blockLoop.thisTrialN,blockLoop.thisN,blockLoop.thisIndex,trialLoop.thisRepN,trialLoop.thisTrialN,trialLoop.thisN,trialLoop.thisIndex,doRatingLoop.thisRepN,doRatingLoop.thisTrialN,doRatingLoop.thisN,doRatingLoop.thisIndex,trialHappyLoop.thisRepN,trialHappyLoop.thisTrialN,trialHappyLoop.thisN,trialHappyLoop.thisIndex,logWinningsLoop.thisRepN,logWinningsLoop.thisTrialN,logWinningsLoop.thisN,logWinningsLoop.thisIndex,instrImage.started,instrImage.stopped,instrText.started,instrText.stopped,instrContinueText.started,instrContinueText.stopped,instrKeyResp.keys,instrKeyResp.rt,instrKeyResp.started,instrKeyResp.stopped,lifeHappyText.started,lifeHappyText.stopped,lifeHappySlider.response,lifeHappySlider.rt,lifeHappySlider.started,lifeHappySlider.stopped,lifeHappyResp.keys,lifeHappyResp.rt,lifeHappyResp.started,lifeHappyResp.stopped,instrImage_2.started,instrImage_2.stopped,instrText_2.started,instrText_2.stopped,instrContinueText_2.started,instrContinueText_2.stopped,instrKeyResp_2.keys,instrKeyResp_2.rt,instrKeyResp_2.started,instrKeyResp_2.stopped,localizing.started,localizing.stopped,start_exp.keys,start_exp.rt,start_exp.started,start_exp.stopped,blockHappyText.started,blockHappyText.stopped,blockHappySlider.response,blockHappySlider.rt,blockHappySlider.started,blockHappySlider.stopped,blockHappyResp.keys,blockHappyResp.rt,blockHappyResp.started,blockHappyResp.stopped,blankText.started,blankText.stopped,isHappyBlock,isCongruent,isWinOnTop,lastHappyRating,diff,sumDiff,RPE,winAmount,loseAmount,certainAmount,choice,outcome,outcomeAmount,currentWinnings,fixCross.started,fixCross.stopped,certainBox.started,certainBox.stopped,outcome1Box.started,outcome1Box.stopped,outcome2Box.started,outcome2Box.stopped,certainText.started,certainText.stopped,outcome1Text.started,outcome1Text.stopped,outcome2Text.started,outcome2Text.stopped,choiceKey.keys,choiceKey.rt,choiceKey.started,choiceKey.stopped,fixCross_2.started,fixCross_2.stopped,certainBox_2.started,certainBox_2.stopped,outcome1Box_2.started,outcome1Box_2.stopped,outcome2Box_2.started,outcome2Box_2.stopped,certainText_2.started,certainText_2.stopped,outcome1Text_2.started,outcome1Text_2.stopped,outcome2Text_2.started,outcome2Text_2.stopped,fixCross_3.started,fixCross_3.stopped,certainBox_3.started,certainBox_3.stopped,outcome1Box_3.started,outcome1Box_3.stopped,outcome2Box_3.started,outcome2Box_3.stopped,certainText_3.started,certainText_3.stopped,outcome1Text_3.started,outcome1Text_3.stopped,outcome2Text_3.started,outcome2Text_3.stopped,fixCross_ITI.started,fixCross_ITI.stopped,fixCross_ISI.started,fixCross_ISI.stopped,happyText.started,happyText.stopped,happySlider.response,happySlider.rt,happySlider.started,happySlider.stopped,happyResp.keys,happyResp.started,happyResp.stopped,endOfBlockText.started,endOfBlockText.stopped,restKeyResp.keys,restKeyResp.rt,restKeyResp.started,restKeyResp.stopped,finalWinnings,cashBonus,goodbyeText.started,goodbyeText.stopped,finalWinningsText.started,finalWinningsText.stopped,spaceToContinue.started,spaceToContinue.stopped,goodbyeKeyResp_2.keys,goodbyeKeyResp_2.rt,goodbyeKeyResp_2.started,goodbyeKeyResp_2.stopped,participant,date,expName,psychopyVersion,frameRate,
1,black.png,"Welcome! You are about to play our gambling task.
This task has 3 blocks and takes about 15 minutes.",,,,0,0,0,0,,,,,,,,,,,,,,,,,,,,,,,,,18.68956305041138,None,18.68956305041138,None,18.68956305041138,None,4,86.4165986702792,18.68956305041138,None,,,,,,,,,,,,,,,,,,,,,,,,,,,,,,,,,,,,,,,,,,,,,,,,,,,,,,,,,,,,,,,,,,,,,,,,,,,,,,,,,,,,,,,,,,,,,,,,,,,,,,,,,,,,,,,,,,,,,,,,,,,,,,,,,,23693,2020_Mar_02_1643,Mmi_3levels,3.1.5,59.96707263076865,
2,black.png,"In this game, you may win or lose points. Your goal is to get as many points as possible. These points will be converted to a cash bonus at the end.
Sometimes we will ask you to rate your mood.",,,,0,1,1,1,,,,,,,,,,,,,,,,,,,,,,,,,105.15587907970621,None,105.15587907970621,None,105.15587907970621,None,4,5.96922211491983,105.15587907970621,None,,,,,,,,,,,,,,,,,,,,,,,,,,,,,,,,,,,,,,,,,,,,,,,,,,,,,,,,,,,,,,,,,,,,,,,,,,,,,,,,,,,,,,,,,,,,,,,,,,,,,,,,,,,,,,,,,,,,,,,,,,,,,,,,,,23693,2020_Mar_02_1643,Mmi_3levels,3.1.5,59.96707263076865,
3,black.png,"On the next screen, please rate how you feel about your life these days. Use the LEFT (green) and RIGHT (blue) buttons to move the slider (you can press and hold them to slide gradually) and the TOP (red) button to lock in your response.
Make your rating as accurately and quickly as you can!",,,,0,2,2,2,,,,,,,,,,,,,,,,,,,,,,,,,111.17489470959481,None,111.17489470959481,None,111.17489470959481,None,4,8.636836571244203,111.17489470959481,None,,,,,,,,,,,,,,,,,,,,,,,,,,,,,,,,,,,,,,,,,,,,,,,,,,,,,,,,,,,,,,,,,,,,,,,,,,,,,,,,,,,,,,,,,,,,,,,,,,,,,,,,,,,,,,,,,,,,,,,,,,,,,,,,,,23693,2020_Mar_02_1643,Mmi_3levels,3.1.5,59.96707263076865,
,,,,,,,,,,,,,,,,,,,,,,,,,,,,,,,,,,,,,,,,,,,,119.82819984602611,None,0.98,8.719142279162043,123.82977064258375,None,4,4.702016788865876,123.82977064258375,None,,,,,,,,,,,,,,,,,,,,,,,,,,,,,,,,,,,,,,,,,,,,,,,,,,,,,,,,,,,,,,,,,,,,,,,,,,,,,,,,,,,,,,,,,,,,,,,,,,,,,,,,,,,,,,,,,,,,,,,,23693,2020_Mar_02_1643,Mmi_3levels,3.1.5,59.96707263076865,
4,black.png,"In this game you can win money by earning points according to your choices. You will decide whether to gamble a number of points or stick with a guaranteed number of points. 
Make your choice by pressing the left or right arrow key once. An example of one trial is shown on the next screen.",,,,,,,,0,0,0,0,,,,,,,,,,,,,,,,,,,,,,,,,,,,,,,,,,,,,,,,,128.5982843791353,None,128.5982843791353,None,128.5982843791353,None,4,8.53670685013276,128.5982843791353,None,,,,,,,,,,,,,,,,,,,,,,,,,,,,,,,,,,,,,,,,,,,,,,,,,,,,,,,,,,,,,,,,,,,,,,,,,,,,,,,,,,,,,,,,,,,,,,,,,,,,,,,,,,,,,,23693,2020_Mar_02_1643,Mmi_3levels,3.1.5,59.96707263076865,
5,example_start.png,"The GAMBLING OPTION will be shown on the RIGHT SIDE. 
Select this option using the RIGHT (blue) button on your keypad.",,,,,,,,0,1,1,1,,,,,,,,,,,,,,,,,,,,,,,,,,,,,,,,,,,,,,,,,137.2014856170863,None,137.2014856170863,None,137.2014856170863,None,4,6.31925824100108,137.2014856170863,None,,,,,,,,,,,,,,,,,,,,,,,,,,,,,,,,,,,,,,,,,,,,,,,,,,,,,,,,,,,,,,,,,,,,,,,,,,,,,,,,,,,,,,,,,,,,,,,,,,,,,,,,,,,,,,23693,2020_Mar_02_1643,Mmi_3levels,3.1.5,59.96707263076865,
6,example_gamble.png,"Once you select the gambling choice, the choice you made will remain on the screen.",,,,,,,,0,2,2,2,,,,,,,,,,,,,,,,,,,,,,,,,,,,,,,,,,,,,,,,,143.5539616135611,None,143.5539616135611,None,143.5539616135611,None,4,1.5340634705498815,143.5539616135611,None,,,,,,,,,,,,,,,,,,,,,,,,,,,,,,,,,,,,,,,,,,,,,,,,,,,,,,,,,,,,,,,,,,,,,,,,,,,,,,,,,,,,,,,,,,,,,,,,,,,,,,,,,,,,,,23693,2020_Mar_02_1643,Mmi_3levels,3.1.5,59.96707263076865,
7,example_win.png,"The outcome you received will then be shown on the screen. In this example , you WON 10 points.",,,,,,,,0,3,3,3,,,,,,,,,,,,,,,,,,,,,,,,,,,,,,,,,,,,,,,,,145.1211794829469,None,145.1211794829469,None,145.1211794829469,None,4,0.9005281639438181,145.1211794829469,None,,,,,,,,,,,,,,,,,,,,,,,,,,,,,,,,,,,,,,,,,,,,,,,,,,,,,,,,,,,,,,,,,,,,,,,,,,,,,,,,,,,,,,,,,,,,,,,,,,,,,,,,,,,,,,23693,2020_Mar_02_1643,Mmi_3levels,3.1.5,59.96707263076865,
8,example_start.png,"The GUARANTEED OPTION will be shown on the LEFT SIDE. You are 100% guaranteed to gain or lose this amount. In this example, you have a 100% chance of winning 1 point. Select this option using the LEFT (green) button on your keyboard.",,,,,,,,0,4,4,4,,,,,,,,,,,,,,,,,,,,,,,,,,,,,,,,,,,,,,,,,146.07153476007443,None,146.07153476007443,None,146.07153476007443,None,4,1.734192999669176,146.07153476007443,None,,,,,,,,,,,,,,,,,,,,,,,,,,,,,,,,,,,,,,,,,,,,,,,,,,,,,,,,,,,,,,,,,,,,,,,,,,,,,,,,,,,,,,,,,,,,,,,,,,,,,,,,,,,,,,23693,2020_Mar_02_1643,Mmi_3levels,3.1.5,59.96707263076865,
9,example_certain.png,"Once you select the guaranteed choice, your selection will remain on the screen.",,,,,,,,0,5,5,5,,,,,,,,,,,,,,,,,,,,,,,,,,,,,,,,,,,,,,,,,147.83887415900608,None,147.83887415900608,None,147.83887415900608,None,4,1.8342571242610575,147.83887415900608,None,,,,,,,,,,,,,,,,,,,,,,,,,,,,,,,,,,,,,,,,,,,,,,,,,,,,,,,,,,,,,,,,,,,,,,,,,,,,,,,,,,,,,,,,,,,,,,,,,,,,,,,,,,,,,,23693,2020_Mar_02_1643,Mmi_3levels,3.1.5,59.96707263076865,
10,black.png,"Please make your choices as fast as possible.
You will be given a break at the end of each block.
Let's play!",,,,,,,,0,6,6,6,,,,,,,,,,,,,,,,,,,,,,,,,,,,,,,,,,,,,,,,,149.70628984188443,None,149.70628984188443,None,149.70628984188443,None,4,3.3515045280801132,149.70628984188443,None,,,,,,,,,,,,,,,,,,,,,,,,,,,,,,,,,,,,,,,,,,,,,,,,,,,,,,,,,,,,,,,,,,,,,,,,,,,,,,,,,,,,,,,,,,,,,,,,,,,,,,,,,,,,,,23693,2020_Mar_02_1643,Mmi_3levels,3.1.5,59.96707263076865,
,,,,,,,,,,,,,,,,,,,,,,,,,,,,,,,,,,,,,,,,,,,,,,,,,,,,,,,,,,,,,,,,153.07427861432006,None,space,33.09611809420676,153.07427861432006,None,,,,,,,,,,,,,,,,,,,,,,,,,,,,,,,,,,,,,,,,,,,,,,,,,,,,,,,,,,,,,,,,,,,,,,,,,,,,,,,,,,,,,,,,,,,,,,,,,,,,,,,,23693,2020_Mar_02_1643,Mmi_3levels,3.1.5,59.96707263076865,
,,,1,1,1.5,,,,,,,,,0,0,0,0,0,0,0,1,,,,,,,,,,,,,,,,,,,,,,,,,,,,,,,,,,,,,,,,,,,,,,,,,186.18685407431258,None,0.81,7.3098533005941135,189.20465536870688,None,4,4.285239888056822,189.20465536870688,None,193.50636958164978,None,True,True,False,0.81,-0.18999999999999995,-0.18999999999999995,2.849999999999999,1.5,-1.3499999999999992,0.0750000000000004,gamble,win,1.5,1.5,196.54087526870717,None,196.54087526870717,None,196.54087526870717,None,196.54087526870717,None,196.54087526870717,None,196.54087526870717,None,196.54087526870717,None,1,1.9509686845449323,196.54087526870717,None,198.52489787742525,None,198.52489787742525,None,198.52489787742525,None,198.52489787742525,None,198.52489787742525,None,198.52489787742525,None,198.52489787742525,None,202.50975308191846,None,202.50975308191846,None,202.50975308191846,None,202.50975308191846,None,202.50975308191846,None,202.50975308191846,None,202.50975308191846,None,203.51018857878444,None,,,,,,,,,,,,,,,,,,,,,,,,,,,,,,23693,2020_Mar_02_1643,Mmi_3levels,3.1.5,59.96707263076865,
,,,1,1,10.1,,,,,,,,,0,0,0,0,0,1,1,6,,,,,,,,,,,,,,,,,,,,,,,,,,,,,,,,,,,,,,,,,,,,,,,,,,,,,,,,,,,,,True,True,False,0.81,-0.18999999999999995,-0.3799999999999999,3.039999999999999,10.1,7.0600000000000005,3.5300000000000002,certain,certain,3.5300000000000002,5.03,205.52757261534498,None,205.52757261534498,None,205.52757261534498,None,205.52757261534498,None,205.52757261534498,None,205.52757261534498,None,205.52757261534498,None,3,2.1344373386891675,205.52757261534498,None,207.69507187778436,None,207.69507187778436,None,207.69507187778436,None,207.69507187778436,None,207.69507187778436,None,207.69507187778436,None,207.69507187778436,None,211.67992068261447,None,211.67992068261447,None,211.67992068261447,None,211.67992068261447,None,211.67992068261447,None,211.67992068261447,None,211.67992068261447,None,212.68029858254158,None,,,,,,,,,,,,,,,,,,,,,,,,,,,,,,23693,2020_Mar_02_1643,Mmi_3levels,3.1.5,59.96707263076865,
,,,1,1,7.5,,,,,,,,,0,0,0,0,0,2,2,25,,,,,,,,,,,,,,,,,,,,,,,,,,,,,,,,,,,,,,,,,,,,,,,,,,,,,,,,,,,,,True,True,True,0.81,-0.18999999999999995,-0.5699999999999998,3.229999999999999,7.5,4.270000000000001,2.1350000000000007,gamble,win,7.5,12.530000000000001,214.69773605626324,None,214.69773605626324,None,214.69773605626324,None,214.69773605626324,None,214.69773605626324,None,214.69773605626324,None,214.69773605626324,None,1,1.7507479602681997,214.69773605626324,None,216.48175072940285,None,216.48175072940285,None,216.48175072940285,None,216.48175072940285,None,216.48175072940285,None,216.48175072940285,None,216.48175072940285,None,220.48327864824023,None,220.48327864824023,None,220.48327864824023,None,220.48327864824023,None,220.48327864824023,None,220.48327864824023,None,220.48327864824023,None,229.97023294122846,None,221.46698799360092,None,222.46737101325198,None,0.84,7.502732974826358,225.46850407306556,None,None,225.46850407306556,None,,,,,,,,,,,,,,,,,,,23693,2020_Mar_02_1643,Mmi_3levels,3.1.5,59.96707263076865,
,,,1,1,10.3,,,,,,,,,0,0,0,0,0,3,3,17,,,,,,,,,,,,,,,,,,,,,,,,,,,,,,,,,,,,,,,,,,,,,,,,,,,,,,,,,,,,,True,True,False,0.84,-0.16000000000000003,-0.7299999999999999,2.97,10.3,7.33,3.665,gamble,win,10.3,22.830000000000002,231.98763457685345,None,231.98763457685345,None,231.98763457685345,None,231.98763457685345,None,231.98763457685345,None,231.98763457685345,None,231.98763457685345,None,1,1.1507158339773014,231.98763457685345,None,233.17145681221518,None,233.17145681221518,None,233.17145681221518,None,233.17145681221518,None,233.17145681221518,None,233.17145681221518,None,233.17145681221518,None,237.17298665095223,None,237.17298665095223,None,237.17298665095223,None,237.17298665095223,None,237.17298665095223,None,237.17298665095223,None,237.17298665095223,None,238.15669279648137,None,,,,,,,,,,,,,,,,,,,,,,,,,,,,,,23693,2020_Mar_02_1643,Mmi_3levels,3.1.5,59.96707263076865,
,,,1,1,0.1,,,,,,,,,0,0,0,0,0,4,4,4,,,,,,,,,,,,,,,,,,,,,,,,,,,,,,,,,,,,,,,,,,,,,,,,,,,,,,,,,,,,,True,True,True,0.84,-0.16000000000000003,-0.8899999999999999,3.13,0.1,-3.03,-1.4649999999999999,gamble,win,0.1,22.930000000000003,240.17418178746448,None,240.17418178746448,None,240.17418178746448,None,240.17418178746448,None,240.17418178746448,None,240.17418178746448,None,240.17418178746448,None,1,1.9676237998246506,240.17418178746448,None,242.1749558263473,None,242.1749558263473,None,242.1749558263473,None,242.1749558263473,None,242.1749558263473,None,242.1749558263473,None,242.1749558263473,None,246.1597390346651,None,246.1597390346651,None,246.1597390346651,None,246.1597390346651,None,246.1597390346651,None,246.1597390346651,None,246.1597390346651,None,255.66342171904034,None,247.1601220543198,None,248.16051787329343,None,0.82,7.502841449062544,251.1616957307233,None,None,251.1616957307233,None,,,,,,,,,,,,,,,,,,,23693,2020_Mar_02_1643,Mmi_3levels,3.1.5,59.96707263076865,
,,,1,1,12.3,,,,,,,,,0,0,0,0,0,5,5,14,,,,,,,,,,,,,,,,,,,,,,,,,,,,,,,,,,,,,,,,,,,,,,,,,,,,,,,,,,,,,True,True,False,0.82,-0.18000000000000005,-1.0699999999999998,3.5900000000000003,12.3,8.71,4.355,gamble,win,12.3,35.230000000000004,257.6808118352783,None,257.6808118352783,None,257.6808118352783,None,257.6808118352783,None,257.6808118352783,None,257.6808118352783,None,257.6808118352783,None,1,1.1340696782172017,257.6808118352783,None,258.8479763954965,None,258.8479763954965,None,258.8479763954965,None,258.8479763954965,None,258.8479763954965,None,258.8479763954965,None,258.8479763954965,None,262.8494467173914,None,262.8494467173914,None,262.8494467173914,None,262.8494467173914,None,262.8494467173914,None,262.8494467173914,None,262.8494467173914,None,263.8331570227019,None,,,,,,,,,,,,,,,,,,,,,,,,,,,,,,23693,2020_Mar_02_1643,Mmi_3levels,3.1.5,59.96707263076865,
,,,1,1,-0.5,,,,,,,,,0,0,0,0,0,6,6,10,,,,,,,,,,,,,,,,,,,,,,,,,,,,,,,,,,,,,,,,,,,,,,,,,,,,,,,,,,,,,True,True,False,0.82,-0.18000000000000005,-1.25,3.7700000000000005,-0.5,-4.2700000000000005,-2.3850000000000002,gamble,win,-0.5,34.730000000000004,265.8505941764379,None,265.8505941764379,None,265.8505941764379,None,265.8505941764379,None,265.8505941764379,None,265.8505941764379,None,265.8505941764379,None,1,2.5011858570069307,265.8505941764379,None,268.38488835473254,None,268.38488835473254,None,268.38488835473254,None,268.38488835473254,None,268.38488835473254,None,268.38488835473254,None,268.38488835473254,None,272.386416593552,None,272.386416593552,None,272.386416593552,None,272.386416593552,None,272.386416593552,None,272.386416593552,None,272.386416593552,None,273.37009682045755,None,,,,,,,,,,,,,,,,,,,,,,,,,,,,,,23693,2020_Mar_02_1643,Mmi_3levels,3.1.5,59.96707263076865,
,,,1,1,4.3,,,,,,,,,0,0,0,0,0,7,7,8,,,,,,,,,,,,,,,,,,,,,,,,,,,,,,,,,,,,,,,,,,,,,,,,,,,,,,,,,,,,,True,True,True,0.82,-0.18000000000000005,-1.4300000000000002,3.9500000000000006,4.3,0.3499999999999992,0.1749999999999996,gamble,win,4.3,39.03,275.38755957283865,None,275.38755957283865,None,275.38755957283865,None,275.38755957283865,None,275.38755957283865,None,275.38755957283865,None,275.38755957283865,None,1,1.9009838197380304,275.38755957283865,None,277.3216321949003,None,277.3216321949003,None,277.3216321949003,None,277.3216321949003,None,277.3216321949003,None,277.3216321949003,None,277.3216321949003,None,281.30648419956196,None,281.30648419956196,None,281.30648419956196,None,281.30648419956196,None,281.30648419956196,None,281.30648419956196,None,281.30648419956196,None,290.8100692891203,None,282.3068614595213,None,283.3072505588534,None,0.8,7.502785772019706,286.3084428155198,None,None,286.3084428155198,None,,,,,,,,,,,,,,,,,,,23693,2020_Mar_02_1643,Mmi_3levels,3.1.5,59.96707263076865,
,,,1,1,5.7,,,,,,,,,0,0,0,0,0,8,8,2,,,,,,,,,,,,,,,,,,,,,,,,,,,,,,,,,,,,,,,,,,,,,,,,,,,,,,,,,,,,,True,False,False,0.8,-0.19999999999999996,-1.6300000000000001,-0.8358333333333332,5.7,4.864166666666667,2.4320833333333334,gamble,lose,4.864166666666667,43.89416666666667,292.82755092049774,None,292.82755092049774,None,292.82755092049774,None,292.82755092049774,None,292.82755092049774,None,292.82755092049774,None,292.82755092049774,None,1,1.1840436636011873,292.82755092049774,None,294.04473906346175,None,294.04473906346175,None,294.04473906346175,None,294.04473906346175,None,294.04473906346175,None,294.04473906346175,None,294.04473906346175,None,298.04620906537457,None,298.04620906537457,None,298.04620906537457,None,298.04620906537457,None,298.04620906537457,None,298.04620906537457,None,298.04620906537457,None,299.0299776075917,None,,,,,,,,,,,,,,,,,,,,,,,,,,,,,,23693,2020_Mar_02_1643,Mmi_3levels,3.1.5,59.96707263076865,
,,,1,1,5.1,,,,,,,,,0,0,0,0,0,9,9,13,,,,,,,,,,,,,,,,,,,,,,,,,,,,,,,,,,,,,,,,,,,,,,,,,,,,,,,,,,,,,True,False,True,0.8,-0.19999999999999996,-1.83,-0.8524999999999998,5.1,4.2475,2.12375,gamble,lose,4.2475,48.14166666666667,301.04736068420243,None,301.04736068420243,None,301.04736068420243,None,301.04736068420243,None,301.04736068420243,None,301.04736068420243,None,301.04736068420243,None,1,1.8342782431391242,301.04736068420243,None,302.9147344493067,None,302.9147344493067,None,302.9147344493067,None,302.9147344493067,None,302.9147344493067,None,302.9147344493067,None,302.9147344493067,None,306.899589973782,None,306.899589973782,None,306.899589973782,None,306.899589973782,None,306.899589973782,None,306.899589973782,None,306.899589973782,None,316.4032678584117,None,307.8999665937772,None,308.9003547331595,None,0.82,7.502811690643284,311.9014858730734,None,None,311.9014858730734,None,,,,,,,,,,,,,,,,,,,23693,2020_Mar_02_1643,Mmi_3levels,3.1.5,59.96707263076865,
,,,1,1,13.1,,,,,,,,,0,0,0,0,0,10,10,0,,,,,,,,,,,,,,,,,,,,,,,,,,,,,,,,,,,,,,,,,,,,,,,,,,,,,,,,,,,,,True,True,False,0.82,-0.18000000000000005,-2.0100000000000002,4.530000000000001,13.1,8.569999999999999,4.284999999999999,gamble,win,13.1,61.241666666666674,318.4206515749902,None,318.4206515749902,None,318.4206515749902,None,318.4206515749902,None,318.4206515749902,None,318.4206515749902,None,318.4206515749902,None,1,1.0339633158691868,318.4206515749902,None,319.4877241720933,None,319.4877241720933,None,319.4877241720933,None,319.4877241720933,None,319.4877241720933,None,319.4877241720933,None,319.4877241720933,None,323.4892549707765,None,323.4892549707765,None,323.4892549707765,None,323.4892549707765,None,323.4892549707765,None,323.4892549707765,None,323.4892549707765,None,324.47296271622326,None,,,,,,,,,,,,,,,,,,,,,,,,,,,,,,23693,2020_Mar_02_1643,Mmi_3levels,3.1.5,59.96707263076865,
,,,1,1,-0.9,,,,,,,,,0,0,0,0,0,11,11,11,,,,,,,,,,,,,,,,,,,,,,,,,,,,,,,,,,,,,,,,,,,,,,,,,,,,,,,,,,,,,True,False,False,0.82,-0.18000000000000005,-2.1900000000000004,-0.8125000000000001,-0.9,-1.7125000000000001,-1.3062500000000001,gamble,lose,-1.7125000000000001,59.529166666666676,326.4903957101815,None,326.4903957101815,None,326.4903957101815,None,326.4903957101815,None,326.4903957101815,None,326.4903957101815,None,326.4903957101815,None,1,2.5176627417567943,326.4903957101815,None,329.04134820358377,None,329.04134820358377,None,329.04134820358377,None,329.04134820358377,None,329.04134820358377,None,329.04134820358377,None,329.04134820358377,None,333.0428940414713,None,333.0428940414713,None,333.0428940414713,None,333.0428940414713,None,333.0428940414713,None,333.0428940414713,None,333.0428940414713,None,342.52985569406883,None,334.0266126663373,None,335.0269918461963,None,0.81,7.502785452037642,338.0281233060923,None,None,338.0281233060923,None,,,,,,,,,,,,,,,,,,,23693,2020_Mar_02_1643,Mmi_3levels,3.1.5,59.96707263076865,
,,,1,1,12.1,,,,,,,,,0,0,0,0,0,12,12,7,,,,,,,,,,,,,,,,,,,,,,,,,,,,,,,,,,,,,,,,,,,,,,,,,,,,,,,,,,,,,True,False,False,0.81,-0.18999999999999995,-2.3800000000000003,-0.8633333333333332,12.1,11.236666666666666,5.618333333333333,gamble,lose,11.236666666666666,70.76583333333335,344.5472858081812,None,344.5472858081812,None,344.5472858081812,None,344.5472858081812,None,344.5472858081812,None,344.5472858081812,None,344.5472858081812,None,1,1.2005835849995492,344.5472858081812,None,345.7811450655754,None,345.7811450655754,None,345.7811450655754,None,345.7811450655754,None,345.7811450655754,None,345.7811450655754,None,345.7811450655754,None,349.7826179473377,None,349.7826179473377,None,349.7826179473377,None,349.7826179473377,None,349.7826179473377,None,349.7826179473377,None,349.7826179473377,None,350.7663269727127,None,,,,,,,,,,,,,,,,,,,,,,,,,,,,,,23693,2020_Mar_02_1643,Mmi_3levels,3.1.5,59.96707263076865,
,,,1,1,2.1,,,,,,,,,0,0,0,0,0,13,13,26,,,,,,,,,,,,,,,,,,,,,,,,,,,,,,,,,,,,,,,,,,,,,,,,,,,,,,,,,,,,,True,True,False,0.81,-0.18999999999999995,-2.5700000000000003,5.2299999999999995,2.1,-3.1299999999999994,-0.5149999999999997,gamble,win,2.1,72.86583333333334,352.7837862052802,None,352.7837862052802,None,352.7837862052802,None,352.7837862052802,None,352.7837862052802,None,352.7837862052802,None,352.7837862052802,None,None,,352.7837862052802,None,355.7849112655167,None,355.7849112655167,None,355.7849112655167,None,355.7849112655167,None,355.7849112655167,None,355.7849112655167,None,355.7849112655167,None,359.7864913415833,None,359.7864913415833,None,359.7864913415833,None,359.7864913415833,None,359.7864913415833,None,359.7864913415833,None,359.7864913415833,None,360.7701501296251,None,,,,,,,,,,,,,,,,,,,,,,,,,,,,,,23693,2020_Mar_02_1643,Mmi_3levels,3.1.5,59.96707263076865,
,,,1,1,-1.3,,,,,,,,,0,0,0,0,0,14,14,18,,,,,,,,,,,,,,,,,,,,,,,,,,,,,,,,,,,,,,,,,,,,,,,,,,,,,,,,,,,,,True,True,True,0.81,-0.18999999999999995,-2.7600000000000002,5.42,-1.3,-6.72,-4.01,gamble,win,-1.3,71.56583333333334,362.78758184365506,None,362.78758184365506,None,362.78758184365506,None,362.78758184365506,None,362.78758184365506,None,362.78758184365506,None,362.78758184365506,None,1,1.3840976767314714,362.78758184365506,None,364.2047856017889,None,364.2047856017889,None,364.2047856017889,None,364.2047856017889,None,364.2047856017889,None,364.2047856017889,None,364.2047856017889,None,368.20631800038973,None,368.20631800038973,None,368.20631800038973,None,368.20631800038973,None,368.20631800038973,None,368.20631800038973,None,368.20631800038973,None,377.693325410557,None,369.1900750232162,None,370.1904554830071,None,0.79,7.502779052374535,373.19158598295326,None,None,373.19158598295326,None,,,,,,,,,,,,,,,,,,,23693,2020_Mar_02_1643,Mmi_3levels,3.1.5,59.96707263076865,
,,,1,1,12.9,,,,,,,,,0,0,0,0,0,15,15,15,,,,,,,,,,,,,,,,,,,,,,,,,,,,,,,,,,,,,,,,,,,,,,,,,,,,,,,,,,,,,True,True,False,0.79,-0.20999999999999996,-2.97,5.91,12.9,6.99,3.495,gamble,win,12.9,84.46583333333335,379.71070432738634,None,379.71070432738634,None,379.71070432738634,None,379.71070432738634,None,379.71070432738634,None,379.71070432738634,None,379.71070432738634,None,1,1.2507287612861546,379.71070432738634,None,380.9945298905732,None,380.9945298905732,None,380.9945298905732,None,380.9945298905732,None,380.9945298905732,None,380.9945298905732,None,380.9945298905732,None,384.99610772675805,None,384.99610772675805,None,384.99610772675805,None,384.99610772675805,None,384.99610772675805,None,384.99610772675805,None,384.99610772675805,None,385.97976299498987,None,,,,,,,,,,,,,,,,,,,,,,,,,,,,,,23693,2020_Mar_02_1643,Mmi_3levels,3.1.5,59.96707263076865,
,,,1,1,2.3,,,,,,,,,0,0,0,0,0,16,16,5,,,,,,,,,,,,,,,,,,,,,,,,,,,,,,,,,,,,,,,,,,,,,,,,,,,,,,,,,,,,,True,True,False,0.79,-0.20999999999999996,-3.18,6.119999999999999,2.3,-3.8199999999999994,-0.7599999999999998,gamble,win,2.3,86.76583333333335,387.9971998287474,None,387.9971998287474,None,387.9971998287474,None,387.9971998287474,None,387.9971998287474,None,387.9971998287474,None,387.9971998287474,None,1,1.3174221785338887,387.9971998287474,None,389.34771848919627,None,389.34771848919627,None,389.34771848919627,None,389.34771848919627,None,389.34771848919627,None,389.34771848919627,None,389.34771848919627,None,393.34929760531304,None,393.34929760531304,None,393.34929760531304,None,393.34929760531304,None,393.34929760531304,None,393.34929760531304,None,393.34929760531304,None,402.8362506183694,None,394.3329551134266,None,395.3333365331637,None,0.83,7.502788971847622,398.3345204702746,None,None,398.3345204702746,None,,,,,,,,,,,,,,,,,,,23693,2020_Mar_02_1643,Mmi_3levels,3.1.5,59.96707263076865,
,,,1,1,11.7,,,,,,,,,0,0,0,0,0,17,17,9,,,,,,,,,,,,,,,,,,,,,,,,,,,,,,,,,,,,,,,,,,,,,,,,,,,,,,,,,,,,,True,True,True,0.83,-0.17000000000000004,-3.35,5.73,11.7,5.969999999999999,2.9849999999999994,gamble,win,11.7,98.46583333333335,404.8536343349442,None,404.8536343349442,None,404.8536343349442,None,404.8536343349442,None,404.8536343349442,None,404.8536343349442,None,404.8536343349442,None,1,1.0839993779518409,404.8536343349442,None,405.9707289148828,None,405.9707289148828,None,405.9707289148828,None,405.9707289148828,None,405.9707289148828,None,405.9707289148828,None,405.9707289148828,None,409.9723064310856,None,409.9723064310856,None,409.9723064310856,None,409.9723064310856,None,409.9723064310856,None,409.9723064310856,None,409.9723064310856,None,410.9559629792493,None,,,,,,,,,,,,,,,,,,,,,,,,,,,,,,23693,2020_Mar_02_1643,Mmi_3levels,3.1.5,59.96707263076865,
,,,1,1,9.1,,,,,,,,,0,0,0,0,0,18,18,3,,,,,,,,,,,,,,,,,,,,,,,,,,,,,,,,,,,,,,,,,,,,,,,,,,,,,,,,,,,,,True,False,True,0.83,-0.17000000000000004,-3.52,-0.8883333333333335,9.1,8.211666666666666,4.105833333333333,gamble,lose,8.211666666666666,106.67750000000001,412.9733978931072,None,412.9733978931072,None,412.9733978931072,None,412.9733978931072,None,412.9733978931072,None,412.9733978931072,None,412.9733978931072,None,1,1.1506963150131924,412.9733978931072,None,414.1572338877377,None,414.1572338877377,None,414.1572338877377,None,414.1572338877377,None,414.1572338877377,None,414.1572338877377,None,414.1572338877377,None,418.14203789494786,None,418.14203789494786,None,418.14203789494786,None,418.14203789494786,None,418.14203789494786,None,418.14203789494786,None,418.14203789494786,None,419.14246987200386,None,,,,,,,,,,,,,,,,,,,,,,,,,,,,,,23693,2020_Mar_02_1643,Mmi_3levels,3.1.5,59.96707263076865,
,,,1,1,12.7,,,,,,,,,0,0,0,0,0,19,19,19,,,,,,,,,,,,,,,,,,,,,,,,,,,,,,,,,,,,,,,,,,,,,,,,,,,,,,,,,,,,,True,True,False,0.83,-0.17000000000000004,-3.69,6.07,12.7,6.629999999999999,3.3149999999999995,gamble,win,12.7,119.37750000000001,421.15990798568964,None,421.15990798568964,None,421.15990798568964,None,421.15990798568964,None,421.15990798568964,None,421.15990798568964,None,421.15990798568964,None,1,0.9839630918831972,421.15990798568964,None,422.17696435965627,None,422.17696435965627,None,422.17696435965627,None,422.17696435965627,None,422.17696435965627,None,422.17696435965627,None,422.17696435965627,None,426.17843948129666,None,426.17843948129666,None,426.17843948129666,None,426.17843948129666,None,426.17843948129666,None,426.17843948129666,None,426.17843948129666,None,435.66544785141014,None,427.16214850667166,None,428.16258048372765,None,0.84,7.502768172955257,431.1636549866489,None,None,431.1636549866489,None,,,,,,,,,,,,,,,,,,,23693,2020_Mar_02_1643,Mmi_3levels,3.1.5,59.96707263076865,
,,,1,1,11.9,,,,,,,,,0,0,0,0,0,20,20,23,,,,,,,,,,,,,,,,,,,,,,,,,,,,,,,,,,,,,,,,,,,,,,,,,,,,,,,,,,,,,True,False,False,0.84,-0.16000000000000003,-3.85,-0.8808333333333334,11.9,11.019166666666667,5.5095833333333335,gamble,lose,11.019166666666667,130.39666666666668,437.6828453272574,None,437.6828453272574,None,437.6828453272574,None,437.6828453272574,None,437.6828453272574,None,437.6828453272574,None,437.6828453272574,None,1,1.0506267507080338,437.6828453272574,None,438.7665733596259,None,438.7665733596259,None,438.7665733596259,None,438.7665733596259,None,438.7665733596259,None,438.7665733596259,None,438.7665733596259,None,442.7681556755706,None,442.7681556755706,None,442.7681556755706,None,442.7681556755706,None,442.7681556755706,None,442.7681556755706,None,442.7681556755706,None,443.7518624610675,None,,,,,,,,,,,,,,,,,,,,,,,,,,,,,,23693,2020_Mar_02_1643,Mmi_3levels,3.1.5,59.96707263076865,
,,,1,1,-1.5,,,,,,,,,0,0,0,0,0,21,21,20,,,,,,,,,,,,,,,,,,,,,,,,,,,,,,,,,,,,,,,,,,,,,,,,,,,,,,,,,,,,,True,False,True,0.84,-0.16000000000000003,-4.01,-0.8941666666666668,-1.5,-2.394166666666667,-1.9470833333333335,gamble,lose,-2.394166666666667,128.0025,445.7692493774739,None,445.7692493774739,None,445.7692493774739,None,445.7692493774739,None,445.7692493774739,None,445.7692493774739,None,445.7692493774739,None,1,2.2010779587362777,445.7692493774739,None,448.0034260580105,None,448.0034260580105,None,448.0034260580105,None,448.0034260580105,None,448.0034260580105,None,448.0034260580105,None,448.0034260580105,None,452.0049123790559,None,452.0049123790559,None,452.0049123790559,None,452.0049123790559,None,452.0049123790559,None,452.0049123790559,None,452.0049123790559,None,461.49191626940956,None,452.9887023601332,None,453.9890530615048,None,0.78,7.50273585467221,456.9901525230998,None,None,456.9901525230998,None,,,,,,,,,,,,,,,,,,,23693,2020_Mar_02_1643,Mmi_3levels,3.1.5,59.96707263076865,
,,,1,1,2.9,,,,,,,,,0,0,0,0,0,22,22,21,,,,,,,,,,,,,,,,,,,,,,,,,,,,,,,,,,,,,,,,,,,,,,,,,,,,,,,,,,,,,True,True,False,0.78,-0.21999999999999997,-4.2299999999999995,7.309999999999999,2.9,-4.409999999999998,-0.7549999999999992,gamble,win,2.9,130.9025,463.50935566302724,None,463.50935566302724,None,463.50935566302724,None,463.50935566302724,None,463.50935566302724,None,463.50935566302724,None,463.50935566302724,None,1,1.1674128670274513,463.50935566302724,None,464.7098080549986,None,464.7098080549986,None,464.7098080549986,None,464.7098080549986,None,464.7098080549986,None,464.7098080549986,None,464.7098080549986,None,468.71133373395423,None,468.71133373395423,None,468.71133373395423,None,468.71133373395423,None,468.71133373395423,None,468.71133373395423,None,468.71133373395423,None,469.69509779640794,None,,,,,,,,,,,,,,,,,,,,,,,,,,,,,,23693,2020_Mar_02_1643,Mmi_3levels,3.1.5,59.96707263076865,
,,,1,1,9.9,,,,,,,,,0,0,0,0,0,23,23,22,,,,,,,,,,,,,,,,,,,,,,,,,,,,,,,,,,,,,,,,,,,,,,,,,,,,,,,,,,,,,True,True,True,0.78,-0.21999999999999997,-4.449999999999999,7.529999999999999,9.9,2.370000000000001,1.1850000000000005,gamble,win,9.9,140.8025,471.7124715935097,None,471.7124715935097,None,471.7124715935097,None,471.7124715935097,None,471.7124715935097,None,471.7124715935097,None,471.7124715935097,None,1,1.2340653264509456,471.7124715935097,None,472.9796692399723,None,472.9796692399723,None,472.9796692399723,None,472.9796692399723,None,472.9796692399723,None,472.9796692399723,None,472.9796692399723,None,476.9811526811718,None,476.9811526811718,None,476.9811526811718,None,476.9811526811718,None,476.9811526811718,None,476.9811526811718,None,476.9811526811718,None,486.46816169125304,None,477.9649164236398,None,478.96529976327656,None,0.82,7.502823849998094,481.9664347429898,None,None,481.9664347429898,None,,,,,,,,,,,,,,,,,,,23693,2020_Mar_02_1643,Mmi_3levels,3.1.5,59.96707263076865,
,,,1,1,3.5,,,,,,,,,0,0,0,0,0,24,24,12,,,,,,,,,,,,,,,,,,,,,,,,,,,,,,,,,,,,,,,,,,,,,,,,,,,,,,,,,,,,,True,True,False,0.82,-0.18000000000000005,-4.629999999999999,7.1499999999999995,3.5,-3.6499999999999995,-0.07499999999999973,gamble,win,3.5,144.3025,488.48554860765944,None,488.48554860765944,None,488.48554860765944,None,488.48554860765944,None,488.48554860765944,None,488.48554860765944,None,488.48554860765944,None,1,1.8509461577377806,488.48554860765944,None,490.36960436661684,None,490.36960436661684,None,490.36960436661684,None,490.36960436661684,None,490.36960436661684,None,490.36960436661684,None,490.36960436661684,None,494.3711841227014,None,494.3711841227014,None,494.3711841227014,None,494.3711841227014,None,494.3711841227014,None,494.3711841227014,None,494.3711841227014,None,495.35483043140994,None,,,,,,,,,,,,,,,,,,,,,,,,,,,,,,23693,2020_Mar_02_1643,Mmi_3levels,3.1.5,59.96707263076865,
,,,1,1,6.3,,,,,,,,,0,0,0,0,0,25,25,24,,,,,,,,,,,,,,,,,,,,,,,,,,,,,,,,,,,,,,,,,,,,,,,,,,,,,,,,,,,,,True,True,False,0.82,-0.18000000000000005,-4.809999999999999,7.329999999999999,6.3,-1.0299999999999994,-0.5149999999999997,gamble,win,6.3,150.60250000000002,497.37226822511366,None,497.37226822511366,None,497.37226822511366,None,497.37226822511366,None,497.37226822511366,None,497.37226822511366,None,497.37226822511366,None,1,1.0839888185146265,497.37226822511366,None,498.4893624850665,None,498.4893624850665,None,498.4893624850665,None,498.4893624850665,None,498.4893624850665,None,498.4893624850665,None,498.4893624850665,None,502.49094352108295,None,502.49094352108295,None,502.49094352108295,None,502.49094352108295,None,502.49094352108295,None,502.49094352108295,None,502.49094352108295,None,503.4746007092108,None,,,,,,,,,,,,,,,,,,,,,,,,,,,,,,23693,2020_Mar_02_1643,Mmi_3levels,3.1.5,59.96707263076865,
,,,1,1,7.9,,,,,,,,,0,0,0,0,0,26,26,16,,,,,,,,,,,,,,,,,,,,,,,,,,,,,,,,,,,,,,,,,,,,,,,,,,,,,,,,,,,,,True,False,False,0.82,-0.18000000000000005,-4.989999999999998,-1.0458333333333334,7.9,6.854166666666667,3.4270833333333335,gamble,lose,6.854166666666667,157.45666666666668,505.4920314632909,None,505.4920314632909,None,505.4920314632909,None,505.4920314632909,None,505.4920314632909,None,505.4920314632909,None,505.4920314632909,None,1,1.1006797718910093,505.4920314632909,None,506.62583715553046,None,506.62583715553046,None,506.62583715553046,None,506.62583715553046,None,506.62583715553046,None,506.62583715553046,None,506.62583715553046,None,510.62733339605256,None,510.62733339605256,None,510.62733339605256,None,510.62733339605256,None,510.62733339605256,None,510.62733339605256,None,510.62733339605256,None,520.1142793694817,None,511.61108785901524,None,512.611418081473,None,0.82,7.502740014453593,515.6125517812507,None,None,515.6125517812507,None,,,,,,,,,,,,,,,,,,,23693,2020_Mar_02_1643,Mmi_3levels,3.1.5,59.96707263076865,
,,,2,0,10.5,,,,,,,,,0,1,1,1,0,0,0,26,,,,,,,,,,,,,,,,,,,,,,,,,,,,,,,,,,,,,,,,,,,,,,,,,534.3030328628956,None,0.8,6.684725867362431,537.3208360771896,None,4,3.651607306619553,537.3208360771896,None,540.9888917900716,None,False,True,True,0.8,0.8,0.8,-12.000000000000002,10.5,-1.5000000000000018,-0.7500000000000009,gamble,lose,-1.5000000000000018,155.95666666666668,544.0234672334227,None,544.0234672334227,None,544.0234672334227,None,544.0234672334227,None,544.0234672334227,None,544.0234672334227,None,544.0234672334227,None,1,1.2671534888067981,544.0234672334227,None,545.3238983145238,None,545.3238983145238,None,545.3238983145238,None,545.3238983145238,None,545.3238983145238,None,545.3238983145238,None,545.3238983145238,None,549.3254278332752,None,549.3254278332752,None,549.3254278332752,None,549.3254278332752,None,549.3254278332752,None,549.3254278332752,None,549.3254278332752,None,550.3091912557611,None,,,,,,,,,,,,522.1150415689954,None,4,12.171527848440746,522.1150415689954,None,,,,,,,,,,,,,23693,2020_Mar_02_1643,Mmi_3levels,3.1.5,59.96707263076865,
,,,2,0,2.3,,,,,,,,,0,1,1,1,0,1,1,23,,,,,,,,,,,,,,,,,,,,,,,,,,,,,,,,,,,,,,,,,,,,,,,,,,,,,,,,,,,,,False,True,True,0.8,0.8,1.6,-12.8,2.3,-10.5,-4.1,gamble,lose,-10.5,145.45666666666668,552.3265772122213,None,552.3265772122213,None,552.3265772122213,None,552.3265772122213,None,552.3265772122213,None,552.3265772122213,None,552.3265772122213,None,1,2.0174985904741334,552.3265772122213,None,554.3773537149718,None,554.3773537149718,None,554.3773537149718,None,554.3773537149718,None,554.3773537149718,None,554.3773537149718,None,554.3773537149718,None,558.378937310852,None,558.378937310852,None,558.378937310852,None,558.378937310852,None,558.378937310852,None,558.378937310852,None,558.378937310852,None,567.8658903239084,None,559.3625948189656,None,560.3629762387027,None,0.76,7.502792171679175,563.3641035388209,None,None,563.3641035388209,None,,,,,,,,,,,,,,,,,,,23693,2020_Mar_02_1643,Mmi_3levels,3.1.5,59.96707263076865,
,,,2,0,-0.7,,,,,,,,,0,1,1,1,0,2,2,14,,,,,,,,,,,,,,,,,,,,,,,,,,,,,,,,,,,,,,,,,,,,,,,,,,,,,,,,,,,,,False,True,True,0.76,0.76,2.3600000000000003,-13.0,-0.7,-13.7,-7.199999999999999,gamble,lose,-13.7,131.7566666666667,569.8832724405693,None,569.8832724405693,None,569.8832724405693,None,569.8832724405693,None,569.8832724405693,None,569.8832724405693,None,569.8832724405693,None,1,2.667930919509672,569.8832724405693,None,572.5843036817896,None,572.5843036817896,None,572.5843036817896,None,572.5843036817896,None,572.5843036817896,None,572.5843036817896,None,572.5843036817896,None,576.5858335205266,None,576.5858335205266,None,576.5858335205266,None,576.5858335205266,None,576.5858335205266,None,576.5858335205266,None,576.5858335205266,None,577.569539026088,None,,,,,,,,,,,,,,,,,,,,,,,,,,,,,,23693,2020_Mar_02_1643,Mmi_3levels,3.1.5,59.96707263076865,
,,,2,0,10.3,,,,,,,,,0,1,1,1,0,3,3,5,,,,,,,,,,,,,,,,,,,,,,,,,,,,,,,,,,,,,,,,,,,,,,,,,,,,,,,,,,,,,False,False,False,0.76,0.76,3.12,2.92,2.575,-0.34499999999999975,1.1150000000000002,gamble,win,2.575,134.33166666666668,579.5869774597595,None,579.5869774597595,None,579.5869774597595,None,579.5869774597595,None,579.5869774597595,None,579.5869774597595,None,579.5869774597595,None,1,2.0510353690006013,579.5869774597595,None,581.6711070707934,None,581.6711070707934,None,581.6711070707934,None,581.6711070707934,None,581.6711070707934,None,581.6711070707934,None,581.6711070707934,None,585.6559593954371,None,585.6559593954371,None,585.6559593954371,None,585.6559593954371,None,585.6559593954371,None,585.6559593954371,None,585.6559593954371,None,595.1596353601708,None,586.6563363354144,None,587.6567267146784,None,0.78,7.502825449912052,590.6578581745744,None,None,590.6578581745744,None,,,,,,,,,,,,,,,,,,,23693,2020_Mar_02_1643,Mmi_3levels,3.1.5,59.96707263076865,
,,,2,0,3.5,,,,,,,,,0,1,1,1,0,4,4,20,,,,,,,,,,,,,,,,,,,,,,,,,,,,,,,,,,,,,,,,,,,,,,,,,,,,,,,,,,,,,False,True,False,0.78,0.78,3.9000000000000004,-14.82,3.5,-11.32,-3.91,gamble,lose,-11.32,123.01166666666668,597.1770805134838,None,597.1770805134838,None,597.1770805134838,None,597.1770805134838,None,597.1770805134838,None,597.1770805134838,None,597.1770805134838,None,1,1.684163977210119,597.1770805134838,None,598.8943448124046,None,598.8943448124046,None,598.8943448124046,None,598.8943448124046,None,598.8943448124046,None,598.8943448124046,None,598.8943448124046,None,602.8958688914463,None,602.8958688914463,None,602.8958688914463,None,602.8958688914463,None,602.8958688914463,None,602.8958688914463,None,602.8958688914463,None,603.8795823965847,None,,,,,,,,,,,,,,,,,,,,,,,,,,,,,,23693,2020_Mar_02_1643,Mmi_3levels,3.1.5,59.96707263076865,
,,,2,0,0.5,,,,,,,,,0,1,1,1,0,5,5,11,,,,,,,,,,,,,,,,,,,,,,,,,,,,,,,,,,,,,,,,,,,,,,,,,,,,,,,,,,,,,False,True,True,0.78,0.78,4.680000000000001,-15.600000000000001,0.5,-15.100000000000001,-7.300000000000001,gamble,lose,-15.100000000000001,107.91166666666669,605.8970169904605,None,605.8970169904605,None,605.8970169904605,None,605.8970169904605,None,605.8970169904605,None,605.8970169904605,None,605.8970169904605,None,1,2.1010394327859103,605.8970169904605,None,608.0311650645126,None,608.0311650645126,None,608.0311650645126,None,608.0311650645126,None,608.0311650645126,None,608.0311650645126,None,608.0311650645126,None,612.0326907434683,None,612.0326907434683,None,612.0326907434683,None,612.0326907434683,None,612.0326907434683,None,612.0326907434683,None,612.0326907434683,None,613.016398488915,None,,,,,,,,,,,,,,,,,,,,,,,,,,,,,,23693,2020_Mar_02_1643,Mmi_3levels,3.1.5,59.96707263076865,
,,,2,0,0.1,,,,,,,,,0,1,1,1,0,6,6,24,,,,,,,,,,,,,,,,,,,,,,,,,,,,,,,,,,,,,,,,,,,,,,,,,,,,,,,,,,,,,False,False,False,0.78,0.78,5.460000000000001,3.185,0.025,-3.16,-1.5675000000000001,gamble,win,0.025,107.9366666666667,615.0338903597476,None,615.0338903597476,None,615.0338903597476,None,615.0338903597476,None,615.0338903597476,None,615.0338903597476,None,615.0338903597476,None,1,1.6341583135108522,615.0338903597476,None,616.7011358756645,None,616.7011358756645,None,616.7011358756645,None,616.7011358756645,None,616.7011358756645,None,616.7011358756645,None,616.7011358756645,None,620.7026708341255,None,620.7026708341255,None,620.7026708341255,None,620.7026708341255,None,620.7026708341255,None,620.7026708341255,None,620.7026708341255,None,630.1896225672499,None,621.6863750597586,None,622.6867574394455,None,0.76,7.502789931797452,625.6878853795315,None,None,625.6878853795315,None,,,,,,,,,,,,,,,,,,,23693,2020_Mar_02_1643,Mmi_3levels,3.1.5,59.96707263076865,
,,,2,0,8.9,,,,,,,,,0,1,1,1,0,7,7,21,,,,,,,,,,,,,,,,,,,,,,,,,,,,,,,,,,,,,,,,,,,,,,,,,,,,,,,,,,,,,False,False,True,0.76,0.76,6.220000000000001,3.1783333333333337,2.225,-0.9533333333333336,0.6358333333333333,certain,certain,0.6358333333333333,108.57250000000003,632.207054921244,None,632.207054921244,None,632.207054921244,None,632.207054921244,None,632.207054921244,None,632.207054921244,None,632.207054921244,None,3,1.2173900522429904,632.207054921244,None,633.45754369528,None,633.45754369528,None,633.45754369528,None,633.45754369528,None,633.45754369528,None,633.45754369528,None,633.45754369528,None,637.4424395376118,None,637.4424395376118,None,637.4424395376118,None,637.4424395376118,None,637.4424395376118,None,637.4424395376118,None,637.4424395376118,None,638.4428238371984,None,,,,,,,,,,,,,,,,,,,,,,,,,,,,,,23693,2020_Mar_02_1643,Mmi_3levels,3.1.5,59.96707263076865,
,,,2,0,4.5,,,,,,,,,0,1,1,1,0,8,8,3,,,,,,,,,,,,,,,,,,,,,,,,,,,,,,,,,,,,,,,,,,,,,,,,,,,,,,,,,,,,,False,True,False,0.76,0.76,6.98,-17.62,4.5,-13.120000000000001,-4.3100000000000005,gamble,lose,-13.120000000000001,95.45250000000003,640.4602069138091,None,640.4602069138091,None,640.4602069138091,None,640.4602069138091,None,640.4602069138091,None,640.4602069138091,None,640.4602069138091,None,1,1.4007787106347678,640.4602069138091,None,641.8940862661402,None,641.8940862661402,None,641.8940862661402,None,641.8940862661402,None,641.8940862661402,None,641.8940862661402,None,641.8940862661402,None,645.8956138649919,None,645.8956138649919,None,645.8956138649919,None,645.8956138649919,None,645.8956138649919,None,645.8956138649919,None,645.8956138649919,None,655.3825707178439,None,646.879318090625,None,647.8797052700575,None,0.74,7.502884966750571,650.8808021717887,None,None,650.8808021717887,None,,,,,,,,,,,,,,,,,,,23693,2020_Mar_02_1643,Mmi_3levels,3.1.5,59.96707263076865,
,,,2,0,-1.1,,,,,,,,,0,1,1,1,0,9,9,13,,,,,,,,,,,,,,,,,,,,,,,,,,,,,,,,,,,,,,,,,,,,,,,,,,,,,,,,,,,,,False,False,False,0.74,0.74,7.720000000000001,3.2333333333333334,-0.275,-3.5083333333333333,-1.8916666666666666,certain,certain,-1.8916666666666666,93.56083333333336,657.4000081915656,None,657.4000081915656,None,657.4000081915656,None,657.4000081915656,None,657.4000081915656,None,657.4000081915656,None,657.4000081915656,None,3,2.7846853575138084,657.4000081915656,None,660.2178021903492,None,660.2178021903492,None,660.2178021903492,None,660.2178021903492,None,660.2178021903492,None,660.2178021903492,None,660.2178021903492,None,664.2193323490683,None,664.2193323490683,None,664.2193323490683,None,664.2193323490683,None,664.2193323490683,None,664.2193323490683,None,664.2193323490683,None,665.2029808976549,None,,,,,,,,,,,,,,,,,,,,,,,,,,,,,,23693,2020_Mar_02_1643,Mmi_3levels,3.1.5,59.96707263076865,
,,,2,0,12.9,,,,,,,,,0,1,1,1,0,10,10,19,,,,,,,,,,,,,,,,,,,,,,,,,,,,,,,,,,,,,,,,,,,,,,,,,,,,,,,,,,,,,False,False,True,0.74,0.74,8.46,3.295,3.225,-0.06999999999999984,1.5775000000000001,certain,certain,1.5775000000000001,95.13833333333336,667.2204222111723,None,667.2204222111723,None,667.2204222111723,None,667.2204222111723,None,667.2204222111723,None,667.2204222111723,None,667.2204222111723,None,3,1.550828020015615,667.2204222111723,None,668.8043575925258,None,668.8043575925258,None,668.8043575925258,None,668.8043575925258,None,668.8043575925258,None,668.8043575925258,None,668.8043575925258,None,672.7892108771193,None,672.7892108771193,None,672.7892108771193,None,672.7892108771193,None,672.7892108771193,None,672.7892108771193,None,672.7892108771193,None,673.7895910169282,None,,,,,,,,,,,,,,,,,,,,,,,,,,,,,,23693,2020_Mar_02_1643,Mmi_3levels,3.1.5,59.96707263076865,
,,,2,0,-1.5,,,,,,,,,0,1,1,1,0,11,11,15,,,,,,,,,,,,,,,,,,,,,,,,,,,,,,,,,,,,,,,,,,,,,,,,,,,,,,,,,,,,,False,True,True,0.74,0.74,9.200000000000001,-19.560000000000002,-1.5,-21.060000000000002,-11.280000000000001,gamble,lose,-21.060000000000002,74.07833333333336,675.8070230509366,None,675.8070230509366,None,675.8070230509366,None,675.8070230509366,None,675.8070230509366,None,675.8070230509366,None,675.8070230509366,None,1,1.8009859316298389,675.8070230509366,None,677.6410606668578,None,677.6410606668578,None,677.6410606668578,None,677.6410606668578,None,677.6410606668578,None,677.6410606668578,None,677.6410606668578,None,681.6426410629101,None,681.6426410629101,None,681.6426410629101,None,681.6426410629101,None,681.6426410629101,None,681.6426410629101,None,681.6426410629101,None,691.1295959958625,None,682.6263536080987,None,683.6266761509651,None,0.74,7.5027966514426225,686.6278645678358,None,None,686.6278645678358,None,,,,,,,,,,,,,,,,,,,23693,2020_Mar_02_1643,Mmi_3levels,3.1.5,59.96707263076865,
,,,2,0,-0.1,,,,,,,,,0,1,1,1,0,12,12,25,,,,,,,,,,,,,,,,,,,,,,,,,,,,,,,,,,,,,,,,,,,,,,,,,,,,,,,,,,,,,False,True,False,0.74,0.74,9.940000000000001,-20.3,-0.1,-20.400000000000002,-10.250000000000002,certain,certain,-10.250000000000002,63.82833333333336,693.1470305897383,None,693.1470305897383,None,693.1470305897383,None,693.1470305897383,None,693.1470305897383,None,693.1470305897383,None,693.1470305897383,None,3,1.65081630864006,693.1470305897383,None,694.830952659795,None,694.830952659795,None,694.830952659795,None,694.830952659795,None,694.830952659795,None,694.830952659795,None,694.830952659795,None,698.8324834584819,None,698.8324834584819,None,698.8324834584819,None,698.8324834584819,None,698.8324834584819,None,698.8324834584819,None,698.8324834584819,None,699.8161934438067,None,,,,,,,,,,,,,,,,,,,,,,,,,,,,,,23693,2020_Mar_02_1643,Mmi_3levels,3.1.5,59.96707263076865,
,,,2,0,2.9,,,,,,,,,0,1,1,1,0,13,13,18,,,,,,,,,,,,,,,,,,,,,,,,,,,,,,,,,,,,,,,,,,,,,,,,,,,,,,,,,,,,,False,True,False,0.74,0.74,10.680000000000001,-21.04,2.9,-18.14,-7.62,gamble,lose,-18.14,45.68833333333336,701.8336837147217,None,701.8336837147217,None,701.8336837147217,None,701.8336837147217,None,701.8336837147217,None,701.8336837147217,None,701.8336837147217,None,1,1.3507560878388176,701.8336837147217,None,703.217541084221,None,703.217541084221,None,703.217541084221,None,703.217541084221,None,703.217541084221,None,703.217541084221,None,703.217541084221,None,707.2190120460837,None,707.2190120460837,None,707.2190120460837,None,707.2190120460837,None,707.2190120460837,None,707.2190120460837,None,707.2190120460837,None,716.7060204161971,None,708.2027293910178,None,709.2031588082064,None,0.76,7.502756973546639,712.204273309002,None,None,712.204273309002,None,,,,,,,,,,,,,,,,,,,23693,2020_Mar_02_1643,Mmi_3levels,3.1.5,59.96707263076865,
,,,2,0,7.3,,,,,,,,,0,1,1,1,0,14,14,6,,,,,,,,,,,,,,,,,,,,,,,,,,,,,,,,,,,,,,,,,,,,,,,,,,,,,,,,,,,,,False,True,False,0.76,0.76,11.440000000000001,-22.080000000000002,7.3,-14.780000000000001,-3.7400000000000007,gamble,lose,-14.780000000000001,30.90833333333336,718.7234601298005,None,718.7234601298005,None,718.7234601298005,None,718.7234601298005,None,718.7234601298005,None,718.7234601298005,None,718.7234601298005,None,1,1.5674485771342006,718.7234601298005,None,720.3240167082331,None,720.3240167082331,None,720.3240167082331,None,720.3240167082331,None,720.3240167082331,None,720.3240167082331,None,720.3240167082331,None,724.3255436671207,None,724.3255436671207,None,724.3255436671207,None,724.3255436671207,None,724.3255436671207,None,724.3255436671207,None,724.3255436671207,None,725.3093026098468,None,,,,,,,,,,,,,,,,,,,,,,,,,,,,,,23693,2020_Mar_02_1643,Mmi_3levels,3.1.5,59.96707263076865,
,,,2,0,9.3,,,,,,,,,0,1,1,1,0,15,15,7,,,,,,,,,,,,,,,,,,,,,,,,,,,,,,,,,,,,,,,,,,,,,,,,,,,,,,,,,,,,,False,True,True,0.76,0.76,12.200000000000001,-22.840000000000003,9.3,-13.540000000000003,-2.120000000000001,gamble,lose,-13.540000000000003,17.368333333333357,727.3267413635003,None,727.3267413635003,None,727.3267413635003,None,727.3267413635003,None,727.3267413635003,None,727.3267413635003,None,727.3267413635003,None,1,0.9005460829939693,727.3267413635003,None,728.2603781687139,None,728.2603781687139,None,728.2603781687139,None,728.2603781687139,None,728.2603781687139,None,728.2603781687139,None,728.2603781687139,None,732.2619009678237,None,732.2619009678237,None,732.2619009678237,None,732.2619009678237,None,732.2619009678237,None,732.2619009678237,None,732.2619009678237,None,741.7488546208442,None,733.2456138329944,None,734.2459955727172,None,0.76,7.502780652292131,737.247127672581,None,None,737.247127672581,None,,,,,,,,,,,,,,,,,,,23693,2020_Mar_02_1643,Mmi_3levels,3.1.5,59.96707263076865,
,,,2,0,9.1,,,,,,,,,0,1,1,1,0,16,16,16,,,,,,,,,,,,,,,,,,,,,,,,,,,,,,,,,,,,,,,,,,,,,,,,,,,,,,,,,,,,,False,True,True,0.76,0.76,12.96,-23.6,9.1,-14.500000000000002,-2.700000000000001,gamble,lose,-14.500000000000002,2.8683333333333554,743.7662901746662,None,743.7662901746662,None,743.7662901746662,None,743.7662901746662,None,743.7662901746662,None,743.7662901746662,None,743.7662901746662,None,1,0.9839525324423448,743.7662901746662,None,744.7833468686149,None,744.7833468686149,None,744.7833468686149,None,744.7833468686149,None,744.7833468686149,None,744.7833468686149,None,744.7833468686149,None,748.7848779872838,None,748.7848779872838,None,748.7848779872838,None,748.7848779872838,None,748.7848779872838,None,748.7848779872838,None,748.7848779872838,None,749.7685886125764,None,,,,,,,,,,,,,,,,,,,,,,,,,,,,,,23693,2020_Mar_02_1643,Mmi_3levels,3.1.5,59.96707263076865,
,,,2,0,10.1,,,,,,,,,0,1,1,1,0,17,17,10,,,,,,,,,,,,,,,,,,,,,,,,,,,,,,,,,,,,,,,,,,,,,,,,,,,,,,,,,,,,,False,True,False,0.76,0.76,13.72,-24.36,10.1,-14.26,-2.08,gamble,lose,-14.26,-11.391666666666644,751.7860254463303,None,751.7860254463303,None,751.7860254463303,None,751.7860254463303,None,751.7860254463303,None,751.7860254463303,None,751.7860254463303,None,1,1.2173702132968174,751.7860254463303,None,753.0365043008933,None,753.0365043008933,None,753.0365043008933,None,753.0365043008933,None,753.0365043008933,None,753.0365043008933,None,753.0365043008933,None,757.0380280599529,None,757.0380280599529,None,757.0380280599529,None,757.0380280599529,None,757.0380280599529,None,757.0380280599529,None,757.0380280599529,None,758.0217338854964,None,,,,,,,,,,,,,,,,,,,,,,,,,,,,,,23693,2020_Mar_02_1643,Mmi_3levels,3.1.5,59.96707263076865,
,,,2,0,2.5,,,,,,,,,0,1,1,1,0,18,18,2,,,,,,,,,,,,,,,,,,,,,,,,,,,,,,,,,,,,,,,,,,,,,,,,,,,,,,,,,,,,,False,False,True,0.76,0.76,14.48,3.866666666666667,0.625,-3.241666666666667,-1.3083333333333336,gamble,win,0.625,-10.766666666666644,760.0391735990997,None,760.0391735990997,None,760.0391735990997,None,760.0391735990997,None,760.0391735990997,None,760.0391735990997,None,760.0391735990997,None,1,1.4007758307889162,760.0391735990997,None,761.4730539113771,None,761.4730539113771,None,761.4730539113771,None,761.4730539113771,None,761.4730539113771,None,761.4730539113771,None,761.4730539113771,None,765.4745795903327,None,765.4745795903327,None,765.4745795903327,None,765.4745795903327,None,765.4745795903327,None,765.4745795903327,None,765.4745795903327,None,774.961533883321,None,766.4582911755751,None,767.458663955771,None,0.74,7.502772332733002,770.4598542925414,None,None,770.4598542925414,None,,,,,,,,,,,,,,,,,,,23693,2020_Mar_02_1643,Mmi_3levels,3.1.5,59.96707263076865,
,,,2,0,-1.3,,,,,,,,,0,1,1,1,0,19,19,9,,,,,,,,,,,,,,,,,,,,,,,,,,,,,,,,,,,,,,,,,,,,,,,,,,,,,,,,,,,,,False,False,False,0.74,0.74,15.22,3.8583333333333334,-0.325,-4.183333333333334,-2.254166666666667,certain,certain,-2.254166666666667,-13.02083333333331,776.979019034512,None,776.979019034512,None,776.979019034512,None,776.979019034512,None,776.979019034512,None,776.979019034512,None,776.979019034512,None,3,1.9675799621509213,776.979019034512,None,778.9797633149756,None,778.9797633149756,None,778.9797633149756,None,778.9797633149756,None,778.9797633149756,None,778.9797633149756,None,778.9797633149756,None,782.9812787544761,None,782.9812787544761,None,782.9812787544761,None,782.9812787544761,None,782.9812787544761,None,782.9812787544761,None,782.9812787544761,None,783.9649714607185,None,,,,,,,,,,,,,,,,,,,,,,,,,,,,,,23693,2020_Mar_02_1643,Mmi_3levels,3.1.5,59.96707263076865,
,,,2,0,9.9,,,,,,,,,0,1,1,1,0,20,20,17,,,,,,,,,,,,,,,,,,,,,,,,,,,,,,,,,,,,,,,,,,,,,,,,,,,,,,,,,,,,,False,True,False,0.74,0.74,15.96,-26.32,9.9,-16.42,-3.2600000000000007,gamble,lose,-16.42,-29.440833333333313,785.982464611483,None,785.982464611483,None,785.982464611483,None,785.982464611483,None,785.982464611483,None,785.982464611483,None,785.982464611483,None,1,1.7673598778419546,785.982464611483,None,787.7830921621462,None,787.7830921621462,None,787.7830921621462,None,787.7830921621462,None,787.7830921621462,None,787.7830921621462,None,787.7830921621462,None,791.7846204009657,None,791.7846204009657,None,791.7846204009657,None,791.7846204009657,None,791.7846204009657,None,791.7846204009657,None,791.7846204009657,None,801.271575013936,None,792.7683281464124,None,793.7687063663179,None,0.67,7.5027899318010896,796.7698960631242,None,None,796.7698960631242,None,,,,,,,,,,,,,,,,,,,23693,2020_Mar_02_1643,Mmi_3levels,3.1.5,59.96707263076865,
,,,2,0,5.7,,,,,,,,,0,1,1,1,0,21,21,22,,,,,,,,,,,,,,,,,,,,,,,,,,,,,,,,,,,,,,,,,,,,,,,,,,,,,,,,,,,,,False,True,True,0.67,0.67,16.630000000000003,-26.010000000000005,5.7,-20.310000000000006,-7.305000000000003,gamble,lose,-20.310000000000006,-49.75083333333332,803.2890640049227,None,803.2890640049227,None,803.2890640049227,None,803.2890640049227,None,803.2890640049227,None,803.2890640049227,None,803.2890640049227,None,1,1.3673667254806787,803.2890640049227,None,804.6895428914831,None,804.6895428914831,None,804.6895428914831,None,804.6895428914831,None,804.6895428914831,None,804.6895428914831,None,804.6895428914831,None,808.6911236075175,None,808.6911236075175,None,808.6911236075175,None,808.6911236075175,None,808.6911236075175,None,808.6911236075175,None,808.6911236075175,None,809.6748300730287,None,,,,,,,,,,,,,,,,,,,,,,,,,,,,,,23693,2020_Mar_02_1643,Mmi_3levels,3.1.5,59.96707263076865,
,,,2,0,12.5,,,,,,,,,0,1,1,1,0,22,22,4,,,,,,,,,,,,,,,,,,,,,,,,,,,,,,,,,,,,,,,,,,,,,,,,,,,,,,,,,,,,,False,True,False,0.67,0.67,17.300000000000004,-26.680000000000007,12.5,-14.180000000000007,-0.8400000000000034,gamble,lose,-14.180000000000007,-63.930833333333325,811.69227298646,None,811.69227298646,None,811.69227298646,None,811.69227298646,None,811.69227298646,None,811.69227298646,None,811.69227298646,None,1,1.4007745508533844,811.69227298646,None,813.1261478590277,None,813.1261478590277,None,813.1261478590277,None,813.1261478590277,None,813.1261478590277,None,813.1261478590277,None,813.1261478590277,None,817.1276207407864,None,817.1276207407864,None,817.1276207407864,None,817.1276207407864,None,817.1276207407864,None,817.1276207407864,None,817.1276207407864,None,826.6146316707673,None,818.1113899229676,None,819.1117172655795,None,0.71,7.502898726022977,822.1128458456296,None,None,822.1128458456296,None,,,,,,,,,,,,,,,,,,,23693,2020_Mar_02_1643,Mmi_3levels,3.1.5,59.96707263076865,
,,,2,0,6.3,,,,,,,,,0,1,1,1,0,23,23,12,,,,,,,,,,,,,,,,,,,,,,,,,,,,,,,,,,,,,,,,,,,,,,,,,,,,,,,,,,,,,False,False,True,0.71,0.71,18.010000000000005,3.985833333333334,1.575,-2.4108333333333336,-0.4179166666666668,gamble,win,1.575,-62.35583333333332,828.6320685045212,None,828.6320685045212,None,828.6320685045212,None,828.6320685045212,None,828.6320685045212,None,828.6320685045212,None,828.6320685045212,None,1,2.0009708284269436,828.6320685045212,None,830.6661214156338,None,830.6661214156338,None,830.6661214156338,None,830.6661214156338,None,830.6661214156338,None,830.6661214156338,None,830.6661214156338,None,834.6677347699297,None,834.6677347699297,None,834.6677347699297,None,834.6677347699297,None,834.6677347699297,None,834.6677347699297,None,834.6677347699297,None,835.6513618796598,None,,,,,,,,,,,,,,,,,,,,,,,,,,,,,,23693,2020_Mar_02_1643,Mmi_3levels,3.1.5,59.96707263076865,
,,,2,0,9.5,,,,,,,,,0,1,1,1,0,24,24,8,,,,,,,,,,,,,,,,,,,,,,,,,,,,,,,,,,,,,,,,,,,,,,,,,,,,,,,,,,,,,False,False,False,0.71,0.71,18.720000000000006,4.045,2.375,-1.67,0.35250000000000004,certain,certain,0.35250000000000004,-62.00333333333332,837.6688009532954,None,837.6688009532954,None,837.6688009532954,None,837.6688009532954,None,837.6688009532954,None,837.6688009532954,None,837.6688009532954,None,3,1.9177189307738445,837.6688009532954,None,839.6195952471026,None,839.6195952471026,None,839.6195952471026,None,839.6195952471026,None,839.6195952471026,None,839.6195952471026,None,839.6195952471026,None,843.6043922146855,None,843.6043922146855,None,843.6043922146855,None,843.6043922146855,None,843.6043922146855,None,843.6043922146855,None,843.6043922146855,None,844.6047749143581,None,,,,,,,,,,,,,,,,,,,,,,,,,,,,,,23693,2020_Mar_02_1643,Mmi_3levels,3.1.5,59.96707263076865,
,,,2,0,4.1,,,,,,,,,0,1,1,1,0,25,25,1,,,,,,,,,,,,,,,,,,,,,,,,,,,,,,,,,,,,,,,,,,,,,,,,,,,,,,,,,,,,,False,True,True,0.71,0.71,19.430000000000007,-29.370000000000005,4.1,-25.270000000000003,-10.585,gamble,lose,-25.270000000000003,-87.27333333333333,846.6222136680117,None,846.6222136680117,None,846.6222136680117,None,846.6222136680117,None,846.6222136680117,None,846.6222136680117,None,846.6222136680117,None,1,1.6343067856250855,846.6222136680117,None,848.2895641383548,None,848.2895641383548,None,848.2895641383548,None,848.2895641383548,None,848.2895641383548,None,848.2895641383548,None,848.2895641383548,None,852.2910408599128,None,852.2910408599128,None,852.2910408599128,None,852.2910408599128,None,852.2910408599128,None,852.2910408599128,None,852.2910408599128,None,861.7779929130193,None,853.2747489253379,None,854.2751876220354,None,0.75,7.50271057601276,857.2762662847381,None,None,857.2762662847381,None,,,,,,,,,,,,,,,,,,,23693,2020_Mar_02_1643,Mmi_3levels,3.1.5,59.96707263076865,
,,,2,0,10.9,,,,,,,,,0,1,1,1,0,26,26,0,,,,,,,,,,,,,,,,,,,,,,,,,,,,,,,,,,,,,,,,,,,,,,,,,,,,,,,,,,,,,False,True,False,0.75,0.75,20.180000000000007,-30.680000000000007,10.9,-19.78000000000001,-4.440000000000004,gamble,lose,-19.78000000000001,-107.05333333333334,863.7954879836798,None,863.7954879836798,None,863.7954879836798,None,863.7954879836798,None,863.7954879836798,None,863.7954879836798,None,863.7954879836798,None,1,1.0839369812674704,863.7954879836798,None,864.912480489038,None,864.912480489038,None,864.912480489038,None,864.912480489038,None,864.912480489038,None,864.912480489038,None,864.912480489038,None,868.9140436060043,None,868.9140436060043,None,868.9140436060043,None,868.9140436060043,None,868.9140436060043,None,868.9140436060043,None,868.9140436060043,None,869.8977606309563,None,,,,,,,,,,,,,,,,,,,,,,,,,,,,,,23693,2020_Mar_02_1643,Mmi_3levels,3.1.5,59.96707263076865,
,,,3,1,11.1,,,,,,,,,0,2,2,2,0,0,0,4,,,,,,,,,,,,,,,,,,,,,,,,,,,,,,,,,,,,,,,,,,,,,,,,,885.2870253932124,None,0.74,7.468659264817688,888.2881034159473,None,4,4.451908474620723,888.2881034159473,None,892.756455817067,None,True,False,True,0.74,-0.26,-0.26,-0.9316666666666666,11.1,10.168333333333333,5.0841666666666665,gamble,lose,10.168333333333333,-96.885,895.7909669438377,None,895.7909669438377,None,895.7909669438377,None,895.7909669438377,None,895.7909669438377,None,895.7909669438377,None,895.7909669438377,None,1,1.1671895188956114,895.7909669438377,None,896.9914305352104,None,896.9914305352104,None,896.9914305352104,None,896.9914305352104,None,896.9914305352104,None,896.9914305352104,None,896.9914305352104,None,900.9762876595996,None,900.9762876595996,None,900.9762876595996,None,900.9762876595996,None,900.9762876595996,None,900.9762876595996,None,900.9762876595996,None,910.479911147122,None,901.9766789988134,None,902.9770540188911,None,0.76,7.502772652715066,905.9781800390774,None,None,905.9781800390774,None,871.8985161108249,None,4,13.37198983989947,871.8985161108249,None,,,,,,,,,,,,,23693,2020_Mar_02_1643,Mmi_3levels,3.1.5,59.96707263076865,
,,,3,1,-0.1,,,,,,,,,0,2,2,2,0,1,1,10,,,,,,,,,,,,,,,,,,,,,,,,,,,,,,,,,,,,,,,,,,,,,,,,,,,,,,,,,,,,,True,False,True,0.76,-0.24,-0.5,-0.8816666666666666,-0.1,-0.9816666666666666,-0.5408333333333333,gamble,lose,-0.9816666666666666,-97.86666666666667,912.4972974235643,None,912.4972974235643,None,912.4972974235643,None,912.4972974235643,None,912.4972974235643,None,912.4972974235643,None,912.4972974235643,None,1,1.9344134039602068,912.4972974235643,None,914.4648229886043,None,914.4648229886043,None,914.4648229886043,None,914.4648229886043,None,914.4648229886043,None,914.4648229886043,None,914.4648229886043,None,918.4496167563593,None,918.4496167563593,None,918.4496167563593,None,918.4496167563593,None,918.4496167563593,None,918.4496167563593,None,918.4496167563593,None,919.4500516132612,None,,,,,,,,,,,,,,,,,,,,,,,,,,,,,,23693,2020_Mar_02_1643,Mmi_3levels,3.1.5,59.96707263076865,
,,,3,1,-1.5,,,,,,,,,0,2,2,2,0,2,2,3,,,,,,,,,,,,,,,,,,,,,,,,,,,,,,,,,,,,,,,,,,,,,,,,,,,,,,,,,,,,,True,True,True,0.76,-0.24,-0.74,4.1,-1.5,-5.6,-3.55,certain,certain,-3.55,-101.41666666666667,921.4674980465061,None,921.4674980465061,None,921.4674980465061,None,921.4674980465061,None,921.4674980465061,None,921.4674980465061,None,921.4674980465061,None,3,1.4507334970367083,921.4674980465061,None,922.9513910621099,None,922.9513910621099,None,922.9513910621099,None,922.9513910621099,None,922.9513910621099,None,922.9513910621099,None,922.9513910621099,None,926.9529141812018,None,926.9529141812018,None,926.9529141812018,None,926.9529141812018,None,926.9529141812018,None,926.9529141812018,None,926.9529141812018,None,927.9366267263904,None,,,,,,,,,,,,,,,,,,,,,,,,,,,,,,23693,2020_Mar_02_1643,Mmi_3levels,3.1.5,59.96707263076865,
,,,3,1,1.7,,,,,,,,,0,2,2,2,0,3,3,20,,,,,,,,,,,,,,,,,,,,,,,,,,,,,,,,,,,,,,,,,,,,,,,,,,,,,,,,,,,,,True,True,False,0.76,-0.24,-0.98,4.34,1.7,-2.6399999999999997,-0.46999999999999986,gamble,win,1.7,-99.71666666666667,929.9540120428828,None,929.9540120428828,None,929.9540120428828,None,929.9540120428828,None,929.9540120428828,None,929.9540120428828,None,929.9540120428828,None,1,1.3505909766063269,929.9540120428828,None,931.337808295626,None,931.337808295626,None,931.337808295626,None,931.337808295626,None,931.337808295626,None,931.337808295626,None,931.337808295626,None,935.3393998910797,None,935.3393998910797,None,935.3393998910797,None,935.3393998910797,None,935.3393998910797,None,935.3393998910797,None,935.3393998910797,None,944.8264015415516,None,936.3231073165407,None,937.3234922560914,None,0.81,7.502817450338625,940.3246221160734,None,None,940.3246221160734,None,,,,,,,,,,,,,,,,,,,23693,2020_Mar_02_1643,Mmi_3levels,3.1.5,59.96707263076865,
,,,3,1,4.1,,,,,,,,,0,2,2,2,0,4,4,7,,,,,,,,,,,,,,,,,,,,,,,,,,,,,,,,,,,,,,,,,,,,,,,,,,,,,,,,,,,,,True,True,True,0.81,-0.18999999999999995,-1.17,3.829999999999999,4.1,0.27000000000000046,0.13500000000000023,gamble,win,4.1,-95.61666666666667,946.8437903778577,None,946.8437903778577,None,946.8437903778577,None,946.8437903778577,None,946.8437903778577,None,946.8437903778577,None,946.8437903778577,None,1,1.1673962279128318,946.8437903778577,None,948.0443019666818,None,948.0443019666818,None,948.0443019666818,None,948.0443019666818,None,948.0443019666818,None,948.0443019666818,None,948.0443019666818,None,952.0290995742325,None,952.0290995742325,None,952.0290995742325,None,952.0290995742325,None,952.0290995742325,None,952.0290995742325,None,952.0290995742325,None,953.0295373109802,None,,,,,,,,,,,,,,,,,,,,,,,,,,,,,,23693,2020_Mar_02_1643,Mmi_3levels,3.1.5,59.96707263076865,
,,,3,1,9.1,,,,,,,,,0,2,2,2,0,5,5,23,,,,,,,,,,,,,,,,,,,,,,,,,,,,,,,,,,,,,,,,,,,,,,,,,,,,,,,,,,,,,True,True,True,0.81,-0.18999999999999995,-1.3599999999999999,4.02,9.1,5.08,2.54,gamble,win,9.1,-86.51666666666668,955.0469757446517,None,955.0469757446517,None,955.0469757446517,None,955.0469757446517,None,955.0469757446517,None,955.0469757446517,None,955.0469757446517,None,1,1.0505979522349662,955.0469757446517,None,956.1306676189379,None,956.1306676189379,None,956.1306676189379,None,956.1306676189379,None,956.1306676189379,None,956.1306676189379,None,956.1306676189379,None,960.115524103363,None,960.115524103363,None,960.115524103363,None,960.115524103363,None,960.115524103363,None,960.115524103363,None,960.115524103363,None,969.619201348025,None,961.1159080829639,None,962.116340699984,None,0.82,7.5027969714246865,965.1174184027368,None,None,965.1174184027368,None,,,,,,,,,,,,,,,,,,,23693,2020_Mar_02_1643,Mmi_3levels,3.1.5,59.96707263076865,
,,,3,1,8.1,,,,,,,,,0,2,2,2,0,6,6,0,,,,,,,,,,,,,,,,,,,,,,,,,,,,,,,,,,,,,,,,,,,,,,,,,,,,,,,,,,,,,True,True,True,0.82,-0.18000000000000005,-1.54,4.0600000000000005,8.1,4.039999999999999,2.0199999999999996,gamble,win,8.1,-78.41666666666669,971.6365770650264,None,971.6365770650264,None,971.6365770650264,None,971.6365770650264,None,971.6365770650264,None,971.6365770650264,None,971.6365770650264,None,1,0.8338901037568576,971.6365770650264,None,972.5035786899025,None,972.5035786899025,None,972.5035786899025,None,972.5035786899025,None,972.5035786899025,None,972.5035786899025,None,972.5035786899025,None,976.4884252548509,None,976.4884252548509,None,976.4884252548509,None,976.4884252548509,None,976.4884252548509,None,976.4884252548509,None,976.4884252548509,None,977.4888108343694,None,,,,,,,,,,,,,,,,,,,,,,,,,,,,,,23693,2020_Mar_02_1643,Mmi_3levels,3.1.5,59.96707263076865,
,,,3,1,6.9,,,,,,,,,0,2,2,2,0,7,7,26,,,,,,,,,,,,,,,,,,,,,,,,,,,,,,,,,,,,,,,,,,,,,,,,,,,,,,,,,,,,,True,False,True,0.82,-0.18000000000000005,-1.7200000000000002,-0.7733333333333334,6.9,6.126666666666667,3.0633333333333335,gamble,lose,6.126666666666667,-72.29000000000002,979.5063062250156,None,979.5063062250156,None,979.5063062250156,None,979.5063062250156,None,979.5063062250156,None,979.5063062250156,None,979.5063062250156,None,1,1.0839437009126414,979.5063062250156,None,980.6233448079256,None,980.6233448079256,None,980.6233448079256,None,980.6233448079256,None,980.6233448079256,None,980.6233448079256,None,980.6233448079256,None,984.6248682469995,None,984.6248682469995,None,984.6248682469995,None,984.6248682469995,None,984.6248682469995,None,984.6248682469995,None,984.6248682469995,None,994.1118250998516,None,985.608579832242,None,986.6090188489216,None,0.83,7.502778732396109,989.6100965516744,None,None,989.6100965516744,None,,,,,,,,,,,,,,,,,,,23693,2020_Mar_02_1643,Mmi_3levels,3.1.5,59.96707263076865,
,,,3,1,0.1,,,,,,,,,0,2,2,2,0,8,8,1,,,,,,,,,,,,,,,,,,,,,,,,,,,,,,,,,,,,,,,,,,,,,,,,,,,,,,,,,,,,,True,False,True,0.83,-0.17000000000000004,-1.8900000000000001,-0.7525000000000002,0.1,-0.6525000000000002,-0.2762500000000001,gamble,lose,-0.6525000000000002,-72.94250000000002,996.1292587337775,None,996.1292587337775,None,996.1292587337775,None,996.1292587337775,None,996.1292587337775,None,996.1292587337775,None,996.1292587337775,None,1,2.167741809556901,996.1292587337775,None,998.3301047048408,None,998.3301047048408,None,998.3301047048408,None,998.3301047048408,None,998.3301047048408,None,998.3301047048408,None,998.3301047048408,None,1002.3149307908789,None,1002.3149307908789,None,1002.3149307908789,None,1002.3149307908789,None,1002.3149307908789,None,1002.3149307908789,None,1002.3149307908789,None,1003.3153013311967,None,,,,,,,,,,,,,,,,,,,,,,,,,,,,,,23693,2020_Mar_02_1643,Mmi_3levels,3.1.5,59.96707263076865,
,,,3,1,-0.3,,,,,,,,,0,2,2,2,0,9,9,9,,,,,,,,,,,,,,,,,,,,,,,,,,,,,,,,,,,,,,,,,,,,,,,,,,,,,,,,,,,,,True,True,False,0.83,-0.17000000000000004,-2.06,4.440000000000001,-0.3,-4.740000000000001,-2.5200000000000005,certain,certain,-2.5200000000000005,-75.46250000000002,1005.3328031214987,None,1005.3328031214987,None,1005.3328031214987,None,1005.3328031214987,None,1005.3328031214987,None,1005.3328031214987,None,1005.3328031214987,None,3,1.9676327593479073,1005.3328031214987,None,1007.3335362025573,None,1007.3335362025573,None,1007.3335362025573,None,1007.3335362025573,None,1007.3335362025573,None,1007.3335362025573,None,1007.3335362025573,None,1011.3350625214807,None,1011.3350625214807,None,1011.3350625214807,None,1011.3350625214807,None,1011.3350625214807,None,1011.3350625214807,None,1011.3350625214807,None,1012.3187699469418,None,,,,,,,,,,,,,,,,,,,,,,,,,,,,,,23693,2020_Mar_02_1643,Mmi_3levels,3.1.5,59.96707263076865,
,,,3,1,12.9,,,,,,,,,0,2,2,2,0,10,10,19,,,,,,,,,,,,,,,,,,,,,,,,,,,,,,,,,,,,,,,,,,,,,,,,,,,,,,,,,,,,,True,True,True,0.83,-0.17000000000000004,-2.23,4.610000000000001,12.9,8.29,4.145,gamble,win,12.9,-62.56250000000002,1014.3362694973657,None,1014.3362694973657,None,1014.3362694973657,None,1014.3362694973657,None,1014.3362694973657,None,1014.3362694973657,None,1014.3362694973657,None,1,0.9671995023636555,1014.3362694973657,None,1015.3365930001819,None,1015.3365930001819,None,1015.3365930001819,None,1015.3365930001819,None,1015.3365930001819,None,1015.3365930001819,None,1015.3365930001819,None,1019.3380969202917,None,1019.3380969202917,None,1019.3380969202917,None,1019.3380969202917,None,1019.3380969202917,None,1019.3380969202917,None,1019.3380969202917,None,1028.82507361209,None,1020.3218273845305,None,1021.3222708809735,None,0.8,7.502714415812079,1024.3233434639988,None,None,1024.3233434639988,None,,,,,,,,,,,,,,,,,,,23693,2020_Mar_02_1643,Mmi_3levels,3.1.5,59.96707263076865,
,,,3,1,13.7,,,,,,,,,0,2,2,2,0,11,11,13,,,,,,,,,,,,,,,,,,,,,,,,,,,,,,,,,,,,,,,,,,,,,,,,,,,,,,,,,,,,,True,True,False,0.8,-0.19999999999999996,-2.4299999999999997,5.229999999999999,13.7,8.47,4.235,gamble,win,13.7,-48.862500000000026,1030.8425101258654,None,1030.8425101258654,None,1030.8425101258654,None,1030.8425101258654,None,1030.8425101258654,None,1030.8425101258654,None,1030.8425101258654,None,1,1.0173123603672138,1030.8425101258654,None,1031.8929106485884,None,1031.8929106485884,None,1031.8929106485884,None,1031.8929106485884,None,1031.8929106485884,None,1031.8929106485884,None,1031.8929106485884,None,1035.89447952525,None,1035.89447952525,None,1035.89447952525,None,1035.89447952525,None,1035.89447952525,None,1035.89447952525,None,1035.89447952525,None,1036.878143113041,None,,,,,,,,,,,,,,,,,,,,,,,,,,,,,,23693,2020_Mar_02_1643,Mmi_3levels,3.1.5,59.96707263076865,
,,,3,1,2.3,,,,,,,,,0,2,2,2,0,12,12,12,,,,,,,,,,,,,,,,,,,,,,,,,,,,,,,,,,,,,,,,,,,,,,,,,,,,,,,,,,,,,True,False,True,0.8,-0.19999999999999996,-2.63,-0.9191666666666665,2.3,1.3808333333333334,1.8404166666666666,gamble,lose,1.3808333333333334,-47.48166666666669,1038.895589866268,None,1038.895589866268,None,1038.895589866268,None,1038.895589866268,None,1038.895589866268,None,1038.895589866268,None,1038.895589866268,None,1,1.4507990935526323,1038.895589866268,None,1040.3794908814452,None,1040.3794908814452,None,1040.3794908814452,None,1040.3794908814452,None,1040.3794908814452,None,1040.3794908814452,None,1040.3794908814452,None,1044.3810104807235,None,1044.3810104807235,None,1044.3810104807235,None,1044.3810104807235,None,1044.3810104807235,None,1044.3810104807235,None,1044.3810104807235,None,1053.8680191708227,None,1045.3647703833994,None,1046.3651050856206,None,0.81,7.502778732392471,1049.3662419852262,None,None,1049.3662419852262,None,,,,,,,,,,,,,,,,,,,23693,2020_Mar_02_1643,Mmi_3levels,3.1.5,59.96707263076865,
,,,3,1,13.9,,,,,,,,,0,2,2,2,0,13,13,16,,,,,,,,,,,,,,,,,,,,,,,,,,,,,,,,,,,,,,,,,,,,,,,,,,,,,,,,,,,,,True,True,True,0.81,-0.18999999999999995,-2.82,5.479999999999999,13.9,8.420000000000002,4.210000000000001,gamble,win,13.9,-33.58166666666669,1055.8854108869746,None,1055.8854108869746,None,1055.8854108869746,None,1055.8854108869746,None,1055.8854108869746,None,1055.8854108869746,None,1055.8854108869746,None,1,1.050651069414016,1055.8854108869746,None,1056.9691491587982,None,1056.9691491587982,None,1056.9691491587982,None,1056.9691491587982,None,1056.9691491587982,None,1056.9691491587982,None,1056.9691491587982,None,1060.9706764376679,None,1060.9706764376679,None,1060.9706764376679,None,1060.9706764376679,None,1060.9706764376679,None,1060.9706764376679,None,1060.9706764376679,None,1061.9543310659355,None,,,,,,,,,,,,,,,,,,,,,,,,,,,,,,23693,2020_Mar_02_1643,Mmi_3levels,3.1.5,59.96707263076865,
,,,3,1,7.7,,,,,,,,,0,2,2,2,0,14,14,6,,,,,,,,,,,,,,,,,,,,,,,,,,,,,,,,,,,,,,,,,,,,,,,,,,,,,,,,,,,,,True,True,True,0.81,-0.18999999999999995,-3.01,5.669999999999999,7.7,2.030000000000001,1.0150000000000006,gamble,win,7.7,-25.881666666666693,1063.971869334302,None,1063.971869334302,None,1063.971869334302,None,1063.971869334302,None,1063.971869334302,None,1063.971869334302,None,1063.971869334302,None,1,1.0339370772599068,1063.971869334302,None,1065.0388920140576,None,1065.0388920140576,None,1065.0388920140576,None,1065.0388920140576,None,1065.0388920140576,None,1065.0388920140576,None,1065.0388920140576,None,1069.0403520964974,None,1069.0403520964974,None,1069.0403520964974,None,1069.0403520964974,None,1069.0403520964974,None,1069.0403520964974,None,1069.0403520964974,None,1070.0241244785102,None,,,,,,,,,,,,,,,,,,,,,,,,,,,,,,23693,2020_Mar_02_1643,Mmi_3levels,3.1.5,59.96707263076865,
,,,3,1,10.5,,,,,,,,,0,2,2,2,0,15,15,22,,,,,,,,,,,,,,,,,,,,,,,,,,,,,,,,,,,,,,,,,,,,,,,,,,,,,,,,,,,,,True,True,True,0.81,-0.18999999999999995,-3.1999999999999997,5.859999999999999,10.5,4.640000000000001,2.3200000000000003,gamble,win,10.5,-15.381666666666693,1072.0415606723,None,1072.0415606723,None,1072.0415606723,None,1072.0415606723,None,1072.0415606723,None,1072.0415606723,None,1072.0415606723,None,1,0.9339337494384381,1072.0415606723,None,1073.0086037029723,None,1073.0086037029723,None,1073.0086037029723,None,1073.0086037029723,None,1073.0086037029723,None,1073.0086037029723,None,1073.0086037029723,None,1077.0101329017416,None,1077.0101329017416,None,1077.0101329017416,None,1077.0101329017416,None,1077.0101329017416,None,1077.0101329017416,None,1077.0101329017416,None,1086.4971451116544,None,1077.993844806966,None,1078.9942723042586,None,0.8,7.502756013600447,1081.995401524273,None,None,1081.995401524273,None,,,,,,,,,,,,,,,,,,,23693,2020_Mar_02_1643,Mmi_3levels,3.1.5,59.96707263076865,
,,,3,1,11.9,,,,,,,,,0,2,2,2,0,16,16,2,,,,,,,,,,,,,,,,,,,,,,,,,,,,,,,,,,,,,,,,,,,,,,,,,,,,,,,,,,,,,True,True,False,0.8,-0.19999999999999996,-3.3999999999999995,6.199999999999999,11.9,5.700000000000001,2.8500000000000005,gamble,win,11.9,-3.4816666666666922,1088.514520188688,None,1088.514520188688,None,1088.514520188688,None,1088.514520188688,None,1088.514520188688,None,1088.514520188688,None,1088.514520188688,None,1,1.417447905165318,1088.514520188688,None,1089.9650677756,None,1089.9650677756,None,1089.9650677756,None,1089.9650677756,None,1089.9650677756,None,1089.9650677756,None,1089.9650677756,None,1093.9666024140824,None,1093.9666024140824,None,1093.9666024140824,None,1093.9666024140824,None,1093.9666024140824,None,1093.9666024140824,None,1093.9666024140824,None,1094.95030535978,None,,,,,,,,,,,,,,,,,,,,,,,,,,,,,,23693,2020_Mar_02_1643,Mmi_3levels,3.1.5,59.96707263076865,
,,,3,1,9.9,,,,,,,,,0,2,2,2,0,17,17,21,,,,,,,,,,,,,,,,,,,,,,,,,,,,,,,,,,,,,,,,,,,,,,,,,,,,,,,,,,,,,True,True,False,0.8,-0.19999999999999996,-3.5999999999999996,6.399999999999999,9.9,3.5000000000000018,1.7500000000000009,gamble,win,9.9,6.418333333333308,1096.96780331029,None,1096.96780331029,None,1096.96780331029,None,1096.96780331029,None,1096.96780331029,None,1096.96780331029,None,1096.96780331029,None,1,1.2506682845014438,1096.96780331029,None,1098.2515706365702,None,1098.2515706365702,None,1098.2515706365702,None,1098.2515706365702,None,1098.2515706365702,None,1098.2515706365702,None,1098.2515706365702,None,1102.253098235422,None,1102.253098235422,None,1102.253098235422,None,1102.253098235422,None,1102.253098235422,None,1102.253098235422,None,1102.253098235422,None,1111.7400467687185,None,1103.236802461055,None,1104.2371880405735,None,0.64,7.502791531711409,1107.238314380742,None,None,1107.238314380742,None,,,,,,,,,,,,,,,,,,,23693,2020_Mar_02_1643,Mmi_3levels,3.1.5,59.96707263076865,
,,,3,1,8.5,,,,,,,,,0,2,2,2,0,18,18,14,,,,,,,,,,,,,,,,,,,,,,,,,,,,,,,,,,,,,,,,,,,,,,,,,,,,,,,,,,,,,True,True,False,0.64,-0.36,-3.9599999999999995,9.0,8.5,-0.5,-0.25,gamble,win,8.5,14.918333333333308,1113.7574823225405,None,1113.7574823225405,None,1113.7574823225405,None,1113.7574823225405,None,1113.7574823225405,None,1113.7574823225405,None,1113.7574823225405,None,1,1.950984363709722,1113.7574823225405,None,1115.7415778873838,None,1115.7415778873838,None,1115.7415778873838,None,1115.7415778873838,None,1115.7415778873838,None,1115.7415778873838,None,1115.7415778873838,None,1119.7431141257803,None,1119.7431141257803,None,1119.7431141257803,None,1119.7431141257803,None,1119.7431141257803,None,1119.7431141257803,None,1119.7431141257803,None,1120.7268122717323,None,,,,,,,,,,,,,,,,,,,,,,,,,,,,,,23693,2020_Mar_02_1643,Mmi_3levels,3.1.5,59.96707263076865,
,,,3,1,6.1,,,,,,,,,0,2,2,2,0,19,19,17,,,,,,,,,,,,,,,,,,,,,,,,,,,,,,,,,,,,,,,,,,,,,,,,,,,,,,,,,,,,,True,False,True,0.64,-0.36,-4.319999999999999,-1.6199999999999999,6.1,4.4799999999999995,2.2399999999999998,gamble,lose,4.4799999999999995,19.39833333333331,1122.744249745454,None,1122.744249745454,None,1122.744249745454,None,1122.744249745454,None,1122.744249745454,None,1122.744249745454,None,1122.744249745454,None,1,1.050651709381782,1122.744249745454,None,1123.8279915370913,None,1123.8279915370913,None,1123.8279915370913,None,1123.8279915370913,None,1123.8279915370913,None,1123.8279915370913,None,1123.8279915370913,None,1127.829583452527,None,1127.829583452527,None,1127.829583452527,None,1127.829583452527,None,1127.829583452527,None,1127.829583452527,None,1127.829583452527,None,1137.3164811085262,None,1128.8132332810492,None,1129.8136179006178,None,0.78,7.502773932650598,1132.814744880754,None,None,1132.814744880754,None,,,,,,,,,,,,,,,,,,,23693,2020_Mar_02_1643,Mmi_3levels,3.1.5,59.96707263076865,
,,,3,1,11.7,,,,,,,,,0,2,2,2,0,20,20,18,,,,,,,,,,,,,,,,,,,,,,,,,,,,,,,,,,,,,,,,,,,,,,,,,,,,,,,,,,,,,True,False,True,0.78,-0.21999999999999997,-4.539999999999999,-1.1483333333333332,11.7,10.551666666666666,5.275833333333333,gamble,lose,10.551666666666666,29.949999999999974,1139.3339089827568,None,1139.3339089827568,None,1139.3339089827568,None,1139.3339089827568,None,1139.3339089827568,None,1139.3339089827568,None,1139.3339089827568,None,1,0.8839293656710652,1139.3339089827568,None,1140.2509297106153,None,1140.2509297106153,None,1140.2509297106153,None,1140.2509297106153,None,1140.2509297106153,None,1140.2509297106153,None,1140.2509297106153,None,1144.2524518697574,None,1144.2524518697574,None,1144.2524518697574,None,1144.2524518697574,None,1144.2524518697574,None,1144.2524518697574,None,1144.2524518697574,None,1145.2361631350177,None,,,,,,,,,,,,,,,,,,,,,,,,,,,,,,23693,2020_Mar_02_1643,Mmi_3levels,3.1.5,59.96707263076865,
,,,3,1,0.3,,,,,,,,,0,2,2,2,0,21,21,25,,,,,,,,,,,,,,,,,,,,,,,,,,,,,,,,,,,,,,,,,,,,,,,,,,,,,,,,,,,,,True,True,False,0.78,-0.21999999999999997,-4.759999999999999,7.839999999999998,0.3,-7.539999999999998,-3.619999999999999,gamble,win,0.3,30.249999999999975,1147.2535983688576,None,1147.2535983688576,None,1147.2535983688576,None,1147.2535983688576,None,1147.2535983688576,None,1147.2535983688576,None,1147.2535983688576,None,1,1.2840873092827678,1147.2535983688576,None,1148.5707741604783,None,1148.5707741604783,None,1148.5707741604783,None,1148.5707741604783,None,1148.5707741604783,None,1148.5707741604783,None,1148.5707741604783,None,1152.572299839434,None,1152.572299839434,None,1152.572299839434,None,1152.572299839434,None,1152.572299839434,None,1152.572299839434,None,1152.572299839434,None,1153.55605974211,None,,,,,,,,,,,,,,,,,,,,,,,,,,,,,,23693,2020_Mar_02_1643,Mmi_3levels,3.1.5,59.96707263076865,
,,,3,1,5.7,,,,,,,,,0,2,2,2,0,22,22,8,,,,,,,,,,,,,,,,,,,,,,,,,,,,,,,,,,,,,,,,,,,,,,,,,,,,,,,,,,,,,True,False,False,0.78,-0.21999999999999997,-4.979999999999999,-1.1849999999999998,5.7,4.515000000000001,2.2575000000000003,gamble,lose,4.515000000000001,34.76499999999997,1155.5734421787529,None,1155.5734421787529,None,1155.5734421787529,None,1155.5734421787529,None,1155.5734421787529,None,1155.5734421787529,None,1155.5734421787529,None,1,1.5675170534923382,1155.5734421787529,None,1157.1740569940957,None,1157.1740569940957,None,1157.1740569940957,None,1157.1740569940957,None,1157.1740569940957,None,1157.1740569940957,None,1157.1740569940957,None,1161.1756140313846,None,1161.1756140313846,None,1161.1756140313846,None,1161.1756140313846,None,1161.1756140313846,None,1161.1756140313846,None,1161.1756140313846,None,1170.6625308863622,None,1162.1593412957918,None,1163.159674398099,None,0.78,7.502741614363913,1166.1607936986402,None,None,1166.1607936986402,None,,,,,,,,,,,,,,,,,,,23693,2020_Mar_02_1643,Mmi_3levels,3.1.5,59.96707263076865,
,,,3,1,5.9,,,,,,,,,0,2,2,2,0,23,23,11,,,,,,,,,,,,,,,,,,,,,,,,,,,,,,,,,,,,,,,,,,,,,,,,,,,,,,,,,,,,,True,True,False,0.78,-0.21999999999999997,-5.199999999999998,8.279999999999998,5.9,-2.3799999999999972,1.7600000000000016,gamble,win,5.9,40.66499999999997,1172.6799718798939,None,1172.6799718798939,None,1172.6799718798939,None,1172.6799718798939,None,1172.6799718798939,None,1172.6799718798939,None,1172.6799718798939,None,1,1.6009335184098745,1172.6799718798939,None,1174.313928284133,None,1174.313928284133,None,1174.313928284133,None,1174.313928284133,None,1174.313928284133,None,1174.313928284133,None,1174.313928284133,None,1178.3154514032249,None,1178.3154514032249,None,1178.3154514032249,None,1178.3154514032249,None,1178.3154514032249,None,1178.3154514032249,None,1178.3154514032249,None,1179.2992170655925,None,,,,,,,,,,,,,,,,,,,,,,,,,,,,,,23693,2020_Mar_02_1643,Mmi_3levels,3.1.5,59.96707263076865,
,,,3,1,0.5,,,,,,,,,0,2,2,2,0,24,24,24,,,,,,,,,,,,,,,,,,,,,,,,,,,,,,,,,,,,,,,,,,,,,,,,,,,,,,,,,,,,,True,False,True,0.78,-0.21999999999999997,-5.419999999999998,-1.2216666666666665,0.5,-0.7216666666666665,-0.11083333333333323,gamble,lose,-0.7216666666666665,39.94333333333331,1181.3166119815724,None,1181.3166119815724,None,1181.3166119815724,None,1181.3166119815724,None,1181.3166119815724,None,1181.3166119815724,None,1181.3166119815724,None,1,1.98435059129406,1181.3166119815724,None,1183.3340340961113,None,1183.3340340961113,None,1183.3340340961113,None,1183.3340340961113,None,1183.3340340961113,None,1183.3340340961113,None,1183.3340340961113,None,1187.318820824239,None,1187.318820824239,None,1187.318820824239,None,1187.318820824239,None,1187.318820824239,None,1187.318820824239,None,1187.318820824239,None,1196.8225633454385,None,1188.3192700803738,None,1189.3196531000285,None,0.78,7.5027902517831535,1192.3207842399424,None,None,1192.3207842399424,None,,,,,,,,,,,,,,,,,,,23693,2020_Mar_02_1643,Mmi_3levels,3.1.5,59.96707263076865,
,,,3,1,3.5,,,,,,,,,0,2,2,2,0,25,25,15,,,,,,,,,,,,,,,,,,,,,,,,,,,,,,,,,,,,,,,,,,,,,,,,,,,,,,,,,,,,,True,True,True,0.78,-0.21999999999999997,-5.639999999999998,8.719999999999997,3.5,-5.219999999999997,-0.8599999999999985,certain,certain,-0.8599999999999985,39.08333333333331,1198.8399448221317,None,1198.8399448221317,None,1198.8399448221317,None,1198.8399448221317,None,1198.8399448221317,None,1198.8399448221317,None,1198.8399448221317,None,3,1.6175262370088603,1198.8399448221317,None,1200.4905873800017,None,1200.4905873800017,None,1200.4905873800017,None,1200.4905873800017,None,1200.4905873800017,None,1200.4905873800017,None,1200.4905873800017,None,1204.492107619244,None,1204.492107619244,None,1204.492107619244,None,1204.492107619244,None,1204.492107619244,None,1204.492107619244,None,1204.492107619244,None,1205.4758188845044,None,,,,,,,,,,,,,,,,,,,,,,,,,,,,,,23693,2020_Mar_02_1643,Mmi_3levels,3.1.5,59.96707263076865,
,,,3,1,0.7,,,,,,,,,0,2,2,2,0,26,26,5,,,,,,,,,,,,,,,,,,,,,,,,,,,,,,,,,,,,,,,,,,,,,,,,,,,,,,,,,,,,,True,True,False,0.78,-0.21999999999999997,-5.859999999999998,8.939999999999998,0.7,-8.239999999999998,-3.769999999999999,gamble,win,0.7,39.78333333333331,1207.4932544383264,None,1207.4932544383264,None,1207.4932544383264,None,1207.4932544383264,None,1207.4932544383264,None,1207.4932544383264,None,1207.4932544383264,None,1,2.1344059803559503,1207.4932544383264,None,1209.6607421813787,None,1209.6607421813787,None,1209.6607421813787,None,1209.6607421813787,None,1209.6607421813787,None,1209.6607421813787,None,1209.6607421813787,None,1213.6622768198577,None,1213.6622768198577,None,1213.6622768198577,None,1213.6622768198577,None,1213.6622768198577,None,1213.6622768198577,None,1213.6622768198577,None,1223.1492915896342,None,1214.6460319227845,None,1215.6463573455003,None,0.8,7.502850728571502,1218.6474974449375,None,None,1218.6474974449375,None,,,,,,,,,,,,,,,,,,,23693,2020_Mar_02_1643,Mmi_3levels,3.1.5,59.96707263076865,
,,,,,,,,,,,,,,,,,,,,,,,,,,,,,,0,0,0,0,,,,,,,,,,,,,,,,,,,,,,,,,,,,,,,,,,,,,,,,,,,,,,,,,,,,,,,,,,,,,,,,,,,,,,,,,,,,,,,,,,,,,,,,,,,,,,,,,,,,,,,,,,,,,,,,,,,,,,,,,,1225.1499853127825,None,4,9.020324040386186,1225.1499853127825,None,39.78333333333331,2,1234.2034192743704,None,1234.2034192743704,None,1234.2034192743704,None,4,57.28874850167995,1234.2034192743704,None,23693,2020_Mar_02_1643,Mmi_3levels,3.1.5,59.96707263076865,
