currSlide,currImage,currText,blockNum,targetHappiness,highAmount,instructionLoop1.thisRepN,instructionLoop1.thisTrialN,instructionLoop1.thisN,instructionLoop1.thisIndex,instructionLoop2.thisRepN,instructionLoop2.thisTrialN,instructionLoop2.thisN,instructionLoop2.thisIndex,blockLoop.thisRepN,blockLoop.thisTrialN,blockLoop.thisN,blockLoop.thisIndex,trialLoop.thisRepN,trialLoop.thisTrialN,trialLoop.thisN,trialLoop.thisIndex,doRatingLoop.thisRepN,doRatingLoop.thisTrialN,doRatingLoop.thisN,doRatingLoop.thisIndex,trialHappyLoop.thisRepN,trialHappyLoop.thisTrialN,trialHappyLoop.thisN,trialHappyLoop.thisIndex,logWinningsLoop.thisRepN,logWinningsLoop.thisTrialN,logWinningsLoop.thisN,logWinningsLoop.thisIndex,instrImage.started,instrImage.stopped,instrText.started,instrText.stopped,instrContinueText.started,instrContinueText.stopped,instrKeyResp.keys,instrKeyResp.rt,instrKeyResp.started,instrKeyResp.stopped,lifeHappyText.started,lifeHappyText.stopped,lifeHappySlider.response,lifeHappySlider.rt,lifeHappySlider.started,lifeHappySlider.stopped,lifeHappyResp.keys,lifeHappyResp.started,lifeHappyResp.stopped,instrImage_2.started,instrImage_2.stopped,instrText_2.started,instrText_2.stopped,instrContinueText_2.started,instrContinueText_2.stopped,instrKeyResp_2.keys,instrKeyResp_2.rt,instrKeyResp_2.started,instrKeyResp_2.stopped,localizing.started,localizing.stopped,start_exp.keys,start_exp.rt,start_exp.started,start_exp.stopped,blockHappyText.started,blockHappyText.stopped,blockHappySlider.response,blockHappySlider.rt,blockHappySlider.started,blockHappySlider.stopped,blockHappyResp.keys,blockHappyResp.started,blockHappyResp.stopped,blankText.started,blankText.stopped,isHappyBlock,isCongruent,isWinOnTop,lastHappyRating,diff,sumDiff,RPE,winAmount,loseAmount,certainAmount,choice,outcome,outcomeAmount,currentWinnings,fixCross.started,fixCross.stopped,certainBox.started,certainBox.stopped,outcome1Box.started,outcome1Box.stopped,outcome2Box.started,outcome2Box.stopped,certainText.started,certainText.stopped,outcome1Text.started,outcome1Text.stopped,outcome2Text.started,outcome2Text.stopped,choiceKey.keys,choiceKey.started,choiceKey.stopped,fixCross_2.started,fixCross_2.stopped,certainBox_2.started,certainBox_2.stopped,outcome1Box_2.started,outcome1Box_2.stopped,outcome2Box_2.started,outcome2Box_2.stopped,certainText_2.started,certainText_2.stopped,outcome1Text_2.started,outcome1Text_2.stopped,outcome2Text_2.started,outcome2Text_2.stopped,fixCross_3.started,fixCross_3.stopped,certainBox_3.started,certainBox_3.stopped,outcome1Box_3.started,outcome1Box_3.stopped,outcome2Box_3.started,outcome2Box_3.stopped,certainText_3.started,certainText_3.stopped,outcome1Text_3.started,outcome1Text_3.stopped,outcome2Text_3.started,outcome2Text_3.stopped,fixCross_ITI.started,fixCross_ITI.stopped,choiceKey.rt,fixCross_ISI.started,fixCross_ISI.stopped,happyText.started,happyText.stopped,happySlider.response,happySlider.rt,happySlider.started,happySlider.stopped,happyResp.keys,happyResp.started,happyResp.stopped,endOfBlockText.started,endOfBlockText.stopped,restKeyResp.keys,restKeyResp.rt,restKeyResp.started,restKeyResp.stopped,finalWinnings,cashBonus,goodbyeText.started,goodbyeText.stopped,finalWinningsText.started,finalWinningsText.stopped,spaceToContinue.started,spaceToContinue.stopped,goodbyeKeyResp_2.keys,goodbyeKeyResp_2.rt,goodbyeKeyResp_2.started,goodbyeKeyResp_2.stopped,participant,date,expName,psychopyVersion,frameRate,
1,black.png,"Welcome! You are about to play our gambling task.
This task has 3 blocks and takes about 15 minutes.",,,,0,0,0,0,,,,,,,,,,,,,,,,,,,,,,,,,12.519751053940126,None,12.519751053940126,None,12.519751053940126,None,4,6.370451574712206,12.519751053940126,None,,,,,,,,,,,,,,,,,,,,,,,,,,,,,,,,,,,,,,,,,,,,,,,,,,,,,,,,,,,,,,,,,,,,,,,,,,,,,,,,,,,,,,,,,,,,,,,,,,,,,,,,,,,,,,,,,,,,,,,,,,,,,,,,22658,2020_Feb_14_1330,Mmi_3levels,3.1.5,59.984971007652135,
2,black.png,"In this game, you may win or lose points. Your goal is to get as many points as possible. These points will be converted to a cash bonus at the end.
Sometimes we will ask you to rate your mood.",,,,0,1,1,1,,,,,,,,,,,,,,,,,,,,,,,,,18.940035358018577,None,18.940035358018577,None,18.940035358018577,None,4,2.9347460542194312,18.940035358018577,None,,,,,,,,,,,,,,,,,,,,,,,,,,,,,,,,,,,,,,,,,,,,,,,,,,,,,,,,,,,,,,,,,,,,,,,,,,,,,,,,,,,,,,,,,,,,,,,,,,,,,,,,,,,,,,,,,,,,,,,,,,,,,,,,22658,2020_Feb_14_1330,Mmi_3levels,3.1.5,59.984971007652135,
3,black.png,"On the next screen, please rate how you feel about your life these days. Use the LEFT (green) and RIGHT (blue) buttons to move the slider (you can press and hold them to slide gradually) and the TOP (red) button to lock in your response.
Make your rating as accurately and quickly as you can!",,,,0,2,2,2,,,,,,,,,,,,,,,,,,,,,,,,,21.924466949849375,None,21.924466949849375,None,21.924466949849375,None,4,5.035487612693032,21.924466949849375,None,,,,,,,,,,,,,,,,,,,,,,,,,,,,,,,,,,,,,,,,,,,,,,,,,,,,,,,,,,,,,,,,,,,,,,,,,,,,,,,,,,,,,,,,,,,,,,,,,,,,,,,,,,,,,,,,,,,,,,,,,,,,,,,,22658,2020_Feb_14_1330,Mmi_3levels,3.1.5,59.984971007652135,
,,,,,,,,,,,,,,,,,,,,,,,,,,,,,,,,,,,,,,,,,,,,26.976371243208632,None,0.87,10.502760965386187,30.977902677448583,None,None,30.977902677448583,None,,,,,,,,,,,,,,,,,,,,,,,,,,,,,,,,,,,,,,,,,,,,,,,,,,,,,,,,,,,,,,,,,,,,,,,,,,,,,,,,,,,,,,,,,,,,,,,,,,,,,,,,,,,,,,,,,,,,,,,22658,2020_Feb_14_1330,Mmi_3levels,3.1.5,59.984971007652135,
4,black.png,"In this game you can win money by earning points according to your choices. You will decide whether to gamble a number of points or stick with a guaranteed number of points. 
Make your choice by pressing the left or right arrow key once. An example of one trial is shown on the next screen.",,,,,,,,0,0,0,0,,,,,,,,,,,,,,,,,,,,,,,,,,,,,,,,,,,,,,,,37.53041957650203,None,37.53041957650203,None,37.53041957650203,None,4,4.785347380546227,37.53041957650203,None,,,,,,,,,,,,,,,,,,,,,,,,,,,,,,,,,,,,,,,,,,,,,,,,,,,,,,,,,,,,,,,,,,,,,,,,,,,,,,,,,,,,,,,,,,,,,,,,,,,,,,,,,,,,,22658,2020_Feb_14_1330,Mmi_3levels,3.1.5,59.984971007652135,
5,example_start.png,"The GAMBLING OPTION will be shown on the RIGHT SIDE. 
Select this option using the RIGHT (blue) button on your keypad.",,,,,,,,0,1,1,1,,,,,,,,,,,,,,,,,,,,,,,,,,,,,,,,,,,,,,,,42.38216707864194,None,42.38216707864194,None,42.38216707864194,None,4,1.7175447774916393,42.38216707864194,None,,,,,,,,,,,,,,,,,,,,,,,,,,,,,,,,,,,,,,,,,,,,,,,,,,,,,,,,,,,,,,,,,,,,,,,,,,,,,,,,,,,,,,,,,,,,,,,,,,,,,,,,,,,,,22658,2020_Feb_14_1330,Mmi_3levels,3.1.5,59.984971007652135,
6,example_gamble.png,"Once you select the gambling choice, the choice you made will remain on the screen.",,,,,,,,0,2,2,2,,,,,,,,,,,,,,,,,,,,,,,,,,,,,,,,,,,,,,,,44.13288919820479,None,44.13288919820479,None,44.13288919820479,None,4,1.6841648867666663,44.13288919820479,None,,,,,,,,,,,,,,,,,,,,,,,,,,,,,,,,,,,,,,,,,,,,,,,,,,,,,,,,,,,,,,,,,,,,,,,,,,,,,,,,,,,,,,,,,,,,,,,,,,,,,,,,,,,,,22658,2020_Feb_14_1330,Mmi_3levels,3.1.5,59.984971007652135,
7,example_win.png,"The outcome you received will then be shown on the screen. In this example , you WON 10 points.",,,,,,,,0,3,3,3,,,,,,,,,,,,,,,,,,,,,,,,,,,,,,,,,,,,,,,,45.85026406521138,None,45.85026406521138,None,45.85026406521138,None,4,2.6344479909130314,45.85026406521138,None,,,,,,,,,,,,,,,,,,,,,,,,,,,,,,,,,,,,,,,,,,,,,,,,,,,,,,,,,,,,,,,,,,,,,,,,,,,,,,,,,,,,,,,,,,,,,,,,,,,,,,,,,,,,,22658,2020_Feb_14_1330,Mmi_3levels,3.1.5,59.984971007652135,
8,example_start.png,"The GUARANTEED OPTION will be shown on the LEFT SIDE. You are 100% guaranteed to gain or lose this amount. In this example, you have a 100% chance of winning 1 point. Select this option using the LEFT (green) button on your keyboard.",,,,,,,,0,4,4,4,,,,,,,,,,,,,,,,,,,,,,,,,,,,,,,,,,,,,,,,48.53455246506019,None,48.53455246506019,None,48.53455246506019,None,4,2.20105562088429,48.53455246506019,None,,,,,,,,,,,,,,,,,,,,,,,,,,,,,,,,,,,,,,,,,,,,,,,,,,,,,,,,,,,,,,,,,,,,,,,,,,,,,,,,,,,,,,,,,,,,,,,,,,,,,,,,,,,,,22658,2020_Feb_14_1330,Mmi_3levels,3.1.5,59.984971007652135,
9,example_certain.png,"Once you select the guaranteed choice, your selection will remain on the screen.",,,,,,,,0,5,5,5,,,,,,,,,,,,,,,,,,,,,,,,,,,,,,,,,,,,,,,,50.76872719127641,None,50.76872719127641,None,50.76872719127641,None,4,1.9007668370577449,50.76872719127641,None,,,,,,,,,,,,,,,,,,,,,,,,,,,,,,,,,,,,,,,,,,,,,,,,,,,,,,,,,,,,,,,,,,,,,,,,,,,,,,,,,,,,,,,,,,,,,,,,,,,,,,,,,,,,,22658,2020_Feb_14_1330,Mmi_3levels,3.1.5,59.984971007652135,
10,black.png,"Please make your choices as fast as possible.
You will be given a break at the end of each block.
Let's play!",,,,,,,,0,6,6,6,,,,,,,,,,,,,,,,,,,,,,,,,,,,,,,,,,,,,,,,52.70273632676435,None,52.70273632676435,None,52.70273632676435,None,4,3.3515460734197404,52.70273632676435,None,,,,,,,,,,,,,,,,,,,,,,,,,,,,,,,,,,,,,,,,,,,,,,,,,,,,,,,,,,,,,,,,,,,,,,,,,,,,,,,,,,,,,,,,,,,,,,,,,,,,,,,,,,,,,22658,2020_Feb_14_1330,Mmi_3levels,3.1.5,59.984971007652135,
,,,,,,,,,,,,,,,,,,,,,,,,,,,,,,,,,,,,,,,,,,,,,,,,,,,,,,,,,,,,,,,56.07075539769721,None,space,66.10858303934947,56.07075539769721,None,,,,,,,,,,,,,,,,,,,,,,,,,,,,,,,,,,,,,,,,,,,,,,,,,,,,,,,,,,,,,,,,,,,,,,,,,,,,,,,,,,,,,,,,,,,,,,,,,,,,,,,22658,2020_Feb_14_1330,Mmi_3levels,3.1.5,59.984971007652135,
,,,1,1,0.3,,,,,,,,,0,0,0,0,0,0,0,24,,,,,,,,,,,,,,,,,,,,,,,,,,,,,,,,,,,,,,,,,,,,,,,,122.19578743590318,None,0.65,7.493009831448944,125.21358323933782,None,None,125.21358323933782,None,129.69860663802683,None,True,True,False,0.65,-0.35,-0.35,5.249999999999999,0.3,-4.949999999999999,-2.3249999999999997,gamble,win,0.3,0.3,132.733109025894,None,132.733109025894,None,132.733109025894,None,132.733109025894,None,132.733109025894,None,132.733109025894,None,132.733109025894,None,None,132.733109025894,None,135.7342196836962,None,135.7342196836962,None,135.7342196836962,None,135.7342196836962,None,135.7342196836962,None,135.7342196836962,None,135.7342196836962,None,139.7190858111935,None,139.7190858111935,None,139.7190858111935,None,139.7190858111935,None,139.7190858111935,None,139.7190858111935,None,139.7190858111935,None,140.71944515107134,None,,,,,,,,,,,,,,,,,,,,,,,,,,,,,,,22658,2020_Feb_14_1330,Mmi_3levels,3.1.5,59.984971007652135,
,,,1,1,-0.5,,,,,,,,,0,0,0,0,0,1,1,4,,,,,,,,,,,,,,,,,,,,,,,,,,,,,,,,,,,,,,,,,,,,,,,,,,,,,,,,,,,True,False,True,0.65,-0.35,-0.7,-1.2833333333333332,-0.5,-1.7833333333333332,-1.1416666666666666,gamble,lose,-1.7833333333333332,-1.4833333333333332,142.7369017735,None,142.7369017735,None,142.7369017735,None,142.7369017735,None,142.7369017735,None,142.7369017735,None,142.7369017735,None,None,142.7369017735,None,145.7380383498512,None,145.7380383498512,None,145.7380383498512,None,145.7380383498512,None,145.7380383498512,None,145.7380383498512,None,145.7380383498512,None,149.73954738534485,None,149.73954738534485,None,149.73954738534485,None,149.73954738534485,None,149.73954738534485,None,149.73954738534485,None,149.73954738534485,None,150.72325901749355,None,,,,,,,,,,,,,,,,,,,,,,,,,,,,,,,22658,2020_Feb_14_1330,Mmi_3levels,3.1.5,59.984971007652135,
,,,1,1,6.3,,,,,,,,,0,0,0,0,0,2,2,20,,,,,,,,,,,,,,,,,,,,,,,,,,,,,,,,,,,,,,,,,,,,,,,,,,,,,,,,,,,True,False,False,0.65,-0.35,-1.0499999999999998,-1.3124999999999998,6.3,4.9875,2.49375,gamble,lose,4.9875,3.5041666666666664,152.74068748150057,None,152.74068748150057,None,152.74068748150057,None,152.74068748150057,None,152.74068748150057,None,152.74068748150057,None,152.74068748150057,None,1,152.74068748150057,None,154.09120097274536,None,154.09120097274536,None,154.09120097274536,None,154.09120097274536,None,154.09120097274536,None,154.09120097274536,None,154.09120097274536,None,158.07600566368274,None,158.07600566368274,None,158.07600566368274,None,158.07600566368274,None,158.07600566368274,None,158.07600566368274,None,158.07600566368274,None,167.57964433991583,None,1.3174251041946263,159.07635540409683,None,160.07679761933286,None,0.7,7.502744326317043,163.07792203636563,None,None,163.07792203636563,None,,,,,,,,,,,,,,,,,,,22658,2020_Feb_14_1330,Mmi_3levels,3.1.5,59.984971007652135,
,,,1,1,-1.1,,,,,,,,,0,0,0,0,0,3,3,10,,,,,,,,,,,,,,,,,,,,,,,,,,,,,,,,,,,,,,,,,,,,,,,,,,,,,,,,,,,True,False,True,0.7,-0.30000000000000004,-1.3499999999999999,-1.1625000000000003,-1.1,-2.2625,-1.6812500000000001,certain,certain,-1.6812500000000001,1.8229166666666663,169.5970955226494,None,169.5970955226494,None,169.5970955226494,None,169.5970955226494,None,169.5970955226494,None,169.5970955226494,None,169.5970955226494,None,3,169.5970955226494,None,172.03129488748527,None,172.03129488748527,None,172.03129488748527,None,172.03129488748527,None,172.03129488748527,None,172.03129488748527,None,172.03129488748527,None,176.0328899981596,None,176.0328899981596,None,176.0328899981596,None,176.0328899981596,None,176.0328899981596,None,176.0328899981596,None,176.0328899981596,None,177.0165149151635,None,2.401184573664068,,,,,,,,,,,,,,,,,,,,,,,,,,,,,,22658,2020_Feb_14_1330,Mmi_3levels,3.1.5,59.984971007652135,
,,,1,1,2.5,,,,,,,,,0,0,0,0,0,4,4,17,,,,,,,,,,,,,,,,,,,,,,,,,,,,,,,,,,,,,,,,,,,,,,,,,,,,,,,,,,,True,True,False,0.7,-0.30000000000000004,-1.65,5.850000000000001,2.5,-3.3500000000000014,-0.4250000000000007,certain,certain,-0.4250000000000007,1.3979166666666656,179.03397729727112,None,179.03397729727112,None,179.03397729727112,None,179.03397729727112,None,179.03397729727112,None,179.03397729727112,None,179.03397729727112,None,3,179.03397729727112,None,181.98509331477362,None,181.98509331477362,None,181.98509331477362,None,181.98509331477362,None,181.98509331477362,None,181.98509331477362,None,181.98509331477362,None,185.96993672354256,None,185.96993672354256,None,185.96993672354256,None,185.96993672354256,None,185.96993672354256,None,185.96993672354256,None,185.96993672354256,None,195.47352900237456,None,2.9180173910262965,186.97030950266708,None,187.9707430783874,None,0.68,7.50269472909531,190.9718153383401,None,None,190.9718153383401,None,,,,,,,,,,,,,,,,,,,22658,2020_Feb_14_1330,Mmi_3levels,3.1.5,59.984971007652135,
,,,1,1,7.1,,,,,,,,,0,0,0,0,0,5,5,5,,,,,,,,,,,,,,,,,,,,,,,,,,,,,,,,,,,,,,,,,,,,,,,,,,,,,,,,,,,True,True,False,0.68,-0.31999999999999995,-1.9699999999999998,6.449999999999999,7.1,0.6500000000000004,0.3250000000000002,gamble,win,7.1,8.497916666666665,197.49095970625604,None,197.49095970625604,None,197.49095970625604,None,197.49095970625604,None,197.49095970625604,None,197.49095970625604,None,197.49095970625604,None,1,197.49095970625604,None,198.74143431967786,None,198.74143431967786,None,198.74143431967786,None,198.74143431967786,None,198.74143431967786,None,198.74143431967786,None,198.74143431967786,None,202.72624605022065,None,202.72624605022065,None,202.72624605022065,None,202.72624605022065,None,202.72624605022065,None,202.72624605022065,None,202.72624605022065,None,203.72659323077824,None,1.2173279896323947,,,,,,,,,,,,,,,,,,,,,,,,,,,,,,22658,2020_Feb_14_1330,Mmi_3levels,3.1.5,59.984971007652135,
,,,1,1,6.1,,,,,,,,,0,0,0,0,0,6,6,21,,,,,,,,,,,,,,,,,,,,,,,,,,,,,,,,,,,,,,,,,,,,,,,,,,,,,,,,,,,True,True,False,0.68,-0.31999999999999995,-2.2899999999999996,6.77,6.1,-0.6699999999999999,-0.33499999999999996,gamble,win,6.1,14.597916666666665,205.74414232802883,None,205.74414232802883,None,205.74414232802883,None,205.74414232802883,None,205.74414232802883,None,205.74414232802883,None,205.74414232802883,None,1,205.74414232802883,None,207.9949455630467,None,207.9949455630467,None,207.9949455630467,None,207.9949455630467,None,207.9949455630467,None,207.9949455630467,None,207.9949455630467,None,211.9963928420002,None,211.9963928420002,None,211.9963928420002,None,211.9963928420002,None,211.9963928420002,None,211.9963928420002,None,211.9963928420002,None,212.98015823113747,None,2.217700128792785,,,,,,,,,,,,,,,,,,,,,,,,,,,,,,22658,2020_Feb_14_1330,Mmi_3levels,3.1.5,59.984971007652135,
,,,1,1,9.5,,,,,,,,,0,0,0,0,0,7,7,19,,,,,,,,,,,,,,,,,,,,,,,,,,,,,,,,,,,,,,,,,,,,,,,,,,,,,,,,,,,True,True,True,0.68,-0.31999999999999995,-2.6099999999999994,7.089999999999999,9.5,2.410000000000001,1.2050000000000005,gamble,win,9.5,24.097916666666663,214.9975553369004,None,214.9975553369004,None,214.9975553369004,None,214.9975553369004,None,214.9975553369004,None,214.9975553369004,None,214.9975553369004,None,1,214.9975553369004,None,215.98123945058978,None,215.98123945058978,None,215.98123945058978,None,215.98123945058978,None,215.98123945058978,None,215.98123945058978,None,215.98123945058978,None,219.9661295767437,None,219.9661295767437,None,219.9661295767437,None,219.9661295767437,None,219.9661295767437,None,219.9661295767437,None,219.9661295767437,None,229.4697308150735,None,0.9506456438448367,220.96651611509697,None,221.96692921196336,None,0.82,7.502703048628973,224.9680376298911,None,None,224.9680376298911,None,,,,,,,,,,,,,,,,,,,22658,2020_Feb_14_1330,Mmi_3levels,3.1.5,59.984971007652135,
,,,1,1,12.5,,,,,,,,,0,0,0,0,0,8,8,13,,,,,,,,,,,,,,,,,,,,,,,,,,,,,,,,,,,,,,,,,,,,,,,,,,,,,,,,,,,True,True,True,0.82,-0.18000000000000005,-2.7899999999999996,5.3100000000000005,12.5,7.1899999999999995,3.5949999999999998,gamble,win,12.5,36.59791666666666,231.48715639924012,None,231.48715639924012,None,231.48715639924012,None,231.48715639924012,None,231.48715639924012,None,231.48715639924012,None,231.48715639924012,None,1,231.48715639924012,None,233.27111537753808,None,233.27111537753808,None,233.27111537753808,None,233.27111537753808,None,233.27111537753808,None,233.27111537753808,None,233.27111537753808,None,237.25601286327947,None,237.25601286327947,None,237.25601286327947,None,237.25601286327947,None,237.25601286327947,None,237.25601286327947,None,237.25601286327947,None,238.25639140208114,None,1.750925948146687,,,,,,,,,,,,,,,,,,,,,,,,,,,,,,22658,2020_Feb_14_1330,Mmi_3levels,3.1.5,59.984971007652135,
,,,1,1,4.3,,,,,,,,,0,0,0,0,0,9,9,18,,,,,,,,,,,,,,,,,,,,,,,,,,,,,,,,,,,,,,,,,,,,,,,,,,,,,,,,,,,True,False,True,0.82,-0.18000000000000005,-2.9699999999999998,-0.8775000000000001,4.3,3.4225,1.71125,gamble,lose,3.4225,40.02041666666666,240.27376450918746,None,240.27376450918746,None,240.27376450918746,None,240.27376450918746,None,240.27376450918746,None,240.27376450918746,None,240.27376450918746,None,1,240.27376450918746,None,242.2246168614547,None,242.2246168614547,None,242.2246168614547,None,242.2246168614547,None,242.2246168614547,None,242.2246168614547,None,242.2246168614547,None,246.20940427336063,None,246.20940427336063,None,246.20940427336063,None,246.20940427336063,None,246.20940427336063,None,246.20940427336063,None,246.20940427336063,None,255.71300551169043,None,1.91764717175829,247.20978409209056,None,248.21021862775524,None,0.75,7.502666890653927,251.21125440975266,None,None,251.21125440975266,None,,,,,,,,,,,,,,,,,,,22658,2020_Feb_14_1330,Mmi_3levels,3.1.5,59.984971007652135,
,,,1,1,1.5,,,,,,,,,0,0,0,0,0,10,10,12,,,,,,,,,,,,,,,,,,,,,,,,,,,,,,,,,,,,,,,,,,,,,,,,,,,,,,,,,,,True,False,True,0.75,-0.25,-3.2199999999999998,-1.1433333333333333,1.5,0.3566666666666667,0.9283333333333333,gamble,lose,0.3566666666666667,40.37708333333333,257.73043109585706,None,257.73043109585706,None,257.73043109585706,None,257.73043109585706,None,257.73043109585706,None,257.73043109585706,None,257.73043109585706,None,None,257.73043109585706,None,260.73151263529144,None,260.73151263529144,None,260.73151263529144,None,260.73151263529144,None,260.73151263529144,None,260.73151263529144,None,260.73151263529144,None,264.73308278736295,None,264.73308278736295,None,264.73308278736295,None,264.73308278736295,None,264.73308278736295,None,264.73308278736295,None,264.73308278736295,None,265.71678897981656,None,,,,,,,,,,,,,,,,,,,,,,,,,,,,,,,22658,2020_Feb_14_1330,Mmi_3levels,3.1.5,59.984971007652135,
,,,1,1,12.9,,,,,,,,,0,0,0,0,0,11,11,22,,,,,,,,,,,,,,,,,,,,,,,,,,,,,,,,,,,,,,,,,,,,,,,,,,,,,,,,,,,True,False,False,0.75,-0.25,-3.4699999999999998,-1.1641666666666666,12.9,11.735833333333334,5.867916666666667,gamble,lose,11.735833333333334,52.11291666666666,267.7342232034989,None,267.7342232034989,None,267.7342232034989,None,267.7342232034989,None,267.7342232034989,None,267.7342232034989,None,267.7342232034989,None,1,267.7342232034989,None,268.71792395625744,None,268.71792395625744,None,268.71792395625744,None,268.71792395625744,None,268.71792395625744,None,268.71792395625744,None,268.71792395625744,None,272.7194765093154,None,272.7194765093154,None,272.7194765093154,None,272.7194765093154,None,272.7194765093154,None,272.7194765093154,None,272.7194765093154,None,282.2063346852574,None,0.9504018174975499,273.7031068660144,None,274.7035218827732,None,0.8,7.502746886173554,277.70464821969836,None,None,277.70464821969836,None,,,,,,,,,,,,,,,,,,,22658,2020_Feb_14_1330,Mmi_3levels,3.1.5,59.984971007652135,
,,,1,1,7.5,,,,,,,,,0,0,0,0,0,12,12,25,,,,,,,,,,,,,,,,,,,,,,,,,,,,,,,,,,,,,,,,,,,,,,,,,,,,,,,,,,,True,True,True,0.8,-0.19999999999999996,-3.67,6.469999999999999,7.5,1.0300000000000011,0.5150000000000006,gamble,win,7.5,59.61291666666666,284.22379226763223,None,284.22379226763223,None,284.22379226763223,None,284.22379226763223,None,284.22379226763223,None,284.22379226763223,None,284.22379226763223,None,1,284.22379226763223,None,285.17415888710093,None,285.17415888710093,None,285.17415888710093,None,285.17415888710093,None,285.17415888710093,None,285.17415888710093,None,285.17415888710093,None,289.17563976417296,None,289.17563976417296,None,289.17563976417296,None,289.17563976417296,None,289.17563976417296,None,289.17563976417296,None,289.17563976417296,None,290.1593757149585,None,0.9172702328669402,,,,,,,,,,,,,,,,,,,,,,,,,,,,,,22658,2020_Feb_14_1330,Mmi_3levels,3.1.5,59.984971007652135,
,,,1,1,8.9,,,,,,,,,0,0,0,0,0,13,13,23,,,,,,,,,,,,,,,,,,,,,,,,,,,,,,,,,,,,,,,,,,,,,,,,,,,,,,,,,,,True,True,False,0.8,-0.19999999999999996,-3.87,6.67,8.9,2.2300000000000004,1.1150000000000002,gamble,win,8.9,68.51291666666667,292.1768108985889,None,292.1768108985889,None,292.1768108985889,None,292.1768108985889,None,292.1768108985889,None,292.1768108985889,None,292.1768108985889,None,1,292.1768108985889,None,293.694054252961,None,293.694054252961,None,293.694054252961,None,293.694054252961,None,293.694054252961,None,293.694054252961,None,293.694054252961,None,297.67882182597714,None,297.67882182597714,None,297.67882182597714,None,297.67882182597714,None,297.67882182597714,None,297.67882182597714,None,297.67882182597714,None,298.6792726807289,None,1.4841392882008222,,,,,,,,,,,,,,,,,,,,,,,,,,,,,,22658,2020_Feb_14_1330,Mmi_3levels,3.1.5,59.984971007652135,
,,,1,1,1.9,,,,,,,,,0,0,0,0,0,14,14,16,,,,,,,,,,,,,,,,,,,,,,,,,,,,,,,,,,,,,,,,,,,,,,,,,,,,,,,,,,,True,False,True,0.8,-0.19999999999999996,-4.07,-1.0391666666666666,1.9,0.8608333333333333,1.3804166666666666,gamble,lose,0.8608333333333333,69.37375,300.69664546785316,None,300.69664546785316,None,300.69664546785316,None,300.69664546785316,None,300.69664546785316,None,300.69664546785316,None,300.69664546785316,None,1,300.69664546785316,None,301.5803377410848,None,301.5803377410848,None,301.5803377410848,None,301.5803377410848,None,301.5803377410848,None,301.5803377410848,None,301.5803377410848,None,305.58187909477056,None,305.58187909477056,None,305.58187909477056,None,305.58187909477056,None,305.58187909477056,None,305.58187909477056,None,305.58187909477056,None,315.06884222483495,None,0.8506314046426269,306.5656448038899,None,307.5659676658106,None,0.73,7.502769924883978,310.5670354460144,None,None,310.5670354460144,None,,,,,,,,,,,,,,,,,,,22658,2020_Feb_14_1330,Mmi_3levels,3.1.5,59.984971007652135,
,,,1,1,1.1,,,,,,,,,0,0,0,0,0,15,15,15,,,,,,,,,,,,,,,,,,,,,,,,,,,,,,,,,,,,,,,,,,,,,,,,,,,,,,,,,,,True,True,False,0.73,-0.27,-4.34,8.120000000000001,1.1,-7.020000000000001,-2.960000000000001,certain,certain,-2.960000000000001,66.41375,317.08624477029116,None,317.08624477029116,None,317.08624477029116,None,317.08624477029116,None,317.08624477029116,None,317.08624477029116,None,317.08624477029116,None,3,317.08624477029116,None,319.05370291263534,None,319.05370291263534,None,319.05370291263534,None,319.05370291263534,None,319.05370291263534,None,319.05370291263534,None,319.05370291263534,None,323.05516875054855,None,323.05516875054855,None,323.05516875054855,None,323.05516875054855,None,323.05516875054855,None,323.05516875054855,None,323.05516875054855,None,324.0388138264243,None,1.9343518362966279,,,,,,,,,,,,,,,,,,,,,,,,,,,,,,22658,2020_Feb_14_1330,Mmi_3levels,3.1.5,59.984971007652135,
,,,1,1,1.3,,,,,,,,,0,0,0,0,0,16,16,14,,,,,,,,,,,,,,,,,,,,,,,,,,,,,,,,,,,,,,,,,,,,,,,,,,,,,,,,,,,True,True,True,0.73,-0.27,-4.609999999999999,8.39,1.3,-7.090000000000001,-2.8950000000000005,certain,certain,-2.8950000000000005,63.51874999999999,326.056353324213,None,326.056353324213,None,326.056353324213,None,326.056353324213,None,326.056353324213,None,326.056353324213,None,326.056353324213,None,3,326.056353324213,None,327.773612677689,None,327.773612677689,None,327.773612677689,None,327.773612677689,None,327.773612677689,None,327.773612677689,None,327.773612677689,None,331.7751367523415,None,331.7751367523415,None,331.7751367523415,None,331.7751367523415,None,331.7751367523415,None,331.7751367523415,None,331.7751367523415,None,341.2620621245205,None,1.6842343228781829,332.75883622516994,None,333.7592173238281,None,0.71,7.5027228875187575,336.76033950098645,None,None,336.76033950098645,None,,,,,,,,,,,,,,,,,,,22658,2020_Feb_14_1330,Mmi_3levels,3.1.5,59.984971007652135,
,,,1,1,0.5,,,,,,,,,0,0,0,0,0,17,17,6,,,,,,,,,,,,,,,,,,,,,,,,,,,,,,,,,,,,,,,,,,,,,,,,,,,,,,,,,,,True,True,False,0.71,-0.29000000000000004,-4.8999999999999995,8.96,0.5,-8.46,-3.9800000000000004,certain,certain,-3.9800000000000004,59.53874999999999,343.27949026854367,None,343.27949026854367,None,343.27949026854367,None,343.27949026854367,None,343.27949026854367,None,343.27949026854367,None,343.27949026854367,None,3,343.27949026854367,None,345.79710224227347,None,345.79710224227347,None,345.79710224227347,None,345.79710224227347,None,345.79710224227347,None,345.79710224227347,None,345.79710224227347,None,349.79861895733666,None,349.79861895733666,None,349.79861895733666,None,349.79861895733666,None,349.79861895733666,None,349.79861895733666,None,349.79861895733666,None,350.78236290767563,None,2.4845328661594976,,,,,,,,,,,,,,,,,,,,,,,,,,,,,,22658,2020_Feb_14_1330,Mmi_3levels,3.1.5,59.984971007652135,
,,,1,1,2.7,,,,,,,,,0,0,0,0,0,18,18,11,,,,,,,,,,,,,,,,,,,,,,,,,,,,,,,,,,,,,,,,,,,,,,,,,,,,,,,,,,,True,True,True,0.71,-0.29000000000000004,-5.1899999999999995,9.25,2.7,-6.55,-1.9249999999999998,certain,certain,-1.9249999999999998,57.613749999999996,352.79975745358206,None,352.79975745358206,None,352.79975745358206,None,352.79975745358206,None,352.79975745358206,None,352.79975745358206,None,352.79975745358206,None,3,352.79975745358206,None,354.6005052517048,None,354.6005052517048,None,354.6005052517048,None,354.6005052517048,None,354.6005052517048,None,354.6005052517048,None,354.6005052517048,None,358.60190293343476,None,358.60190293343476,None,358.60190293343476,None,358.60190293343476,None,358.60190293343476,None,358.60190293343476,None,358.60190293343476,None,359.5856955210493,None,1.7676258129540656,,,,,,,,,,,,,,,,,,,,,,,,,,,,,,22658,2020_Feb_14_1330,Mmi_3levels,3.1.5,59.984971007652135,
,,,1,1,12.3,,,,,,,,,0,0,0,0,0,19,19,9,,,,,,,,,,,,,,,,,,,,,,,,,,,,,,,,,,,,,,,,,,,,,,,,,,,,,,,,,,,True,True,False,0.71,-0.29000000000000004,-5.4799999999999995,9.54,12.3,2.7600000000000016,1.3800000000000008,gamble,win,12.3,69.91375,361.60308878702745,None,361.60308878702745,None,361.60308878702745,None,361.60308878702745,None,361.60308878702745,None,361.60308878702745,None,361.60308878702745,None,1,361.60308878702745,None,362.8869132128584,None,362.8869132128584,None,362.8869132128584,None,362.8869132128584,None,362.8869132128584,None,362.8869132128584,None,362.8869132128584,None,366.871755661683,None,366.871755661683,None,366.871755661683,None,366.871755661683,None,366.871755661683,None,366.871755661683,None,366.871755661683,None,376.37540873710896,None,1.2507395585853374,367.8721313206461,None,368.872511139376,None,0.67,7.502773764668746,371.87357859959775,None,None,371.87357859959775,None,,,,,,,,,,,,,,,,,,,22658,2020_Feb_14_1330,Mmi_3levels,3.1.5,59.984971007652135,
,,,1,1,8.7,,,,,,,,,0,0,0,0,0,20,20,0,,,,,,,,,,,,,,,,,,,,,,,,,,,,,,,,,,,,,,,,,,,,,,,,,,,,,,,,,,,True,True,True,0.67,-0.32999999999999996,-5.81,10.43,8.7,-1.7300000000000004,-0.8650000000000002,certain,certain,-0.8650000000000002,69.04875,378.3927904837328,None,378.3927904837328,None,378.3927904837328,None,378.3927904837328,None,378.3927904837328,None,378.3927904837328,None,378.3927904837328,None,3,378.3927904837328,None,380.69365139552065,None,380.69365139552065,None,380.69365139552065,None,380.69365139552065,None,380.69365139552065,None,380.69365139552065,None,380.69365139552065,None,384.69522250753835,None,384.69522250753835,None,384.69522250753835,None,384.69522250753835,None,384.69522250753835,None,384.69522250753835,None,384.69522250753835,None,385.6789325397767,None,2.2677786043987,,,,,,,,,,,,,,,,,,,,,,,,,,,,,,22658,2020_Feb_14_1330,Mmi_3levels,3.1.5,59.984971007652135,
,,,1,1,9.1,,,,,,,,,0,0,0,0,0,21,21,7,,,,,,,,,,,,,,,,,,,,,,,,,,,,,,,,,,,,,,,,,,,,,,,,,,,,,,,,,,,True,False,False,0.67,-0.32999999999999996,-6.14,-1.6666666666666665,9.1,7.433333333333334,3.716666666666667,gamble,lose,7.433333333333334,76.48208333333334,387.69630564688305,None,387.69630564688305,None,387.69630564688305,None,387.69630564688305,None,387.69630564688305,None,387.69630564688305,None,387.69630564688305,None,1,387.69630564688305,None,388.8633602918235,None,388.8633602918235,None,388.8633602918235,None,388.8633602918235,None,388.8633602918235,None,388.8633602918235,None,388.8633602918235,None,392.8481992208435,None,392.8481992208435,None,392.8481992208435,None,392.8481992208435,None,392.8481992208435,None,392.8481992208435,None,392.8481992208435,None,402.35191085299084,None,1.1340216147909814,393.84863503643646,None,394.84901325525607,None,0.66,7.502809602661728,397.85014311198574,None,None,397.85014311198574,None,,,,,,,,,,,,,,,,,,,22658,2020_Feb_14_1330,Mmi_3levels,3.1.5,59.984971007652135,
,,,1,1,3.3,,,,,,,,,0,0,0,0,0,22,22,1,,,,,,,,,,,,,,,,,,,,,,,,,,,,,,,,,,,,,,,,,,,,,,,,,,,,,,,,,,,True,False,True,0.66,-0.33999999999999997,-6.4799999999999995,-1.73,3.3,1.5699999999999998,0.7849999999999999,gamble,lose,1.5699999999999998,78.05208333333333,404.3692641212092,None,404.3692641212092,None,404.3692641212092,None,404.3692641212092,None,404.3692641212092,None,404.3692641212092,None,404.3692641212092,None,1,404.3692641212092,None,405.15291623668963,None,405.15291623668963,None,405.15291623668963,None,405.15291623668963,None,405.15291623668963,None,405.15291623668963,None,405.15291623668963,None,409.154408953098,None,409.154408953098,None,409.154408953098,None,409.154408953098,None,409.154408953098,None,409.154408953098,None,409.154408953098,None,410.1381941811251,None,0.7505637284302793,,,,,,,,,,,,,,,,,,,,,,,,,,,,,,22658,2020_Feb_14_1330,Mmi_3levels,3.1.5,59.984971007652135,
,,,1,1,4.7,,,,,,,,,0,0,0,0,0,23,23,26,,,,,,,,,,,,,,,,,,,,,,,,,,,,,,,,,,,,,,,,,,,,,,,,,,,,,,,,,,,True,True,True,0.66,-0.33999999999999997,-6.819999999999999,11.579999999999998,4.7,-6.879999999999998,-1.089999999999999,certain,certain,-1.089999999999999,76.96208333333333,412.15557304790855,None,412.15557304790855,None,412.15557304790855,None,412.15557304790855,None,412.15557304790855,None,412.15557304790855,None,412.15557304790855,None,3,412.15557304790855,None,414.3897500139992,None,414.3897500139992,None,414.3897500139992,None,414.3897500139992,None,414.3897500139992,None,414.3897500139992,None,414.3897500139992,None,418.39126032942113,None,418.39126032942113,None,418.39126032942113,None,418.39126032942113,None,418.39126032942113,None,418.39126032942113,None,418.39126032942113,None,427.8781860215822,None,2.2011410561008233,419.3749742014443,None,420.3753290615714,None,0.66,7.5027523258704605,423.376493476364,None,None,423.376493476364,None,,,,,,,,,,,,,,,,,,,22658,2020_Feb_14_1330,Mmi_3levels,3.1.5,59.984971007652135,
,,,1,1,7.7,,,,,,,,,0,0,0,0,0,24,24,8,,,,,,,,,,,,,,,,,,,,,,,,,,,,,,,,,,,,,,,,,,,,,,,,,,,,,,,,,,,True,True,False,0.66,-0.33999999999999997,-7.159999999999999,11.919999999999998,7.7,-4.219999999999998,1.740000000000001,certain,certain,1.740000000000001,78.70208333333332,429.8956208852287,None,429.8956208852287,None,429.8956208852287,None,429.8956208852287,None,429.8956208852287,None,429.8956208852287,None,429.8956208852287,None,3,429.8956208852287,None,431.7963438847419,None,431.7963438847419,None,431.7963438847419,None,431.7963438847419,None,431.7963438847419,None,431.7963438847419,None,431.7963438847419,None,435.7812352908222,None,435.7812352908222,None,435.7812352908222,None,435.7812352908222,None,435.7812352908222,None,435.7812352908222,None,435.7812352908222,None,436.7815568728147,None,1.8676128536790202,,,,,,,,,,,,,,,,,,,,,,,,,,,,,,22658,2020_Feb_14_1330,Mmi_3levels,3.1.5,59.984971007652135,
,,,1,1,-1.3,,,,,,,,,0,0,0,0,0,25,25,3,,,,,,,,,,,,,,,,,,,,,,,,,,,,,,,,,,,,,,,,,,,,,,,,,,,,,,,,,,,True,True,True,0.66,-0.33999999999999997,-7.499999999999999,12.259999999999998,-1.3,-13.559999999999999,-7.43,certain,certain,-7.43,71.27208333333331,438.798996856176,None,438.798996856176,None,438.798996856176,None,438.798996856176,None,438.798996856176,None,438.798996856176,None,438.798996856176,None,3,438.798996856176,None,441.1498831265435,None,441.1498831265435,None,441.1498831265435,None,441.1498831265435,None,441.1498831265435,None,441.1498831265435,None,441.1498831265435,None,445.1514558384715,None,445.1514558384715,None,445.1514558384715,None,445.1514558384715,None,445.1514558384715,None,445.1514558384715,None,445.1514558384715,None,446.1351069940083,None,2.3177838041065115,,,,,,,,,,,,,,,,,,,,,,,,,,,,,,22658,2020_Feb_14_1330,Mmi_3levels,3.1.5,59.984971007652135,
,,,1,1,13.1,,,,,,,,,0,0,0,0,0,26,26,2,,,,,,,,,,,,,,,,,,,,,,,,,,,,,,,,,,,,,,,,,,,,,,,,,,,,,,,,,,,True,True,False,0.66,-0.33999999999999997,-7.839999999999999,12.599999999999998,13.1,0.5000000000000018,0.2500000000000009,gamble,win,13.1,84.37208333333331,448.15254121769067,None,448.15254121769067,None,448.15254121769067,None,448.15254121769067,None,448.15254121769067,None,448.15254121769067,None,448.15254121769067,None,1,448.15254121769067,None,448.9695124273039,None,448.9695124273039,None,448.9695124273039,None,448.9695124273039,None,448.9695124273039,None,448.9695124273039,None,448.9695124273039,None,452.9710291423671,None,452.9710291423671,None,452.9710291423671,None,452.9710291423671,None,452.9710291423671,None,452.9710291423671,None,452.9710291423671,None,462.45795099474344,None,0.7838828225612815,453.95470813634347,None,454.95510811394524,None,0.7,7.502871999167837,457.95623477085246,None,None,457.95623477085246,None,,,,,,,,,,,,,,,,,,,22658,2020_Feb_14_1330,Mmi_3levels,3.1.5,59.984971007652135,
,,,2,0,10.1,,,,,,,,,0,1,1,1,0,0,0,20,,,,,,,,,,,,,,,,,,,,,,,,,,,,,,,,,,,,,,,,,,,,,,,,471.71140112153626,None,0.66,7.501805498892281,474.7292289231791,None,None,474.7292289231791,None,479.21433423728195,None,False,False,True,0.66,0.66,0.66,2.365,2.525,0.1599999999999997,1.3424999999999998,gamble,win,2.525,86.89708333333331,482.2487227115271,None,482.2487227115271,None,482.2487227115271,None,482.2487227115271,None,482.2487227115271,None,482.2487227115271,None,482.2487227115271,None,1,482.2487227115271,None,483.06574735814684,None,483.06574735814684,None,483.06574735814684,None,483.06574735814684,None,483.06574735814684,None,483.06574735814684,None,483.06574735814684,None,487.0506224451419,None,487.0506224451419,None,487.0506224451419,None,487.0506224451419,None,487.0506224451419,None,487.0506224451419,None,487.0506224451419,None,488.0510320222056,None,0.7838879422761238,,,,,,,,,,,,464.45876022942684,None,4,7.23619541305743,464.45876022942684,None,,,,,,,,,,,,,22658,2020_Feb_14_1330,Mmi_3levels,3.1.5,59.984971007652135,
,,,2,0,5.7,,,,,,,,,0,1,1,1,0,1,1,18,,,,,,,,,,,,,,,,,,,,,,,,,,,,,,,,,,,,,,,,,,,,,,,,,,,,,,,,,,,False,True,True,0.66,0.66,1.32,-10.56,5.7,-4.86,0.41999999999999993,gamble,lose,-4.86,82.03708333333331,490.0684089690967,None,490.0684089690967,None,490.0684089690967,None,490.0684089690967,None,490.0684089690967,None,490.0684089690967,None,490.0684089690967,None,1,490.0684089690967,None,491.7691143695938,None,491.7691143695938,None,491.7691143695938,None,491.7691143695938,None,491.7691143695938,None,491.7691143695938,None,491.7691143695938,None,495.7538957018405,None,495.7538957018405,None,495.7538957018405,None,495.7538957018405,None,495.7538957018405,None,495.7538957018405,None,495.7538957018405,None,505.25754653739386,None,1.6676154135384422,496.75427648051664,None,497.7546530994259,None,0.44,7.502848320495104,500.75577719647663,None,None,500.75577719647663,None,,,,,,,,,,,,,,,,,,,22658,2020_Feb_14_1330,Mmi_3levels,3.1.5,59.984971007652135,
,,,2,0,11.1,,,,,,,,,0,1,1,1,0,2,2,9,,,,,,,,,,,,,,,,,,,,,,,,,,,,,,,,,,,,,,,,,,,,,,,,,,,,,,,,,,,False,True,True,0.44,0.44,1.76,-7.92,11.1,3.1799999999999997,1.5899999999999999,gamble,lose,3.1799999999999997,85.2170833333333,507.27493148383655,None,507.27493148383655,None,507.27493148383655,None,507.27493148383655,None,507.27493148383655,None,507.27493148383655,None,507.27493148383655,None,1,507.27493148383655,None,508.2752703448605,None,508.2752703448605,None,508.2752703448605,None,508.2752703448605,None,508.2752703448605,None,508.2752703448605,None,508.2752703448605,None,512.2601643107973,None,512.2601643107973,None,512.2601643107973,None,512.2601643107973,None,512.2601643107973,None,512.2601643107973,None,512.2601643107973,None,513.2605242906393,None,0.9672661530948972,,,,,,,,,,,,,,,,,,,,,,,,,,,,,,22658,2020_Feb_14_1330,Mmi_3levels,3.1.5,59.984971007652135,
,,,2,0,9.3,,,,,,,,,0,1,1,1,0,3,3,26,,,,,,,,,,,,,,,,,,,,,,,,,,,,,,,,,,,,,,,,,,,,,,,,,,,,,,,,,,,False,True,True,0.44,0.44,2.2,-8.36,9.3,0.9400000000000013,0.47000000000000064,gamble,lose,0.9400000000000013,86.1570833333333,515.2779575543755,None,515.2779575543755,None,515.2779575543755,None,515.2779575543755,None,515.2779575543755,None,515.2779575543755,None,515.2779575543755,None,1,515.2779575543755,None,516.3950505171706,None,516.3950505171706,None,516.3950505171706,None,516.3950505171706,None,516.3950505171706,None,516.3950505171706,None,516.3950505171706,None,520.3965589127001,None,520.3965589127001,None,520.3965589127001,None,520.3965589127001,None,520.3965589127001,None,520.3965589127001,None,520.3965589127001,None,529.8834929243949,None,1.084000415976334,521.3802881438623,None,522.3806481237043,None,0.6,7.5027555256911,525.3817776604501,None,None,525.3817776604501,None,,,,,,,,,,,,,,,,,,,22658,2020_Feb_14_1330,Mmi_3levels,3.1.5,59.984971007652135,
,,,2,0,7.3,,,,,,,,,0,1,1,1,0,4,4,24,,,,,,,,,,,,,,,,,,,,,,,,,,,,,,,,,,,,,,,,,,,,,,,,,,,,,,,,,,,False,False,False,0.6,0.6,2.8000000000000003,2.3333333333333335,1.825,-0.5083333333333335,0.6583333333333332,certain,certain,0.6583333333333332,86.81541666666664,531.9009233082943,None,531.9009233082943,None,531.9009233082943,None,531.9009233082943,None,531.9009233082943,None,531.9009233082943,None,531.9009233082943,None,3,531.9009233082943,None,534.0183896901763,None,534.0183896901763,None,534.0183896901763,None,534.0183896901763,None,534.0183896901763,None,534.0183896901763,None,534.0183896901763,None,538.0198494484303,None,538.0198494484303,None,538.0198494484303,None,538.0198494484303,None,538.0198494484303,None,538.0198494484303,None,538.0198494484303,None,539.0036119577289,None,2.0843629556748056,,,,,,,,,,,,,,,,,,,,,,,,,,,,,,22658,2020_Feb_14_1330,Mmi_3levels,3.1.5,59.984971007652135,
,,,2,0,3.9,,,,,,,,,0,1,1,1,0,5,5,22,,,,,,,,,,,,,,,,,,,,,,,,,,,,,,,,,,,,,,,,,,,,,,,,,,,,,,,,,,,False,False,False,0.6,0.6,3.4000000000000004,2.3833333333333333,0.975,-1.4083333333333332,-0.21666666666666662,certain,certain,-0.21666666666666662,86.59874999999997,541.0210186629538,None,541.0210186629538,None,541.0210186629538,None,541.0210186629538,None,541.0210186629538,None,541.0210186629538,None,541.0210186629538,None,3,541.0210186629538,None,543.3385589606969,None,543.3385589606969,None,543.3385589606969,None,543.3385589606969,None,543.3385589606969,None,543.3385589606969,None,543.3385589606969,None,547.3401387122321,None,547.3401387122321,None,547.3401387122321,None,547.3401387122321,None,547.3401387122321,None,547.3401387122321,None,547.3401387122321,None,548.3238372251144,None,2.284436231571817,,,,,,,,,,,,,,,,,,,,,,,,,,,,,,22658,2020_Feb_14_1330,Mmi_3levels,3.1.5,59.984971007652135,
,,,2,0,12.9,,,,,,,,,0,1,1,1,0,6,6,16,,,,,,,,,,,,,,,,,,,,,,,,,,,,,,,,,,,,,,,,,,,,,,,,,,,,,,,,,,,False,True,False,0.6,0.6,4.0,-12.4,12.9,0.5,0.25,gamble,lose,0.5,87.09874999999997,550.34123785068,None,550.34123785068,None,550.34123785068,None,550.34123785068,None,550.34123785068,None,550.34123785068,None,550.34123785068,None,1,550.34123785068,None,551.2249035654004,None,551.2249035654004,None,551.2249035654004,None,551.2249035654004,None,551.2249035654004,None,551.2249035654004,None,551.2249035654004,None,555.2264801171132,None,555.2264801171132,None,555.2264801171132,None,555.2264801171132,None,555.2264801171132,None,555.2264801171132,None,555.2264801171132,None,564.7133485324812,None,0.8505818074190756,556.210125512971,None,557.2105120513243,None,0.59,7.502751045942205,560.2116473477472,None,None,560.2116473477472,None,,,,,,,,,,,,,,,,,,,22658,2020_Feb_14_1330,Mmi_3levels,3.1.5,59.984971007652135,
,,,2,0,12.5,,,,,,,,,0,1,1,1,0,7,7,3,,,,,,,,,,,,,,,,,,,,,,,,,,,,,,,,,,,,,,,,,,,,,,,,,,,,,,,,,,,False,True,False,0.59,0.59,4.59,-12.85,12.5,-0.34999999999999964,-0.17499999999999982,certain,certain,-0.17499999999999982,86.92374999999997,566.7307763565241,None,566.7307763565241,None,566.7307763565241,None,566.7307763565241,None,566.7307763565241,None,566.7307763565241,None,566.7307763565241,None,3,566.7307763565241,None,568.5314383994482,None,568.5314383994482,None,568.5314383994482,None,568.5314383994482,None,568.5314383994482,None,568.5314383994482,None,568.5314383994482,None,572.533030630284,None,572.533030630284,None,572.533030630284,None,572.533030630284,None,572.533030630284,None,572.533030630284,None,572.533030630284,None,573.5166280288304,None,1.7675742958399496,,,,,,,,,,,,,,,,,,,,,,,,,,,,,,22658,2020_Feb_14_1330,Mmi_3levels,3.1.5,59.984971007652135,
,,,2,0,0.5,,,,,,,,,0,1,1,1,0,8,8,25,,,,,,,,,,,,,,,,,,,,,,,,,,,,,,,,,,,,,,,,,,,,,,,,,,,,,,,,,,,False,True,True,0.59,0.59,5.18,-13.44,0.5,-12.94,-6.22,gamble,lose,-12.94,73.98374999999997,575.5340468933737,None,575.5340468933737,None,575.5340468933737,None,575.5340468933737,None,575.5340468933737,None,575.5340468933737,None,575.5340468933737,None,1,575.5340468933737,None,578.1684420872425,None,578.1684420872425,None,578.1684420872425,None,578.1684420872425,None,578.1684420872425,None,578.1684420872425,None,578.1684420872425,None,582.169996240209,None,582.169996240209,None,582.169996240209,None,582.169996240209,None,582.169996240209,None,582.169996240209,None,582.169996240209,None,591.6568828945565,None,2.6011189773380465,583.1536672346338,None,584.154069772092,None,0.37,7.502704648541112,587.1551657107193,None,None,587.1551657107193,None,,,,,,,,,,,,,,,,,,,22658,2020_Feb_14_1330,Mmi_3levels,3.1.5,59.984971007652135,
,,,2,0,6.7,,,,,,,,,0,1,1,1,0,9,9,2,,,,,,,,,,,,,,,,,,,,,,,,,,,,,,,,,,,,,,,,,,,,,,,,,,,,,,,,,,,False,False,False,0.37,0.37,5.55,1.7574999999999998,1.675,-0.0824999999999998,0.7962500000000001,gamble,win,1.675,75.65874999999997,593.6742825601759,None,593.6742825601759,None,593.6742825601759,None,593.6742825601759,None,593.6742825601759,None,593.6742825601759,None,593.6742825601759,None,1,593.6742825601759,None,595.1415360739793,None,595.1415360739793,None,595.1415360739793,None,595.1415360739793,None,595.1415360739793,None,595.1415360739793,None,595.1415360739793,None,599.143050229186,None,599.143050229186,None,599.143050229186,None,599.143050229186,None,599.143050229186,None,599.143050229186,None,599.143050229186,None,600.1268175382174,None,1.4341705664483015,,,,,,,,,,,,,,,,,,,,,,,,,,,,,,22658,2020_Feb_14_1330,Mmi_3levels,3.1.5,59.984971007652135,
,,,2,0,3.7,,,,,,,,,0,1,1,1,0,10,10,17,,,,,,,,,,,,,,,,,,,,,,,,,,,,,,,,,,,,,,,,,,,,,,,,,,,,,,,,,,,False,False,False,0.37,0.37,5.92,1.7883333333333333,0.925,-0.8633333333333333,0.03083333333333338,gamble,win,0.925,76.58374999999997,602.1441784860035,None,602.1441784860035,None,602.1441784860035,None,602.1441784860035,None,602.1441784860035,None,602.1441784860035,None,602.1441784860035,None,1,602.1441784860035,None,604.578447606933,None,604.578447606933,None,604.578447606933,None,604.578447606933,None,604.578447606933,None,604.578447606933,None,604.578447606933,None,608.5799243242363,None,608.5799243242363,None,608.5799243242363,None,608.5799243242363,None,608.5799243242363,None,608.5799243242363,None,608.5799243242363,None,609.5636980329091,None,2.401230011118969,,,,,,,,,,,,,,,,,,,,,,,,,,,,,,22658,2020_Feb_14_1330,Mmi_3levels,3.1.5,59.984971007652135,
,,,2,0,10.5,,,,,,,,,0,1,1,1,0,11,11,10,,,,,,,,,,,,,,,,,,,,,,,,,,,,,,,,,,,,,,,,,,,,,,,,,,,,,,,,,,,False,False,True,0.37,0.37,6.29,1.8191666666666666,2.625,0.8058333333333334,1.7154166666666666,gamble,win,2.625,79.20874999999997,611.5810989784568,None,611.5810989784568,None,611.5810989784568,None,611.5810989784568,None,611.5810989784568,None,611.5810989784568,None,611.5810989784568,None,1,611.5810989784568,None,612.4480952266658,None,612.4480952266658,None,612.4480952266658,None,612.4480952266658,None,612.4480952266658,None,612.4480952266658,None,612.4480952266658,None,616.449607781964,None,616.449607781964,None,616.449607781964,None,616.449607781964,None,616.449607781964,None,616.449607781964,None,616.449607781964,None,625.9365360339816,None,0.8339085011248244,617.4333043749539,None,618.433689953361,None,0.57,7.502760005439995,621.4347842920779,None,None,621.4347842920779,None,,,,,,,,,,,,,,,,,,,22658,2020_Feb_14_1330,Mmi_3levels,3.1.5,59.984971007652135,
,,,2,0,2.3,,,,,,,,,0,1,1,1,0,12,12,0,,,,,,,,,,,,,,,,,,,,,,,,,,,,,,,,,,,,,,,,,,,,,,,,,,,,,,,,,,,False,True,False,0.57,0.57,6.86,-14.84,2.3,-12.54,-5.119999999999999,certain,certain,-5.119999999999999,74.08874999999996,627.9539648179689,None,627.9539648179689,None,627.9539648179689,None,627.9539648179689,None,627.9539648179689,None,627.9539648179689,None,627.9539648179689,None,3,627.9539648179689,None,630.0380609085878,None,630.0380609085878,None,630.0380609085878,None,630.0380609085878,None,630.0380609085878,None,630.0380609085878,None,630.0380609085878,None,634.0396073819866,None,634.0396073819866,None,634.0396073819866,None,634.0396073819866,None,634.0396073819866,None,634.0396073819866,None,634.0396073819866,None,635.0233106945998,None,2.0507709168286965,,,,,,,,,,,,,,,,,,,,,,,,,,,,,,22658,2020_Feb_14_1330,Mmi_3levels,3.1.5,59.984971007652135,
,,,2,0,0.7,,,,,,,,,0,1,1,1,0,13,13,21,,,,,,,,,,,,,,,,,,,,,,,,,,,,,,,,,,,,,,,,,,,,,,,,,,,,,,,,,,,False,False,False,0.57,0.57,7.430000000000001,2.6141666666666667,0.175,-2.439166666666667,-1.1320833333333336,gamble,win,0.175,74.26374999999996,637.0407202796632,None,637.0407202796632,None,637.0407202796632,None,637.0407202796632,None,637.0407202796632,None,637.0407202796632,None,637.0407202796632,None,None,637.0407202796632,None,640.0419141328075,None,640.0419141328075,None,640.0419141328075,None,640.0419141328075,None,640.0419141328075,None,640.0419141328075,None,640.0419141328075,None,644.043391170093,None,644.043391170093,None,644.043391170093,None,644.043391170093,None,644.043391170093,None,644.043391170093,None,644.043391170093,None,653.5302944635096,None,,645.0270941627259,None,646.0274531826217,None,0.55,7.502868479365134,649.0285961586142,None,None,649.0285961586142,None,,,,,,,,,,,,,,,,,,,22658,2020_Feb_14_1330,Mmi_3levels,3.1.5,59.984971007652135,
,,,2,0,4.3,,,,,,,,,0,1,1,1,0,14,14,14,,,,,,,,,,,,,,,,,,,,,,,,,,,,,,,,,,,,,,,,,,,,,,,,,,,,,,,,,,,False,True,False,0.55,0.55,7.98,-15.680000000000001,4.3,-11.380000000000003,-3.5400000000000014,certain,certain,-3.5400000000000014,70.72374999999995,655.5477206876403,None,655.5477206876403,None,655.5477206876403,None,655.5477206876403,None,655.5477206876403,None,655.5477206876403,None,655.5477206876403,None,3,655.5477206876403,None,658.0320772436735,None,658.0320772436735,None,658.0320772436735,None,658.0320772436735,None,658.0320772436735,None,658.0320772436735,None,658.0320772436735,None,662.0335427616046,None,662.0335427616046,None,662.0335427616046,None,662.0335427616046,None,662.0335427616046,None,662.0335427616046,None,662.0335427616046,None,663.0172195157065,None,2.4512576095730765,,,,,,,,,,,,,,,,,,,,,,,,,,,,,,22658,2020_Feb_14_1330,Mmi_3levels,3.1.5,59.984971007652135,
,,,2,0,-0.5,,,,,,,,,0,1,1,1,0,15,15,8,,,,,,,,,,,,,,,,,,,,,,,,,,,,,,,,,,,,,,,,,,,,,,,,,,,,,,,,,,,False,True,False,0.55,0.55,8.530000000000001,-16.230000000000004,-0.5,-16.730000000000004,-8.615000000000002,certain,certain,-8.615000000000002,62.10874999999995,665.0347266953049,None,665.0347266953049,None,665.0347266953049,None,665.0347266953049,None,665.0347266953049,None,665.0347266953049,None,665.0347266953049,None,3,665.0347266953049,None,667.852379786731,None,667.852379786731,None,667.852379786731,None,667.852379786731,None,667.852379786731,None,667.852379786731,None,667.852379786731,None,671.8539182605764,None,671.8539182605764,None,671.8539182605764,None,671.8539182605764,None,671.8539182605764,None,671.8539182605764,None,671.8539182605764,None,681.340846512594,None,2.7845736638755625,672.8376314926354,None,673.8380106714012,None,0.5,7.502762885278571,676.8391485276825,None,None,676.8391485276825,None,,,,,,,,,,,,,,,,,,,22658,2020_Feb_14_1330,Mmi_3levels,3.1.5,59.984971007652135,
,,,2,0,4.9,,,,,,,,,0,1,1,1,0,16,16,12,,,,,,,,,,,,,,,,,,,,,,,,,,,,,,,,,,,,,,,,,,,,,,,,,,,,,,,,,,,False,True,True,0.5,0.5,9.030000000000001,-16.03,4.9,-11.13,-3.115,certain,certain,-3.115,58.99374999999995,683.3582772164755,None,683.3582772164755,None,683.3582772164755,None,683.3582772164755,None,683.3582772164755,None,683.3582772164755,None,683.3582772164755,None,3,683.3582772164755,None,684.9921697184946,None,684.9921697184946,None,684.9921697184946,None,684.9921697184946,None,684.9921697184946,None,684.9921697184946,None,684.9921697184946,None,688.9937449902791,None,688.9937449902791,None,688.9937449902791,None,688.9937449902791,None,688.9937449902791,None,688.9937449902791,None,688.9937449902791,None,689.9774515027148,None,1.6008546721386665,,,,,,,,,,,,,,,,,,,,,,,,,,,,,,22658,2020_Feb_14_1330,Mmi_3levels,3.1.5,59.984971007652135,
,,,2,0,2.1,,,,,,,,,0,1,1,1,0,17,17,1,,,,,,,,,,,,,,,,,,,,,,,,,,,,,,,,,,,,,,,,,,,,,,,,,,,,,,,,,,,False,True,False,0.5,0.5,9.530000000000001,-16.53,2.1,-14.430000000000001,-6.165000000000001,certain,certain,-6.165000000000001,52.82874999999995,691.994952922636,None,691.994952922636,None,691.994952922636,None,691.994952922636,None,691.994952922636,None,691.994952922636,None,691.994952922636,None,3,691.994952922636,None,694.4125202588639,None,694.4125202588639,None,694.4125202588639,None,694.4125202588639,None,694.4125202588639,None,694.4125202588639,None,694.4125202588639,None,698.4139912164901,None,698.4139912164901,None,698.4139912164901,None,698.4139912164901,None,698.4139912164901,None,698.4139912164901,None,698.4139912164901,None,699.397745726239,None,2.384267761006413,,,,,,,,,,,,,,,,,,,,,,,,,,,,,,22658,2020_Feb_14_1330,Mmi_3levels,3.1.5,59.984971007652135,
,,,2,0,11.5,,,,,,,,,0,1,1,1,0,18,18,4,,,,,,,,,,,,,,,,,,,,,,,,,,,,,,,,,,,,,,,,,,,,,,,,,,,,,,,,,,,False,False,False,0.5,0.5,10.030000000000001,2.5858333333333334,2.875,0.28916666666666657,1.5820833333333333,gamble,win,2.875,55.70374999999995,701.4151508315517,None,701.4151508315517,None,701.4151508315517,None,701.4151508315517,None,701.4151508315517,None,701.4151508315517,None,701.4151508315517,None,1,701.4151508315517,None,702.3655030518275,None,702.3655030518275,None,702.3655030518275,None,702.3655030518275,None,702.3655030518275,None,702.3655030518275,None,702.3655030518275,None,706.3503304614933,None,706.3503304614933,None,706.3503304614933,None,706.3503304614933,None,706.3503304614933,None,706.3503304614933,None,706.3503304614933,None,715.8539508987487,None,0.9172356748022139,707.3507013207254,None,708.3510929787917,None,0.56,7.502785604006931,711.3522045965419,None,None,711.3522045965419,None,,,,,,,,,,,,,,,,,,,22658,2020_Feb_14_1330,Mmi_3levels,3.1.5,59.984971007652135,
,,,2,0,11.7,,,,,,,,,0,1,1,1,0,19,19,23,,,,,,,,,,,,,,,,,,,,,,,,,,,,,,,,,,,,,,,,,,,,,,,,,,,,,,,,,,,False,True,False,0.56,0.56,10.590000000000002,-18.430000000000003,11.7,-6.730000000000004,-3.365000000000002,gamble,lose,-6.730000000000004,48.973749999999946,717.8713537641888,None,717.8713537641888,None,717.8713537641888,None,717.8713537641888,None,717.8713537641888,None,717.8713537641888,None,717.8713537641888,None,1,717.8713537641888,None,720.1055304102956,None,720.1055304102956,None,720.1055304102956,None,720.1055304102956,None,720.1055304102956,None,720.1055304102956,None,720.1055304102956,None,724.1070544849481,None,724.1070544849481,None,724.1070544849481,None,724.1070544849481,None,724.1070544849481,None,724.1070544849481,None,724.1070544849481,None,725.0907401985478,None,2.2010719399713707,,,,,,,,,,,,,,,,,,,,,,,,,,,,,,22658,2020_Feb_14_1330,Mmi_3levels,3.1.5,59.984971007652135,
,,,2,0,8.1,,,,,,,,,0,1,1,1,0,20,20,15,,,,,,,,,,,,,,,,,,,,,,,,,,,,,,,,,,,,,,,,,,,,,,,,,,,,,,,,,,,False,False,False,0.56,0.56,11.150000000000002,2.889166666666667,2.025,-0.8641666666666672,0.5804166666666664,certain,certain,0.5804166666666664,49.55416666666661,727.1082390586125,None,727.1082390586125,None,727.1082390586125,None,727.1082390586125,None,727.1082390586125,None,727.1082390586125,None,727.1082390586125,None,3,727.1082390586125,None,728.6087188717429,None,728.6087188717429,None,728.6087188717429,None,728.6087188717429,None,728.6087188717429,None,728.6087188717429,None,728.6087188717429,None,732.6102688649426,None,732.6102688649426,None,732.6102688649426,None,732.6102688649426,None,732.6102688649426,None,732.6102688649426,None,732.6102688649426,None,742.0971529594335,None,1.4674247042166826,733.5939984160887,None,734.5943772748724,None,0.45,7.502462422104145,737.59544409513,None,None,737.59544409513,None,,,,,,,,,,,,,,,,,,,22658,2020_Feb_14_1330,Mmi_3levels,3.1.5,59.984971007652135,
,,,2,0,7.7,,,,,,,,,0,1,1,1,0,21,21,13,,,,,,,,,,,,,,,,,,,,,,,,,,,,,,,,,,,,,,,,,,,,,,,,,,,,,,,,,,,False,False,False,0.45,0.45,11.600000000000001,2.541666666666667,1.925,-0.6166666666666669,0.6541666666666666,gamble,win,1.925,51.47916666666661,744.1146063820415,None,744.1146063820415,None,744.1146063820415,None,744.1146063820415,None,744.1146063820415,None,744.1146063820415,None,744.1146063820415,None,None,744.1146063820415,None,747.1157896757777,None,747.1157896757777,None,747.1157896757777,None,747.1157896757777,None,747.1157896757777,None,747.1157896757777,None,747.1157896757777,None,751.1172526338523,None,751.1172526338523,None,751.1172526338523,None,751.1172526338523,None,751.1172526338523,None,751.1172526338523,None,751.1172526338523,None,752.1009770652836,None,,,,,,,,,,,,,,,,,,,,,,,,,,,,,,,22658,2020_Feb_14_1330,Mmi_3levels,3.1.5,59.984971007652135,
,,,2,0,6.5,,,,,,,,,0,1,1,1,0,22,22,11,,,,,,,,,,,,,,,,,,,,,,,,,,,,,,,,,,,,,,,,,,,,,,,,,,,,,,,,,,,False,True,True,0.45,0.45,12.05,-18.35,6.5,-11.850000000000001,-2.6750000000000007,certain,certain,-2.6750000000000007,48.8041666666666,754.1184282480172,None,754.1184282480172,None,754.1184282480172,None,754.1184282480172,None,754.1184282480172,None,754.1184282480172,None,754.1184282480172,None,3,754.1184282480172,None,756.069145567848,None,756.069145567848,None,756.069145567848,None,756.069145567848,None,756.069145567848,None,756.069145567848,None,756.069145567848,None,760.0706286847926,None,760.0706286847926,None,760.0706286847926,None,760.0706286847926,None,760.0706286847926,None,760.0706286847926,None,760.0706286847926,None,769.5575889350184,None,1.917661250970923,761.0543691153289,None,762.0547540537718,None,0.5,7.502749446030066,765.0558749510019,None,None,765.0558749510019,None,,,,,,,,,,,,,,,,,,,22658,2020_Feb_14_1330,Mmi_3levels,3.1.5,59.984971007652135,
,,,2,0,0.9,,,,,,,,,0,1,1,1,0,23,23,19,,,,,,,,,,,,,,,,,,,,,,,,,,,,,,,,,,,,,,,,,,,,,,,,,,,,,,,,,,,False,True,True,0.5,0.5,12.55,-19.55,0.9,-18.650000000000002,-8.875000000000002,gamble,lose,-18.650000000000002,30.1541666666666,771.5750241186488,None,771.5750241186488,None,771.5750241186488,None,771.5750241186488,None,771.5750241186488,None,771.5750241186488,None,771.5750241186488,None,1,771.5750241186488,None,774.4260478213218,None,774.4260478213218,None,774.4260478213218,None,774.4260478213218,None,774.4260478213218,None,774.4260478213218,None,774.4260478213218,None,778.4275587767079,None,778.4275587767079,None,778.4275587767079,None,778.4275587767079,None,778.4275587767079,None,778.4275587767079,None,778.4275587767079,None,779.4113219259707,None,2.8179749934006395,,,,,,,,,,,,,,,,,,,,,,,,,,,,,,22658,2020_Feb_14_1330,Mmi_3levels,3.1.5,59.984971007652135,
,,,2,0,13.3,,,,,,,,,0,1,1,1,0,24,24,6,,,,,,,,,,,,,,,,,,,,,,,,,,,,,,,,,,,,,,,,,,,,,,,,,,,,,,,,,,,False,True,True,0.5,0.5,13.05,-20.05,13.3,-6.75,-3.375,gamble,lose,-6.75,23.4041666666666,781.4287196716978,None,781.4287196716978,None,781.4287196716978,None,781.4287196716978,None,781.4287196716978,None,781.4287196716978,None,781.4287196716978,None,1,781.4287196716978,None,783.346150855552,None,783.346150855552,None,783.346150855552,None,783.346150855552,None,783.346150855552,None,783.346150855552,None,783.346150855552,None,787.3476621309201,None,787.3476621309201,None,787.3476621309201,None,787.3476621309201,None,787.3476621309201,None,787.3476621309201,None,787.3476621309201,None,788.3313379250758,None,1.8843290375734796,,,,,,,,,,,,,,,,,,,,,,,,,,,,,,22658,2020_Feb_14_1330,Mmi_3levels,3.1.5,59.984971007652135,
,,,2,0,11.9,,,,,,,,,0,1,1,1,0,25,25,5,,,,,,,,,,,,,,,,,,,,,,,,,,,,,,,,,,,,,,,,,,,,,,,,,,,,,,,,,,,False,True,True,0.5,0.5,13.55,-20.55,11.9,-8.65,1.625,gamble,lose,-8.65,14.7541666666666,790.3488041469664,None,790.3488041469664,None,790.3488041469664,None,790.3488041469664,None,790.3488041469664,None,790.3488041469664,None,790.3488041469664,None,1,790.3488041469664,None,792.9831641428063,None,792.9831641428063,None,792.9831641428063,None,792.9831641428063,None,792.9831641428063,None,792.9831641428063,None,792.9831641428063,None,796.9846514195197,None,796.9846514195197,None,796.9846514195197,None,796.9846514195197,None,796.9846514195197,None,796.9846514195197,None,796.9846514195197,None,806.4715710320215,None,2.601226811297238,797.968356332045,None,798.968731671026,None,0.32,7.502918396570749,801.9698532082202,None,None,801.9698532082202,None,,,,,,,,,,,,,,,,,,,22658,2020_Feb_14_1330,Mmi_3levels,3.1.5,59.984971007652135,
,,,2,0,7.9,,,,,,,,,0,1,1,1,0,26,26,7,,,,,,,,,,,,,,,,,,,,,,,,,,,,,,,,,,,,,,,,,,,,,,,,,,,,,,,,,,,False,True,True,0.32,0.32,13.870000000000001,-18.35,7.9,-10.450000000000001,-1.2750000000000004,gamble,lose,-10.450000000000001,4.3041666666666,808.489001095937,None,808.489001095937,None,808.489001095937,None,808.489001095937,None,808.489001095937,None,808.489001095937,None,808.489001095937,None,1,808.489001095937,None,810.1229486348748,None,810.1229486348748,None,810.1229486348748,None,810.1229486348748,None,810.1229486348748,None,810.1229486348748,None,810.1229486348748,None,814.1244739894555,None,814.1244739894555,None,814.1244739894555,None,814.1244739894555,None,814.1244739894555,None,814.1244739894555,None,814.1244739894555,None,815.1081782620167,None,1.6008044349509873,,,,,,,,,,,,,,,,,,,,,,,,,,,,,,22658,2020_Feb_14_1330,Mmi_3levels,3.1.5,59.984971007652135,
,,,3,1,-1.3,,,,,,,,,0,2,2,2,0,0,0,10,,,,,,,,,,,,,,,,,,,,,,,,,,,,,,,,,,,,,,,,,,,,,,,,821.5439528986371,None,0.5,7.501988528641959,824.5617435823588,None,None,824.5617435823588,None,829.0467625012989,None,True,False,False,0.5,-0.5,-0.5,-1.7916666666666667,-1.3,-3.091666666666667,-2.1958333333333333,certain,certain,-2.1958333333333333,2.1083333333332663,832.0812741686459,None,832.0812741686459,None,832.0812741686459,None,832.0812741686459,None,832.0812741686459,None,832.0812741686459,None,832.0812741686459,None,3,832.0812741686459,None,834.298760549409,None,834.298760549409,None,834.298760549409,None,834.298760549409,None,834.298760549409,None,834.298760549409,None,834.298760549409,None,838.300297103362,None,838.300297103362,None,838.300297103362,None,838.300297103362,None,838.300297103362,None,838.300297103362,None,838.300297103362,None,847.7872573535878,None,2.1844063132466545,839.2840125752955,None,840.2843328773579,None,0.5,7.502276512514072,843.2855043317559,None,None,843.2855043317559,None,817.1089238202658,None,4,4.418609517866571,817.1089238202658,None,,,,,,,,,,,,,22658,2020_Feb_14_1330,Mmi_3levels,3.1.5,59.984971007652135,
,,,3,1,8.5,,,,,,,,,0,2,2,2,0,1,1,4,,,,,,,,,,,,,,,,,,,,,,,,,,,,,,,,,,,,,,,,,,,,,,,,,,,,,,,,,,,True,False,True,0.5,-0.5,-1.0,-1.8333333333333333,8.5,6.666666666666667,3.3333333333333335,gamble,lose,6.666666666666667,8.774999999999933,849.8046464597974,None,849.8046464597974,None,849.8046464597974,None,849.8046464597974,None,849.8046464597974,None,849.8046464597974,None,849.8046464597974,None,None,849.8046464597974,None,852.8057871959154,None,852.8057871959154,None,852.8057871959154,None,852.8057871959154,None,852.8057871959154,None,852.8057871959154,None,852.8057871959154,None,856.7906843616747,None,856.7906843616747,None,856.7906843616747,None,856.7906843616747,None,856.7906843616747,None,856.7906843616747,None,856.7906843616747,None,857.7909861047774,None,,,,,,,,,,,,,,,,,,,,,,,,,,,,,,,22658,2020_Feb_14_1330,Mmi_3levels,3.1.5,59.984971007652135,
,,,3,1,12.5,,,,,,,,,0,2,2,2,0,2,2,22,,,,,,,,,,,,,,,,,,,,,,,,,,,,,,,,,,,,,,,,,,,,,,,,,,,,,,,,,,,True,True,True,0.5,-0.5,-1.5,8.5,12.5,4.0,2.0,gamble,win,12.5,21.274999999999935,859.8084392074034,None,859.8084392074034,None,859.8084392074034,None,859.8084392074034,None,859.8084392074034,None,859.8084392074034,None,859.8084392074034,None,1,859.8084392074034,None,860.6754357755963,None,860.6754357755963,None,860.6754357755963,None,860.6754357755963,None,860.6754357755963,None,860.6754357755963,None,860.6754357755963,None,864.6602801443114,None,864.6602801443114,None,864.6602801443114,None,864.6602801443114,None,864.6602801443114,None,864.6602801443114,None,864.6602801443114,None,865.660658363131,None,0.8339094610710163,,,,,,,,,,,,,,,,,,,,,,,,,,,,,,22658,2020_Feb_14_1330,Mmi_3levels,3.1.5,59.984971007652135,
,,,3,1,3.3,,,,,,,,,0,2,2,2,0,3,3,8,,,,,,,,,,,,,,,,,,,,,,,,,,,,,,,,,,,,,,,,,,,,,,,,,,,,,,,,,,,True,False,True,0.5,-0.5,-2.0,-1.9166666666666667,3.3,1.383333333333333,0.6916666666666665,gamble,lose,1.383333333333333,22.658333333333267,867.6780887470286,None,867.6780887470286,None,867.6780887470286,None,867.6780887470286,None,867.6780887470286,None,867.6780887470286,None,867.6780887470286,None,1,867.6780887470286,None,868.7451016343075,None,868.7451016343075,None,868.7451016343075,None,868.7451016343075,None,868.7451016343075,None,868.7451016343075,None,868.7451016343075,None,872.7300019998875,None,872.7300019998875,None,872.7300019998875,None,872.7300019998875,None,872.7300019998875,None,872.7300019998875,None,872.7300019998875,None,882.2335446814977,None,1.0340364939565916,873.7303789387788,None,874.7306989208591,None,0.61,7.502766085099211,877.7318844544698,None,None,877.7318844544698,None,,,,,,,,,,,,,,,,,,,22658,2020_Feb_14_1330,Mmi_3levels,3.1.5,59.984971007652135,
,,,3,1,0.7,,,,,,,,,0,2,2,2,0,4,4,3,,,,,,,,,,,,,,,,,,,,,,,,,,,,,,,,,,,,,,,,,,,,,,,,,,,,,,,,,,,True,True,True,0.61,-0.39,-2.39,7.85,0.7,-7.1499999999999995,-3.2249999999999996,gamble,win,0.7,23.358333333333267,884.2510326621705,None,884.2510326621705,None,884.2510326621705,None,884.2510326621705,None,884.2510326621705,None,884.2510326621705,None,884.2510326621705,None,None,884.2510326621705,None,887.2521679585934,None,887.2521679585934,None,887.2521679585934,None,887.2521679585934,None,887.2521679585934,None,887.2521679585934,None,887.2521679585934,None,891.2369438511432,None,891.2369438511432,None,891.2369438511432,None,891.2369438511432,None,891.2369438511432,None,891.2369438511432,None,891.2369438511432,None,892.2373665474734,None,,,,,,,,,,,,,,,,,,,,,,,,,,,,,,,22658,2020_Feb_14_1330,Mmi_3levels,3.1.5,59.984971007652135,
,,,3,1,7.9,,,,,,,,,0,2,2,2,0,5,5,18,,,,,,,,,,,,,,,,,,,,,,,,,,,,,,,,,,,,,,,,,,,,,,,,,,,,,,,,,,,True,False,True,0.61,-0.39,-2.7800000000000002,-1.5966666666666667,7.9,6.303333333333334,3.151666666666667,gamble,lose,6.303333333333334,29.6616666666666,894.254823169902,None,894.254823169902,None,894.254823169902,None,894.254823169902,None,894.254823169902,None,894.254823169902,None,894.254823169902,None,1,894.254823169902,None,894.9883753709782,None,894.9883753709782,None,894.9883753709782,None,894.9883753709782,None,894.9883753709782,None,894.9883753709782,None,894.9883753709782,None,898.9732622973097,None,898.9732622973097,None,898.9732622973097,None,898.9732622973097,None,898.9732622973097,None,898.9732622973097,None,898.9732622973097,None,908.476872175157,None,0.7005242906398053,899.9736305966853,None,900.9740369739284,None,0.69,7.502742726406723,903.9751188333448,None,None,903.9751188333448,None,,,,,,,,,,,,,,,,,,,22658,2020_Feb_14_1330,Mmi_3levels,3.1.5,59.984971007652135,
,,,3,1,-0.3,,,,,,,,,0,2,2,2,0,6,6,25,,,,,,,,,,,,,,,,,,,,,,,,,,,,,,,,,,,,,,,,,,,,,,,,,,,,,,,,,,,True,False,False,0.69,-0.31000000000000005,-3.0900000000000003,-1.3425000000000002,-0.3,-1.6425000000000003,-0.9712500000000002,gamble,lose,-1.6425000000000003,28.0191666666666,910.494315358339,None,910.494315358339,None,910.494315358339,None,910.494315358339,None,910.494315358339,None,910.494315358339,None,910.494315358339,None,None,910.494315358339,None,913.4954384954435,None,913.4954384954435,None,913.4954384954435,None,913.4954384954435,None,913.4954384954435,None,913.4954384954435,None,913.4954384954435,None,917.496931531834,None,917.496931531834,None,917.496931531834,None,917.496931531834,None,917.496931531834,None,917.496931531834,None,917.496931531834,None,918.4806406041262,None,,,,,,,,,,,,,,,,,,,,,,,,,,,,,,,22658,2020_Feb_14_1330,Mmi_3levels,3.1.5,59.984971007652135,
,,,3,1,13.1,,,,,,,,,0,2,2,2,0,7,7,15,,,,,,,,,,,,,,,,,,,,,,,,,,,,,,,,,,,,,,,,,,,,,,,,,,,,,,,,,,,True,False,False,0.69,-0.31000000000000005,-3.4000000000000004,-1.3683333333333336,13.1,11.731666666666666,5.865833333333333,gamble,lose,11.731666666666666,39.75083333333326,920.4980354700128,None,920.4980354700128,None,920.4980354700128,None,920.4980354700128,None,920.4980354700128,None,920.4980354700128,None,920.4980354700128,None,1,920.4980354700128,None,921.1983581719414,None,921.1983581719414,None,921.1983581719414,None,921.1983581719414,None,921.1983581719414,None,921.1983581719414,None,921.1983581719414,None,925.199877446863,None,925.199877446863,None,925.199877446863,None,925.199877446863,None,925.199877446863,None,925.199877446863,None,925.199877446863,None,934.6868002591855,None,0.6672355948066979,926.1835785196017,None,927.1840111353758,None,0.76,7.5027084883240605,930.1850795555438,None,None,930.1850795555438,None,,,,,,,,,,,,,,,,,,,22658,2020_Feb_14_1330,Mmi_3levels,3.1.5,59.984971007652135,
,,,3,1,0.1,,,,,,,,,0,2,2,2,0,8,8,21,,,,,,,,,,,,,,,,,,,,,,,,,,,,,,,,,,,,,,,,,,,,,,,,,,,,,,,,,,,True,True,False,0.76,-0.24,-3.6400000000000006,7.0,0.1,-6.9,-3.4000000000000004,certain,certain,-3.4000000000000004,36.35083333333326,936.7042319230113,None,936.7042319230113,None,936.7042319230113,None,936.7042319230113,None,936.7042319230113,None,936.7042319230113,None,936.7042319230113,None,3,936.7042319230113,None,938.9050981145047,None,938.9050981145047,None,938.9050981145047,None,938.9050981145047,None,938.9050981145047,None,938.9050981145047,None,938.9050981145047,None,942.9066269888881,None,942.9066269888881,None,942.9066269888881,None,942.9066269888881,None,942.9066269888881,None,942.9066269888881,None,942.9066269888881,None,943.8902899837594,None,2.1677301271138276,,,,,,,,,,,,,,,,,,,,,,,,,,,,,,22658,2020_Feb_14_1330,Mmi_3levels,3.1.5,59.984971007652135,
,,,3,1,7.3,,,,,,,,,0,2,2,2,0,9,9,14,,,,,,,,,,,,,,,,,,,,,,,,,,,,,,,,,,,,,,,,,,,,,,,,,,,,,,,,,,,True,True,True,0.76,-0.24,-3.880000000000001,7.24,7.3,0.05999999999999961,0.029999999999999805,gamble,win,7.3,43.65083333333326,945.9077229275154,None,945.9077229275154,None,945.9077229275154,None,945.9077229275154,None,945.9077229275154,None,945.9077229275154,None,945.9077229275154,None,1,945.9077229275154,None,946.7079987520683,None,946.7079987520683,None,946.7079987520683,None,946.7079987520683,None,946.7079987520683,None,946.7079987520683,None,946.7079987520683,None,950.7095394657899,None,950.7095394657899,None,950.7095394657899,None,950.7095394657899,None,950.7095394657899,None,950.7095394657899,None,950.7095394657899,None,951.6932437383493,None,0.7671810378615191,,,,,,,,,,,,,,,,,,,,,,,,,,,,,,22658,2020_Feb_14_1330,Mmi_3levels,3.1.5,59.984971007652135,
,,,3,1,9.3,,,,,,,,,0,2,2,2,0,10,10,12,,,,,,,,,,,,,,,,,,,,,,,,,,,,,,,,,,,,,,,,,,,,,,,,,,,,,,,,,,,True,True,False,0.76,-0.24,-4.120000000000001,7.48,9.3,1.8200000000000003,0.9100000000000001,gamble,win,9.3,52.950833333333264,953.7106123657068,None,953.7106123657068,None,953.7106123657068,None,953.7106123657068,None,953.7106123657068,None,953.7106123657068,None,953.7106123657068,None,1,953.7106123657068,None,954.9944959882232,None,954.9944959882232,None,954.9944959882232,None,954.9944959882232,None,954.9944959882232,None,954.9944959882232,None,954.9944959882232,None,958.9960123833062,None,958.9960123833062,None,958.9960123833062,None,958.9960123833062,None,958.9960123833062,None,958.9960123833062,None,958.9960123833062,None,968.4829067172232,None,1.2507693169191043,959.9797128160808,None,960.9800894349901,None,0.77,7.502736966729572,963.9812464901952,None,None,963.9812464901952,None,,,,,,,,,,,,,,,,,,,22658,2020_Feb_14_1330,Mmi_3levels,3.1.5,59.984971007652135,
,,,3,1,-0.5,,,,,,,,,0,2,2,2,0,11,11,5,,,,,,,,,,,,,,,,,,,,,,,,,,,,,,,,,,,,,,,,,,,,,,,,,,,,,,,,,,,True,True,True,0.77,-0.22999999999999998,-4.350000000000001,7.570000000000001,-0.5,-8.07,-4.285,certain,certain,-4.285,48.66583333333327,970.5003905381291,None,970.5003905381291,None,970.5003905381291,None,970.5003905381291,None,970.5003905381291,None,970.5003905381291,None,970.5003905381291,None,3,970.5003905381291,None,972.1343156783205,None,972.1343156783205,None,972.1343156783205,None,972.1343156783205,None,972.1343156783205,None,972.1343156783205,None,972.1343156783205,None,976.13583463326,None,976.13583463326,None,976.13583463326,None,976.13583463326,None,976.13583463326,None,976.13583463326,None,976.13583463326,None,977.1194694697097,None,1.6008236338766437,,,,,,,,,,,,,,,,,,,,,,,,,,,,,,22658,2020_Feb_14_1330,Mmi_3levels,3.1.5,59.984971007652135,
,,,3,1,2.5,,,,,,,,,0,2,2,2,0,12,12,7,,,,,,,,,,,,,,,,,,,,,,,,,,,,,,,,,,,,,,,,,,,,,,,,,,,,,,,,,,,True,True,False,0.77,-0.22999999999999998,-4.580000000000002,7.800000000000002,2.5,-5.300000000000002,-1.4000000000000008,certain,certain,-1.4000000000000008,47.26583333333327,979.1369686497546,None,979.1369686497546,None,979.1369686497546,None,979.1369686497546,None,979.1369686497546,None,979.1369686497546,None,979.1369686497546,None,3,979.1369686497546,None,980.0539848168501,None,980.0539848168501,None,980.0539848168501,None,980.0539848168501,None,980.0539848168501,None,980.0539848168501,None,980.0539848168501,None,984.0554823329876,None,984.0554823329876,None,984.0554823329876,None,984.0554823329876,None,984.0554823329876,None,984.0554823329876,None,984.0554823329876,None,993.5424592222826,None,0.8839236202784377,985.0392070844027,None,986.0395193869135,None,0.7,7.5027740846526285,989.0407132400578,None,None,989.0407132400578,None,,,,,,,,,,,,,,,,,,,22658,2020_Feb_14_1330,Mmi_3levels,3.1.5,59.984971007652135,
,,,3,1,2.9,,,,,,,,,0,2,2,2,0,13,13,16,,,,,,,,,,,,,,,,,,,,,,,,,,,,,,,,,,,,,,,,,,,,,,,,,,,,,,,,,,,True,False,False,0.7,-0.30000000000000004,-4.880000000000002,-1.456666666666667,2.9,1.443333333333333,0.7216666666666665,gamble,lose,1.443333333333333,48.709166666666604,995.5598944059129,None,995.5598944059129,None,995.5598944059129,None,995.5598944059129,None,995.5598944059129,None,995.5598944059129,None,995.5598944059129,None,1,995.5598944059129,None,996.9770656043256,None,996.9770656043256,None,996.9770656043256,None,996.9770656043256,None,996.9770656043256,None,996.9770656043256,None,996.9770656043256,None,1000.9619035733995,None,1000.9619035733995,None,1000.9619035733995,None,1000.9619035733995,None,1000.9619035733995,None,1000.9619035733995,None,1000.9619035733995,None,1001.9623141104094,None,1.3840796115418925,,,,,,,,,,,,,,,,,,,,,,,,,,,,,,22658,2020_Feb_14_1330,Mmi_3levels,3.1.5,59.984971007652135,
,,,3,1,13.3,,,,,,,,,0,2,2,2,0,14,14,23,,,,,,,,,,,,,,,,,,,,,,,,,,,,,,,,,,,,,,,,,,,,,,,,,,,,,,,,,,,True,True,False,0.7,-0.30000000000000004,-5.1800000000000015,9.380000000000003,13.3,3.919999999999998,1.959999999999999,gamble,win,13.3,62.0091666666666,1003.9797681729815,None,1003.9797681729815,None,1003.9797681729815,None,1003.9797681729815,None,1003.9797681729815,None,1003.9797681729815,None,1003.9797681729815,None,1,1003.9797681729815,None,1004.8800588767026,None,1004.8800588767026,None,1004.8800588767026,None,1004.8800588767026,None,1004.8800588767026,None,1004.8800588767026,None,1004.8800588767026,None,1008.8815723919452,None,1008.8815723919452,None,1008.8815723919452,None,1008.8815723919452,None,1008.8815723919452,None,1008.8815723919452,None,1008.8815723919452,None,1009.8652773044705,None,0.8671751181936997,,,,,,,,,,,,,,,,,,,,,,,,,,,,,,22658,2020_Feb_14_1330,Mmi_3levels,3.1.5,59.984971007652135,
,,,3,1,9.1,,,,,,,,,0,2,2,2,0,15,15,26,,,,,,,,,,,,,,,,,,,,,,,,,,,,,,,,,,,,,,,,,,,,,,,,,,,,,,,,,,,True,False,True,0.7,-0.30000000000000004,-5.480000000000001,-1.506666666666667,9.1,7.593333333333333,3.7966666666666664,gamble,lose,7.593333333333333,69.60249999999994,1011.8827016087089,None,1011.8827016087089,None,1011.8827016087089,None,1011.8827016087089,None,1011.8827016087089,None,1011.8827016087089,None,1011.8827016087089,None,1,1011.8827016087089,None,1012.6496836177157,None,1012.6496836177157,None,1012.6496836177157,None,1012.6496836177157,None,1012.6496836177157,None,1012.6496836177157,None,1012.6496836177157,None,1016.6345644643898,None,1016.6345644643898,None,1016.6345644643898,None,1016.6345644643898,None,1016.6345644643898,None,1016.6345644643898,None,1016.6345644643898,None,1026.1381641028092,None,0.7339009815459576,1017.634888926219,None,1018.6352121081218,None,0.69,7.502744326318862,1021.6363877222866,None,None,1021.6363877222866,None,,,,,,,,,,,,,,,,,,,22658,2020_Feb_14_1330,Mmi_3levels,3.1.5,59.984971007652135,
,,,3,1,7.1,,,,,,,,,0,2,2,2,0,16,16,24,,,,,,,,,,,,,,,,,,,,,,,,,,,,,,,,,,,,,,,,,,,,,,,,,,,,,,,,,,,True,True,False,0.69,-0.31000000000000005,-5.790000000000001,10.130000000000003,7.1,-3.030000000000003,-1.5150000000000015,certain,certain,-1.5150000000000015,68.08749999999993,1028.1555375298976,None,1028.1555375298976,None,1028.1555375298976,None,1028.1555375298976,None,1028.1555375298976,None,1028.1555375298976,None,1028.1555375298976,None,3,1028.1555375298976,None,1029.3892799603218,None,1029.3892799603218,None,1029.3892799603218,None,1029.3892799603218,None,1029.3892799603218,None,1029.3892799603218,None,1029.3892799603218,None,1033.3908561920525,None,1033.3908561920525,None,1033.3908561920525,None,1033.3908561920525,None,1033.3908561920525,None,1033.3908561920525,None,1033.3908561920525,None,1034.3745655843268,None,1.2006972409544687,,,,,,,,,,,,,,,,,,,,,,,,,,,,,,22658,2020_Feb_14_1330,Mmi_3levels,3.1.5,59.984971007652135,
,,,3,1,1.5,,,,,,,,,0,2,2,2,0,17,17,11,,,,,,,,,,,,,,,,,,,,,,,,,,,,,,,,,,,,,,,,,,,,,,,,,,,,,,,,,,,True,False,True,0.69,-0.31000000000000005,-6.100000000000001,-1.5933333333333337,1.5,-0.09333333333333371,0.7033333333333331,certain,certain,0.7033333333333331,68.79083333333327,1036.3919902085472,None,1036.3919902085472,None,1036.3919902085472,None,1036.3919902085472,None,1036.3919902085472,None,1036.3919902085472,None,1036.3919902085472,None,3,1036.3919902085472,None,1037.6925154591336,None,1037.6925154591336,None,1037.6925154591336,None,1037.6925154591336,None,1037.6925154591336,None,1037.6925154591336,None,1037.6925154591336,None,1041.693997616132,None,1041.693997616132,None,1041.693997616132,None,1041.693997616132,None,1041.693997616132,None,1041.693997616132,None,1041.693997616132,None,1051.1809300279183,None,1.2674378234823962,1042.677705728478,None,1043.6780487492688,None,0.55,7.502681609828869,1046.6792237234713,None,None,1046.6792237234713,None,,,,,,,,,,,,,,,,,,,22658,2020_Feb_14_1330,Mmi_3levels,3.1.5,59.984971007652135,
,,,3,1,12.7,,,,,,,,,0,2,2,2,0,18,18,2,,,,,,,,,,,,,,,,,,,,,,,,,,,,,,,,,,,,,,,,,,,,,,,,,,,,,,,,,,,True,True,False,0.55,-0.44999999999999996,-6.550000000000002,12.850000000000001,12.7,-0.15000000000000213,-0.07500000000000107,certain,certain,-0.07500000000000107,68.71583333333326,1053.198417688609,None,1053.198417688609,None,1053.198417688609,None,1053.198417688609,None,1053.198417688609,None,1053.198417688609,None,1053.198417688609,None,3,1053.198417688609,None,1054.2820782836152,None,1054.2820782836152,None,1054.2820782836152,None,1054.2820782836152,None,1054.2820782836152,None,1054.2820782836152,None,1054.2820782836152,None,1058.283593078786,None,1058.283593078786,None,1058.283593078786,None,1058.283593078786,None,1058.283593078786,None,1058.283593078786,None,1058.283593078786,None,1059.2673191101294,None,1.0505859671866347,,,,,,,,,,,,,,,,,,,,,,,,,,,,,,22658,2020_Feb_14_1330,Mmi_3levels,3.1.5,59.984971007652135,
,,,3,1,0.3,,,,,,,,,0,2,2,2,0,19,19,0,,,,,,,,,,,,,,,,,,,,,,,,,,,,,,,,,,,,,,,,,,,,,,,,,,,,,,,,,,,True,True,True,0.55,-0.44999999999999996,-7.000000000000002,13.3,0.3,-13.0,-6.35,certain,certain,-6.35,62.36583333333326,1061.2846896573792,None,1061.2846896573792,None,1061.2846896573792,None,1061.2846896573792,None,1061.2846896573792,None,1061.2846896573792,None,1061.2846896573792,None,3,1061.2846896573792,None,1063.6856624029042,None,1063.6856624029042,None,1063.6856624029042,None,1063.6856624029042,None,1063.6856624029042,None,1063.6856624029042,None,1063.6856624029042,None,1067.6871803978975,None,1067.6871803978975,None,1067.6871803978975,None,1067.6871803978975,None,1067.6871803978975,None,1067.6871803978975,None,1067.6871803978975,None,1077.1741348884461,None,2.3678878782793618,1068.6708209940243,None,1069.6712971273591,None,0.53,7.502861439759727,1072.67244266321,None,None,1072.67244266321,None,,,,,,,,,,,,,,,,,,,22658,2020_Feb_14_1330,Mmi_3levels,3.1.5,59.984971007652135,
,,,3,1,4.5,,,,,,,,,0,2,2,2,0,20,20,19,,,,,,,,,,,,,,,,,,,,,,,,,,,,,,,,,,,,,,,,,,,,,,,,,,,,,,,,,,,True,True,True,0.53,-0.47,-7.4700000000000015,14.05,4.5,-9.55,-2.5250000000000004,gamble,win,4.5,66.86583333333326,1079.1915342340817,None,1079.1915342340817,None,1079.1915342340817,None,1079.1915342340817,None,1079.1915342340817,None,1079.1915342340817,None,1079.1915342340817,None,1,1079.1915342340817,None,1081.2423121905158,None,1081.2423121905158,None,1081.2423121905158,None,1081.2423121905158,None,1081.2423121905158,None,1081.2423121905158,None,1081.2423121905158,None,1085.243829865527,None,1085.243829865527,None,1085.243829865527,None,1085.243829865527,None,1085.243829865527,None,1085.243829865527,None,1085.243829865527,None,1086.2275139792164,None,2.0176786899919534,,,,,,,,,,,,,,,,,,,,,,,,,,,,,,22658,2020_Feb_14_1330,Mmi_3levels,3.1.5,59.984971007652135,
,,,3,1,3.9,,,,,,,,,0,2,2,2,0,21,21,6,,,,,,,,,,,,,,,,,,,,,,,,,,,,,,,,,,,,,,,,,,,,,,,,,,,,,,,,,,,True,True,False,0.53,-0.47,-7.940000000000001,14.520000000000001,3.9,-10.620000000000001,-3.3600000000000003,certain,certain,-3.3600000000000003,63.50583333333326,1088.2449616421472,None,1088.2449616421472,None,1088.2449616421472,None,1088.2449616421472,None,1088.2449616421472,None,1088.2449616421472,None,1088.2449616421472,None,3,1088.2449616421472,None,1089.545458414328,None,1089.545458414328,None,1089.545458414328,None,1089.545458414328,None,1089.545458414328,None,1089.545458414328,None,1089.545458414328,None,1093.5469719295706,None,1093.5469719295706,None,1093.5469719295706,None,1093.5469719295706,None,1093.5469719295706,None,1093.5469719295706,None,1093.5469719295706,None,1094.530681641827,None,1.2673904661351116,,,,,,,,,,,,,,,,,,,,,,,,,,,,,,22658,2020_Feb_14_1330,Mmi_3levels,3.1.5,59.984971007652135,
,,,3,1,-0.1,,,,,,,,,0,2,2,2,0,22,22,9,,,,,,,,,,,,,,,,,,,,,,,,,,,,,,,,,,,,,,,,,,,,,,,,,,,,,,,,,,,True,True,False,0.53,-0.47,-8.410000000000002,14.990000000000002,-0.1,-15.090000000000002,-7.595000000000001,certain,certain,-7.595000000000001,55.91083333333326,1096.5481059460653,None,1096.5481059460653,None,1096.5481059460653,None,1096.5481059460653,None,1096.5481059460653,None,1096.5481059460653,None,1096.5481059460653,None,3,1096.5481059460653,None,1099.5325762557295,None,1099.5325762557295,None,1099.5325762557295,None,1099.5325762557295,None,1099.5325762557295,None,1099.5325762557295,None,1099.5325762557295,None,1103.53408945099,None,1103.53408945099,None,1103.53408945099,None,1103.53408945099,None,1103.53408945099,None,1103.53408945099,None,1103.53408945099,None,1113.021050661162,None,2.951188653434656,1104.5177694049125,None,1105.5181709824246,None,0.52,7.502729287160037,1108.5192976393319,None,None,1108.5192976393319,None,,,,,,,,,,,,,,,,,,,22658,2020_Feb_14_1330,Mmi_3levels,3.1.5,59.984971007652135,
,,,3,1,3.5,,,,,,,,,0,2,2,2,0,23,23,1,,,,,,,,,,,,,,,,,,,,,,,,,,,,,,,,,,,,,,,,,,,,,,,,,,,,,,,,,,,True,True,False,0.52,-0.48,-8.890000000000002,15.610000000000003,3.5,-12.110000000000003,-4.3050000000000015,certain,certain,-4.3050000000000015,51.60583333333326,1115.038381530634,None,1115.038381530634,None,1115.038381530634,None,1115.038381530634,None,1115.038381530634,None,1115.038381530634,None,1115.038381530634,None,3,1115.038381530634,None,1117.0559287079923,None,1117.0559287079923,None,1117.0559287079923,None,1117.0559287079923,None,1117.0559287079923,None,1117.0559287079923,None,1117.0559287079923,None,1121.057361267769,None,1121.057361267769,None,1121.057361267769,None,1121.057361267769,None,1121.057361267769,None,1121.057361267769,None,1121.057361267769,None,1122.041094338716,None,1.9843947938916244,,,,,,,,,,,,,,,,,,,,,,,,,,,,,,22658,2020_Feb_14_1330,Mmi_3levels,3.1.5,59.984971007652135,
,,,3,1,8.9,,,,,,,,,0,2,2,2,0,24,24,20,,,,,,,,,,,,,,,,,,,,,,,,,,,,,,,,,,,,,,,,,,,,,,,,,,,,,,,,,,,True,True,False,0.52,-0.48,-9.370000000000003,16.090000000000003,8.9,-7.190000000000003,0.8549999999999986,certain,certain,0.8549999999999986,52.460833333333255,1124.0585580007519,None,1124.0585580007519,None,1124.0585580007519,None,1124.0585580007519,None,1124.0585580007519,None,1124.0585580007519,None,1124.0585580007519,None,3,1124.0585580007519,None,1125.842480501091,None,1125.842480501091,None,1125.842480501091,None,1125.842480501091,None,1125.842480501091,None,1125.842480501091,None,1125.842480501091,None,1129.8440512931265,None,1129.8440512931265,None,1129.8440512931265,None,1129.8440512931265,None,1129.8440512931265,None,1129.8440512931265,None,1129.8440512931265,None,1139.3309821050007,None,1.7508926700102165,1130.8277610053829,None,1131.8281453038617,None,0.5,7.50271328805502,1134.8292258833499,None,None,1134.8292258833499,None,,,,,,,,,,,,,,,,,,,22658,2020_Feb_14_1330,Mmi_3levels,3.1.5,59.984971007652135,
,,,3,1,9.9,,,,,,,,,0,2,2,2,0,25,25,17,,,,,,,,,,,,,,,,,,,,,,,,,,,,,,,,,,,,,,,,,,,,,,,,,,,,,,,,,,,True,True,False,0.5,-0.5,-9.870000000000003,16.870000000000005,9.9,-6.970000000000004,1.464999999999998,gamble,win,9.9,62.360833333333254,1141.3484124889,None,1141.3484124889,None,1141.3484124889,None,1141.3484124889,None,1141.3484124889,None,1141.3484124889,None,1141.3484124889,None,1,1141.3484124889,None,1142.7822841920843,None,1142.7822841920843,None,1142.7822841920843,None,1142.7822841920843,None,1142.7822841920843,None,1142.7822841920843,None,1142.7822841920843,None,1146.783747790123,None,1146.783747790123,None,1146.783747790123,None,1146.783747790123,None,1146.783747790123,None,1146.783747790123,None,1146.783747790123,None,1147.7674831009463,None,1.4007893957950728,,,,,,,,,,,,,,,,,,,,,,,,,,,,,,22658,2020_Feb_14_1330,Mmi_3levels,3.1.5,59.984971007652135,
,,,3,1,1.9,,,,,,,,,0,2,2,2,0,26,26,13,,,,,,,,,,,,,,,,,,,,,,,,,,,,,,,,,,,,,,,,,,,,,,,,,,,,,,,,,,,True,True,True,0.5,-0.5,-10.370000000000003,17.370000000000005,1.9,-15.470000000000004,-6.785000000000002,gamble,win,1.9,64.26083333333325,1149.784909325077,None,1149.784909325077,None,1149.784909325077,None,1149.784909325077,None,1149.784909325077,None,1149.784909325077,None,1149.784909325077,None,1,1149.784909325077,None,1151.1521236410754,None,1151.1521236410754,None,1151.1521236410754,None,1151.1521236410754,None,1151.1521236410754,None,1151.1521236410754,None,1151.1521236410754,None,1155.1536621149207,None,1155.1536621149207,None,1155.1536621149207,None,1155.1536621149207,None,1155.1536621149207,None,1155.1536621149207,None,1155.1536621149207,None,1164.6405878070818,None,1.3342318430168234,1156.1373641476075,None,1157.1377436463554,None,0.81,7.502711048180572,1160.1388261457341,None,None,1160.1388261457341,None,,,,,,,,,,,,,,,,,,,22658,2020_Feb_14_1330,Mmi_3levels,3.1.5,59.984971007652135,
,,,,,,,,,,,,,,,,,,,,,,,,,,,,,,0,0,0,0,,,,,,,,,,,,,,,,,,,,,,,,,,,,,,,,,,,,,,,,,,,,,,,,,,,,,,,,,,,,,,,,,,,,,,,,,,,,,,,,,,,,,,,,,,,,,,,,,,,,,,,,,,,,,,,,,,,,,,,,1166.6412911276966,None,4,4.2185423216305935,1166.6412911276966,None,64.26083333333325,3,1170.892877998831,None,1170.892877998831,None,1170.892877998831,None,4,6.602734246882392,1170.892877998831,None,22658,2020_Feb_14_1330,Mmi_3levels,3.1.5,59.984971007652135,
