currSlide,currImage,currText,blockNum,targetHappiness,highAmount,instructionLoop1.thisRepN,instructionLoop1.thisTrialN,instructionLoop1.thisN,instructionLoop1.thisIndex,instructionLoop2.thisRepN,instructionLoop2.thisTrialN,instructionLoop2.thisN,instructionLoop2.thisIndex,blockLoop.thisRepN,blockLoop.thisTrialN,blockLoop.thisN,blockLoop.thisIndex,trialLoop.thisRepN,trialLoop.thisTrialN,trialLoop.thisN,trialLoop.thisIndex,doRatingLoop.thisRepN,doRatingLoop.thisTrialN,doRatingLoop.thisN,doRatingLoop.thisIndex,trialHappyLoop.thisRepN,trialHappyLoop.thisTrialN,trialHappyLoop.thisN,trialHappyLoop.thisIndex,logWinningsLoop.thisRepN,logWinningsLoop.thisTrialN,logWinningsLoop.thisN,logWinningsLoop.thisIndex,instrImage.started,instrImage.stopped,instrText.started,instrText.stopped,instrContinueText.started,instrContinueText.stopped,instrKeyResp.keys,instrKeyResp.rt,instrKeyResp.started,instrKeyResp.stopped,lifeHappyText.started,lifeHappyText.stopped,lifeHappySlider.response,lifeHappySlider.rt,lifeHappySlider.started,lifeHappySlider.stopped,lifeHappyResp.keys,lifeHappyResp.rt,lifeHappyResp.started,lifeHappyResp.stopped,instrImage_2.started,instrImage_2.stopped,instrText_2.started,instrText_2.stopped,instrContinueText_2.started,instrContinueText_2.stopped,instrKeyResp_2.keys,instrKeyResp_2.rt,instrKeyResp_2.started,instrKeyResp_2.stopped,localizing.started,localizing.stopped,start_exp.keys,start_exp.rt,start_exp.started,start_exp.stopped,blockHappyText.started,blockHappyText.stopped,blockHappySlider.response,blockHappySlider.rt,blockHappySlider.started,blockHappySlider.stopped,blockHappyResp.keys,blockHappyResp.started,blockHappyResp.stopped,blankText.started,blankText.stopped,isHappyBlock,isCongruent,isWinOnTop,lastHappyRating,diff,sumDiff,RPE,winAmount,loseAmount,certainAmount,choice,outcome,outcomeAmount,currentWinnings,fixCross.started,fixCross.stopped,certainBox.started,certainBox.stopped,outcome1Box.started,outcome1Box.stopped,outcome2Box.started,outcome2Box.stopped,certainText.started,certainText.stopped,outcome1Text.started,outcome1Text.stopped,outcome2Text.started,outcome2Text.stopped,choiceKey.keys,choiceKey.rt,choiceKey.started,choiceKey.stopped,fixCross_2.started,fixCross_2.stopped,certainBox_2.started,certainBox_2.stopped,outcome1Box_2.started,outcome1Box_2.stopped,outcome2Box_2.started,outcome2Box_2.stopped,certainText_2.started,certainText_2.stopped,outcome1Text_2.started,outcome1Text_2.stopped,outcome2Text_2.started,outcome2Text_2.stopped,fixCross_3.started,fixCross_3.stopped,certainBox_3.started,certainBox_3.stopped,outcome1Box_3.started,outcome1Box_3.stopped,outcome2Box_3.started,outcome2Box_3.stopped,certainText_3.started,certainText_3.stopped,outcome1Text_3.started,outcome1Text_3.stopped,outcome2Text_3.started,outcome2Text_3.stopped,fixCross_ITI.started,fixCross_ITI.stopped,fixCross_ISI.started,fixCross_ISI.stopped,happyText.started,happyText.stopped,happySlider.response,happySlider.rt,happySlider.started,happySlider.stopped,happyResp.keys,happyResp.started,happyResp.stopped,endOfBlockText.started,endOfBlockText.stopped,restKeyResp.keys,restKeyResp.rt,restKeyResp.started,restKeyResp.stopped,blockHappyResp.rt,finalWinnings,cashBonus,goodbyeText.started,goodbyeText.stopped,finalWinningsText.started,finalWinningsText.stopped,spaceToContinue.started,spaceToContinue.stopped,goodbyeKeyResp_2.keys,goodbyeKeyResp_2.rt,goodbyeKeyResp_2.started,goodbyeKeyResp_2.stopped,participant,date,expName,psychopyVersion,frameRate,
1,black.png,"Welcome! You are about to play our gambling task.
This task has 3 blocks and takes about 15 minutes.",,,,0,0,0,0,,,,,,,,,,,,,,,,,,,,,,,,,13.695181936516747,None,13.695181936516747,None,13.695181936516747,None,4,3.602915502458927,13.695181936516747,None,,,,,,,,,,,,,,,,,,,,,,,,,,,,,,,,,,,,,,,,,,,,,,,,,,,,,,,,,,,,,,,,,,,,,,,,,,,,,,,,,,,,,,,,,,,,,,,,,,,,,,,,,,,,,,,,,,,,,,,,,,,,,,,,,,23757,2019_Oct_29_1440,Mmi_3levels,3.1.5,59.99105458035995,
2,black.png,"In this game, you may win or lose points. Your goal is to get as many points as possible. These points will be converted to a cash bonus at the end.
Sometimes we will ask you to rate your mood.",,,,0,1,1,1,,,,,,,,,,,,,,,,,,,,,,,,,17.347789998322696,None,17.347789998322696,None,17.347789998322696,None,4,3.618277615581974,17.347789998322696,None,,,,,,,,,,,,,,,,,,,,,,,,,,,,,,,,,,,,,,,,,,,,,,,,,,,,,,,,,,,,,,,,,,,,,,,,,,,,,,,,,,,,,,,,,,,,,,,,,,,,,,,,,,,,,,,,,,,,,,,,,,,,,,,,,,23757,2019_Oct_29_1440,Mmi_3levels,3.1.5,59.99105458035995,
3,black.png,"On the next screen, please rate how you feel about your life these days. Use the LEFT (green) and RIGHT (blue) buttons to move the slider (you can press and hold them to slide gradually) and the TOP (red) button to lock in your response.
Make your rating as accurately and quickly as you can!",,,,0,2,2,2,,,,,,,,,,,,,,,,,,,,,,,,,21.01581905031162,None,21.01581905031162,None,21.01581905031162,None,4,8.003372311653948,21.01581905031162,None,,,,,,,,,,,,,,,,,,,,,,,,,,,,,,,,,,,,,,,,,,,,,,,,,,,,,,,,,,,,,,,,,,,,,,,,,,,,,,,,,,,,,,,,,,,,,,,,,,,,,,,,,,,,,,,,,,,,,,,,,,,,,,,,,,23757,2019_Oct_29_1440,Mmi_3levels,3.1.5,59.99105458035995,
,,,,,,,,,,,,,,,,,,,,,,,,,,,,,,,,,,,,,,,,,,,,29.03561710199392,None,0.73,7.951932959507758,33.03714342579951,None,4,3.934910449270319,33.03714342579951,None,,,,,,,,,,,,,,,,,,,,,,,,,,,,,,,,,,,,,,,,,,,,,,,,,,,,,,,,,,,,,,,,,,,,,,,,,,,,,,,,,,,,,,,,,,,,,,,,,,,,,,,,,,,,,,,,,,,,,,,,23757,2019_Oct_29_1440,Mmi_3levels,3.1.5,59.99105458035995,
4,black.png,"In this game you can win money by earning points according to your choices. You will decide whether to gamble a number of points or stick with a guaranteed number of points. 
Make your choice by pressing the left or right arrow key once. An example of one trial is shown on the next screen.",,,,,,,,0,0,0,0,,,,,,,,,,,,,,,,,,,,,,,,,,,,,,,,,,,,,,,,,37.03871838717714,None,37.03871838717714,None,37.03871838717714,None,4,5.05229690933993,37.03871838717714,None,,,,,,,,,,,,,,,,,,,,,,,,,,,,,,,,,,,,,,,,,,,,,,,,,,,,,,,,,,,,,,,,,,,,,,,,,,,,,,,,,,,,,,,,,,,,,,,,,,,,,,,,,,,,,,23757,2019_Oct_29_1440,Mmi_3levels,3.1.5,59.99105458035995,
5,example_start.png,"The GAMBLING OPTION will be shown on the RIGHT SIDE. 
Select this option using the RIGHT (blue) button on your keypad.",,,,,,,,0,1,1,1,,,,,,,,,,,,,,,,,,,,,,,,,,,,,,,,,,,,,,,,,42.15733614577948,None,42.15733614577948,None,42.15733614577948,None,4,0.5170669880153582,42.15733614577948,None,,,,,,,,,,,,,,,,,,,,,,,,,,,,,,,,,,,,,,,,,,,,,,,,,,,,,,,,,,,,,,,,,,,,,,,,,,,,,,,,,,,,,,,,,,,,,,,,,,,,,,,,,,,,,,23757,2019_Oct_29_1440,Mmi_3levels,3.1.5,59.99105458035995,
6,example_gamble.png,"Once you select the gambling choice, the choice you made will remain on the screen.",,,,,,,,0,2,2,2,,,,,,,,,,,,,,,,,,,,,,,,,,,,,,,,,,,,,,,,,42.707488842155726,None,42.707488842155726,None,42.707488842155726,None,4,0.4504098355409951,42.707488842155726,None,,,,,,,,,,,,,,,,,,,,,,,,,,,,,,,,,,,,,,,,,,,,,,,,,,,,,,,,,,,,,,,,,,,,,,,,,,,,,,,,,,,,,,,,,,,,,,,,,,,,,,,,,,,,,,23757,2019_Oct_29_1440,Mmi_3levels,3.1.5,59.99105458035995,
7,example_win.png,"The outcome you received will then be shown on the screen. In this example , you WON 10 points.",,,,,,,,0,3,3,3,,,,,,,,,,,,,,,,,,,,,,,,,,,,,,,,,,,,,,,,,43.19107494153832,None,43.19107494153832,None,43.19107494153832,None,4,0.43368427048153535,43.19107494153832,None,,,,,,,,,,,,,,,,,,,,,,,,,,,,,,,,,,,,,,,,,,,,,,,,,,,,,,,,,,,,,,,,,,,,,,,,,,,,,,,,,,,,,,,,,,,,,,,,,,,,,,,,,,,,,,23757,2019_Oct_29_1440,Mmi_3levels,3.1.5,59.99105458035995,
8,example_start.png,"The GUARANTEED OPTION will be shown on the LEFT SIDE. You are 100% guaranteed to gain or lose this amount. In this example, you have a 100% chance of winning 1 point. Select this option using the LEFT (green) button on your keyboard.",,,,,,,,0,4,4,4,,,,,,,,,,,,,,,,,,,,,,,,,,,,,,,,,,,,,,,,,43.674575605184145,None,43.674575605184145,None,43.674575605184145,None,4,0.4338157839156338,43.674575605184145,None,,,,,,,,,,,,,,,,,,,,,,,,,,,,,,,,,,,,,,,,,,,,,,,,,,,,,,,,,,,,,,,,,,,,,,,,,,,,,,,,,,,,,,,,,,,,,,,,,,,,,,,,,,,,,,23757,2019_Oct_29_1440,Mmi_3levels,3.1.5,59.99105458035995,
9,example_certain.png,"Once you select the guaranteed choice, your selection will remain on the screen.",,,,,,,,0,5,5,5,,,,,,,,,,,,,,,,,,,,,,,,,,,,,,,,,,,,,,,,,44.14142302016262,None,44.14142302016262,None,44.14142302016262,None,4,0.450480552010049,44.14142302016262,None,,,,,,,,,,,,,,,,,,,,,,,,,,,,,,,,,,,,,,,,,,,,,,,,,,,,,,,,,,,,,,,,,,,,,,,,,,,,,,,,,,,,,,,,,,,,,,,,,,,,,,,,,,,,,,23757,2019_Oct_29_1440,Mmi_3levels,3.1.5,59.99105458035995,
10,black.png,"Please make your choices as fast as possible.
You will be given a break at the end of each block.
Let's play!",,,,,,,,0,6,6,6,,,,,,,,,,,,,,,,,,,,,,,,,,,,,,,,,,,,,,,,,44.624950242483465,None,44.624950242483465,None,44.624950242483465,None,4,2.5512777602143615,44.624950242483465,None,,,,,,,,,,,,,,,,,,,,,,,,,,,,,,,,,,,,,,,,,,,,,,,,,,,,,,,,,,,,,,,,,,,,,,,,,,,,,,,,,,,,,,,,,,,,,,,,,,,,,,,,,,,,,,23757,2019_Oct_29_1440,Mmi_3levels,3.1.5,59.99105458035995,
,,,,,,,,,,,,,,,,,,,,,,,,,,,,,,,,,,,,,,,,,,,,,,,,,,,,,,,,,,,,,,,,47.19261342473692,None,space,153.27602654075417,47.19261342473692,None,,,,,,,,,,,,,,,,,,,,,,,,,,,,,,,,,,,,,,,,,,,,,,,,,,,,,,,,,,,,,,,,,,,,,,,,,,,,,,,,,,,,,,,,,,,,,,,,,,,,,,,,23757,2019_Oct_29_1440,Mmi_3levels,3.1.5,59.99105458035995,
,,,1,1,12.5,,,,,,,,,0,0,0,0,0,0,0,18,,,,,,,,,,,,,,,,,,,,,,,,,,,,,,,,,,,,,,,,,,,,,,,,,200.484998828857,None,0.15,7.493131862856899,203.502809459751,None,None,203.502809459751,None,207.98785820611738,None,True,False,True,0.15,-0.85,-0.85,-3.0458333333333334,12.5,9.454166666666666,4.727083333333333,gamble,lose,9.454166666666666,9.454166666666666,211.02239504203862,None,211.02239504203862,None,211.02239504203862,None,211.02239504203862,None,211.02239504203862,None,211.02239504203862,None,211.02239504203862,None,1,1.850917202213168,211.02239504203862,None,212.9064081921024,None,212.9064081921024,None,212.9064081921024,None,212.9064081921024,None,212.9064081921024,None,212.9064081921024,None,212.9064081921024,None,216.89124574901143,None,216.89124574901143,None,216.89124574901143,None,216.89124574901143,None,216.89124574901143,None,216.89124574901143,None,216.89124574901143,None,217.89166844790998,None,,,,,,,,,,,,,,,,,,,,,,,,,,,,,,,23757,2019_Oct_29_1440,Mmi_3levels,3.1.5,59.99105458035995,
,,,1,1,11.7,,,,,,,,,0,0,0,0,0,1,1,21,,,,,,,,,,,,,,,,,,,,,,,,,,,,,,,,,,,,,,,,,,,,,,,,,,,,,,,,,,,,True,True,False,0.15,-0.85,-1.7,13.6,11.7,-1.9000000000000004,-0.9500000000000002,gamble,win,11.7,21.154166666666665,219.9091395757514,None,219.9091395757514,None,219.9091395757514,None,219.9091395757514,None,219.9091395757514,None,219.9091395757514,None,219.9091395757514,None,1,1.517500246387499,219.9091395757514,None,221.4597463294631,None,221.4597463294631,None,221.4597463294631,None,221.4597463294631,None,221.4597463294631,None,221.4597463294631,None,221.4597463294631,None,225.44460948509368,None,225.44460948509368,None,225.44460948509368,None,225.44460948509368,None,225.44460948509368,None,225.44460948509368,None,225.44460948509368,None,226.44499090605314,None,,,,,,,,,,,,,,,,,,,,,,,,,,,,,,,23757,2019_Oct_29_1440,Mmi_3levels,3.1.5,59.99105458035995,
,,,1,1,0.9,,,,,,,,,0,0,0,0,0,2,2,15,,,,,,,,,,,,,,,,,,,,,,,,,,,,,,,,,,,,,,,,,,,,,,,,,,,,,,,,,,,,True,True,False,0.15,-0.85,-2.55,14.45,0.9,-13.549999999999999,-6.324999999999999,gamble,win,0.9,22.054166666666664,228.46243163541112,None,228.46243163541112,None,228.46243163541112,None,228.46243163541112,None,228.46243163541112,None,228.46243163541112,None,228.46243163541112,None,1,2.467821766336783,228.46243163541112,None,230.96339734720277,None,230.96339734720277,None,230.96339734720277,None,230.96339734720277,None,230.96339734720277,None,230.96339734720277,None,230.96339734720277,None,234.9482393838898,None,234.9482393838898,None,234.9482393838898,None,234.9482393838898,None,234.9482393838898,None,234.9482393838898,None,234.9482393838898,None,244.45191600035287,None,235.94861664505697,None,236.94907102237448,None,0.12,7.502814579494952,239.95020888557156,None,None,239.95020888557156,None,,,,,,,,,,,,,,,,,,,,23757,2019_Oct_29_1440,Mmi_3levels,3.1.5,59.99105458035995,
,,,1,1,5.9,,,,,,,,,0,0,0,0,0,3,3,11,,,,,,,,,,,,,,,,,,,,,,,,,,,,,,,,,,,,,,,,,,,,,,,,,,,,,,,,,,,,True,False,True,0.12,-0.88,-3.4299999999999997,-3.3658333333333332,5.9,2.534166666666667,1.2670833333333336,gamble,lose,2.534166666666667,24.58833333333333,246.46936440932768,None,246.46936440932768,None,246.46936440932768,None,246.46936440932768,None,246.46936440932768,None,246.46936440932768,None,246.46936440932768,None,1,1.0840079663230426,246.46936440932768,None,247.5864318453223,None,247.5864318453223,None,247.5864318453223,None,247.5864318453223,None,247.5864318453223,None,247.5864318453223,None,247.5864318453223,None,251.588009366571,None,251.588009366571,None,251.588009366571,None,251.588009366571,None,251.588009366571,None,251.588009366571,None,251.588009366571,None,252.57172313957926,None,,,,,,,,,,,,,,,,,,,,,,,,,,,,,,,23757,2019_Oct_29_1440,Mmi_3levels,3.1.5,59.99105458035995,
,,,1,1,7.3,,,,,,,,,0,0,0,0,0,4,4,16,,,,,,,,,,,,,,,,,,,,,,,,,,,,,,,,,,,,,,,,,,,,,,,,,,,,,,,,,,,,True,False,True,0.12,-0.88,-4.31,-3.439166666666667,7.3,3.860833333333333,1.9304166666666664,gamble,lose,3.860833333333333,28.449166666666663,254.58916066909842,None,254.58916066909842,None,254.58916066909842,None,254.58916066909842,None,254.58916066909842,None,254.58916066909842,None,254.58916066909842,None,1,1.1673858840968023,254.58916066909842,None,255.78960218305838,None,255.78960218305838,None,255.78960218305838,None,255.78960218305838,None,255.78960218305838,None,255.78960218305838,None,255.78960218305838,None,259.77448613765046,None,259.77448613765046,None,259.77448613765046,None,259.77448613765046,None,259.77448613765046,None,259.77448613765046,None,259.77448613765046,None,269.2780997172613,None,260.7748765181641,None,261.77522946054523,None,0.11,7.502756662386673,264.7764063617942,None,None,264.7764063617942,None,,,,,,,,,,,,,,,,,,,,23757,2019_Oct_29_1440,Mmi_3levels,3.1.5,59.99105458035995,
,,,1,1,2.1,,,,,,,,,0,0,0,0,0,5,5,24,,,,,,,,,,,,,,,,,,,,,,,,,,,,,,,,,,,,,,,,,,,,,,,,,,,,,,,,,,,,True,False,False,0.11,-0.89,-5.199999999999999,-3.5483333333333333,2.1,-1.4483333333333333,0.3258333333333334,gamble,lose,-1.4483333333333333,27.00083333333333,271.29559676380813,None,271.29559676380813,None,271.29559676380813,None,271.29559676380813,None,271.29559676380813,None,271.29559676380813,None,271.29559676380813,None,1,1.684234643007585,271.29559676380813,None,273.01289343635835,None,273.01289343635835,None,273.01289343635835,None,273.01289343635835,None,273.01289343635835,None,273.01289343635835,None,273.01289343635835,None,276.99778539055296,None,276.99778539055296,None,276.99778539055296,None,276.99778539055296,None,276.99778539055296,None,276.99778539055296,None,276.99778539055296,None,277.99812713349274,None,,,,,,,,,,,,,,,,,,,,,,,,,,,,,,,23757,2019_Oct_29_1440,Mmi_3levels,3.1.5,59.99105458035995,
,,,1,1,7.5,,,,,,,,,0,0,0,0,0,6,6,1,,,,,,,,,,,,,,,,,,,,,,,,,,,,,,,,,,,,,,,,,,,,,,,,,,,,,,,,,,,,True,True,False,0.11,-0.89,-6.089999999999999,18.55,7.5,-11.05,-1.7750000000000004,gamble,win,7.5,34.50083333333333,280.01562066021506,None,280.01562066021506,None,280.01562066021506,None,280.01562066021506,None,280.01562066021506,None,280.01562066021506,None,280.01562066021506,None,1,1.8342850724893651,280.01562066021506,None,281.88299944066785,None,281.88299944066785,None,281.88299944066785,None,281.88299944066785,None,281.88299944066785,None,281.88299944066785,None,281.88299944066785,None,285.8845155249837,None,285.8845155249837,None,285.8845155249837,None,285.8845155249837,None,285.8845155249837,None,285.8845155249837,None,285.8845155249837,None,286.86825521669925,None,,,,,,,,,,,,,,,,,,,,,,,,,,,,,,,23757,2019_Oct_29_1440,Mmi_3levels,3.1.5,59.99105458035995,
,,,1,1,10.9,,,,,,,,,0,0,0,0,0,7,7,13,,,,,,,,,,,,,,,,,,,,,,,,,,,,,,,,,,,,,,,,,,,,,,,,,,,,,,,,,,,,True,True,True,0.11,-0.89,-6.979999999999999,19.439999999999998,10.9,-8.539999999999997,1.1800000000000015,gamble,win,10.9,45.40083333333333,288.8857026657224,None,288.8857026657224,None,288.8857026657224,None,288.8857026657224,None,288.8857026657224,None,288.8857026657224,None,288.8857026657224,None,1,1.7509116344899667,288.8857026657224,None,290.6696724899484,None,290.6696724899484,None,290.6696724899484,None,290.6696724899484,None,290.6696724899484,None,290.6696724899484,None,290.6696724899484,None,294.6712628105597,None,294.6712628105597,None,294.6712628105597,None,294.6712628105597,None,294.6712628105597,None,294.6712628105597,None,294.6712628105597,None,304.1581937029696,None,295.6549420252941,None,296.65536376423915,None,0.21,7.502806259910358,299.65649778762963,None,None,299.65649778762963,None,,,,,,,,,,,,,,,,,,,,23757,2019_Oct_29_1440,Mmi_3levels,3.1.5,59.99105458035995,
,,,1,1,13.9,,,,,,,,,0,0,0,0,0,8,8,19,,,,,,,,,,,,,,,,,,,,,,,,,,,,,,,,,,,,,,,,,,,,,,,,,,,,,,,,,,,,True,True,False,0.21,-0.79,-7.769999999999999,18.83,13.9,-4.929999999999998,-2.464999999999999,gamble,win,13.9,59.30083333333333,306.17569266942155,None,306.17569266942155,None,306.17569266942155,None,306.17569266942155,None,306.17569266942155,None,306.17569266942155,None,306.17569266942155,None,1,1.8509651998174377,306.17569266942155,None,308.0597499772812,None,308.0597499772812,None,308.0597499772812,None,308.0597499772812,None,308.0597499772812,None,308.0597499772812,None,308.0597499772812,None,312.06131981891303,None,312.06131981891303,None,312.06131981891303,None,312.06131981891303,None,312.06131981891303,None,312.06131981891303,None,312.06131981891303,None,313.0449987136635,None,,,,,,,,,,,,,,,,,,,,,,,,,,,,,,,23757,2019_Oct_29_1440,Mmi_3levels,3.1.5,59.99105458035995,
,,,1,1,-0.7,,,,,,,,,0,0,0,0,0,9,9,22,,,,,,,,,,,,,,,,,,,,,,,,,,,,,,,,,,,,,,,,,,,,,,,,,,,,,,,,,,,,True,True,True,0.21,-0.79,-8.559999999999999,19.619999999999997,-0.7,-20.319999999999997,-10.509999999999998,gamble,win,-0.7,58.60083333333333,315.06245352231963,None,315.06245352231963,None,315.06245352231963,None,315.06245352231963,None,315.06245352231963,None,315.06245352231963,None,315.06245352231963,None,None,,315.06245352231963,None,318.0636083446698,None,318.0636083446698,None,318.0636083446698,None,318.0636083446698,None,318.0636083446698,None,318.0636083446698,None,318.0636083446698,None,322.0651449079651,None,322.0651449079651,None,322.0651449079651,None,322.0651449079651,None,322.0651449079651,None,322.0651449079651,None,322.0651449079651,None,331.5521263578521,None,323.04879916394566,None,324.049202983786,None,0.18,7.502764981971268,327.0503491665695,None,None,327.0503491665695,None,,,,,,,,,,,,,,,,,,,,23757,2019_Oct_29_1440,Mmi_3levels,3.1.5,59.99105458035995,
,,,1,1,6.3,,,,,,,,,0,0,0,0,0,10,10,23,,,,,,,,,,,,,,,,,,,,,,,,,,,,,,,,,,,,,,,,,,,,,,,,,,,,,,,,,,,,True,True,True,0.18,-0.8200000000000001,-9.379999999999999,20.86,6.3,-14.559999999999999,-4.129999999999999,gamble,win,6.3,64.90083333333332,333.5695725269379,None,333.5695725269379,None,333.5695725269379,None,333.5695725269379,None,333.5695725269379,None,333.5695725269379,None,333.5695725269379,None,1,1.3007129884081223,333.5695725269379,None,334.9033702637553,None,334.9033702637553,None,334.9033702637553,None,334.9033702637553,None,334.9033702637553,None,334.9033702637553,None,334.9033702637553,None,338.90492826597983,None,338.90492826597983,None,338.90492826597983,None,338.90492826597983,None,338.90492826597983,None,338.90492826597983,None,338.90492826597983,None,339.8886503585727,None,,,,,,,,,,,,,,,,,,,,,,,,,,,,,,,23757,2019_Oct_29_1440,Mmi_3levels,3.1.5,59.99105458035995,
,,,1,1,13.5,,,,,,,,,0,0,0,0,0,11,11,6,,,,,,,,,,,,,,,,,,,,,,,,,,,,,,,,,,,,,,,,,,,,,,,,,,,,,,,,,,,,True,False,False,0.18,-0.8200000000000001,-10.2,-3.72,13.5,9.78,4.89,gamble,lose,9.78,74.68083333333333,341.90611476675076,None,341.90611476675076,None,341.90611476675076,None,341.90611476675076,None,341.90611476675076,None,341.90611476675076,None,341.90611476675076,None,1,1.1006794540808187,341.90611476675076,None,343.03988632887376,None,343.03988632887376,None,343.03988632887376,None,343.03988632887376,None,343.03988632887376,None,343.03988632887376,None,343.03988632887376,None,347.02475140440947,None,347.02475140440947,None,347.02475140440947,None,347.02475140440947,None,347.02475140440947,None,347.02475140440947,None,347.02475140440947,None,356.5283899427741,None,348.02513442528834,None,349.02551648621557,None,0.2,7.502811379656123,352.0266249108845,None,None,352.0266249108845,None,,,,,,,,,,,,,,,,,,,,23757,2019_Oct_29_1440,Mmi_3levels,3.1.5,59.99105458035995,
,,,1,1,7.9,,,,,,,,,0,0,0,0,0,12,12,25,,,,,,,,,,,,,,,,,,,,,,,,,,,,,,,,,,,,,,,,,,,,,,,,,,,,,,,,,,,,True,True,True,0.2,-0.8,-11.0,22.200000000000003,7.9,-14.300000000000002,-3.200000000000001,gamble,win,7.9,82.58083333333333,358.5458213925958,None,358.5458213925958,None,358.5458213925958,None,358.5458213925958,None,358.5458213925958,None,358.5458213925958,None,358.5458213925958,None,1,1.084035164964007,358.5458213925958,None,359.6629515454588,None,359.6629515454588,None,359.6629515454588,None,359.6629515454588,None,359.6629515454588,None,359.6629515454588,None,359.6629515454588,None,363.6478406197948,None,363.6478406197948,None,363.6478406197948,None,363.6478406197948,None,363.6478406197948,None,363.6478406197948,None,363.6478406197948,None,364.6481846026236,None,,,,,,,,,,,,,,,,,,,,,,,,,,,,,,,23757,2019_Oct_29_1440,Mmi_3levels,3.1.5,59.99105458035995,
,,,1,1,1.1,,,,,,,,,0,0,0,0,0,13,13,8,,,,,,,,,,,,,,,,,,,,,,,,,,,,,,,,,,,,,,,,,,,,,,,,,,,,,,,,,,,,True,False,True,0.2,-0.8,-11.8,-3.7833333333333337,1.1,-2.6833333333333336,-0.7916666666666667,gamble,lose,-2.6833333333333336,79.8975,366.665645810961,None,366.665645810961,None,366.665645810961,None,366.665645810961,None,366.665645810961,None,366.665645810961,None,366.665645810961,None,1,1.5174548086561117,366.665645810961,None,368.2162413652295,None,368.2162413652295,None,368.2162413652295,None,368.2162413652295,None,368.2162413652295,None,368.2162413652295,None,368.2162413652295,None,372.20107956210813,None,372.20107956210813,None,372.20107956210813,None,372.20107956210813,None,372.20107956210813,None,372.20107956210813,None,372.20107956210813,None,373.2014955413415,None,,,,,,,,,,,,,,,,,,,,,,,,,,,,,,,23757,2019_Oct_29_1440,Mmi_3levels,3.1.5,59.99105458035995,
,,,1,1,2.7,,,,,,,,,0,0,0,0,0,14,14,2,,,,,,,,,,,,,,,,,,,,,,,,,,,,,,,,,,,,,,,,,,,,,,,,,,,,,,,,,,,,True,False,True,0.2,-0.8,-12.600000000000001,-3.8500000000000005,2.7,-1.1500000000000004,0.7749999999999999,gamble,lose,-1.1500000000000004,78.74749999999999,375.21886555423043,None,375.21886555423043,None,375.21886555423043,None,375.21886555423043,None,375.21886555423043,None,375.21886555423043,None,375.21886555423043,None,1,1.1841050494749652,375.21886555423043,None,376.43604063285056,None,376.43604063285056,None,376.43604063285056,None,376.43604063285056,None,376.43604063285056,None,376.43604063285056,None,376.43604063285056,None,380.42091210806757,None,380.42091210806757,None,380.42091210806757,None,380.42091210806757,None,380.42091210806757,None,380.42091210806757,None,380.42091210806757,None,389.9245644057446,None,381.4212973688336,None,382.4216784698092,None,0.18,7.502766261908619,385.42281953284873,None,None,385.42281953284873,None,,,,,,,,,,,,,,,,,,,,23757,2019_Oct_29_1440,Mmi_3levels,3.1.5,59.99105458035995,
,,,1,1,6.5,,,,,,,,,0,0,0,0,0,15,15,17,,,,,,,,,,,,,,,,,,,,,,,,,,,,,,,,,,,,,,,,,,,,,,,,,,,,,,,,,,,,True,True,False,0.18,-0.8200000000000001,-13.420000000000002,24.900000000000002,6.5,-18.400000000000002,-5.950000000000001,gamble,win,6.5,85.24749999999999,391.94201377467107,None,391.94201377467107,None,391.94201377467107,None,391.94201377467107,None,391.94201377467107,None,391.94201377467107,None,391.94201377467107,None,1,0.9839489612677426,391.94201377467107,None,392.9590996417446,None,392.9590996417446,None,392.9590996417446,None,392.9590996417446,None,392.9590996417446,None,392.9590996417446,None,392.9590996417446,None,396.94393527875036,None,396.94393527875036,None,396.94393527875036,None,396.94393527875036,None,396.94393527875036,None,396.94393527875036,None,396.94393527875036,None,397.9442434233679,None,,,,,,,,,,,,,,,,,,,,,,,,,,,,,,,23757,2019_Oct_29_1440,Mmi_3levels,3.1.5,59.99105458035995,
,,,1,1,12.3,,,,,,,,,0,0,0,0,0,16,16,26,,,,,,,,,,,,,,,,,,,,,,,,,,,,,,,,,,,,,,,,,,,,,,,,,,,,,,,,,,,,True,True,False,0.18,-0.8200000000000001,-14.240000000000002,25.720000000000002,12.3,-13.420000000000002,-0.5600000000000005,gamble,win,12.3,97.54749999999999,399.96176638862016,None,399.96176638862016,None,399.96176638862016,None,399.96176638862016,None,399.96176638862016,None,399.96176638862016,None,399.96176638862016,None,1,1.2674208903481485,399.96176638862016,None,401.26224994848235,None,401.26224994848235,None,401.26224994848235,None,401.26224994848235,None,401.26224994848235,None,401.26224994848235,None,401.26224994848235,None,405.26383994910975,None,405.26383994910975,None,405.26383994910975,None,405.26383994910975,None,405.26383994910975,None,405.26383994910975,None,405.26383994910975,None,414.75079260043276,None,406.24754924234185,None,407.2479105043076,None,0.14,7.502804020023177,410.2490701264178,None,None,410.2490701264178,None,,,,,,,,,,,,,,,,,,,,23757,2019_Oct_29_1440,Mmi_3levels,3.1.5,59.99105458035995,
,,,1,1,5.3,,,,,,,,,0,0,0,0,0,17,17,4,,,,,,,,,,,,,,,,,,,,,,,,,,,,,,,,,,,,,,,,,,,,,,,,,,,,,,,,,,,,True,True,False,0.14,-0.86,-15.100000000000001,27.14,5.3,-21.84,-8.27,gamble,win,5.3,102.84749999999998,416.76823332979075,None,416.76823332979075,None,416.76823332979075,None,416.76823332979075,None,416.76823332979075,None,416.76823332979075,None,416.76823332979075,None,1,1.9510267647438013,416.76823332979075,None,418.75235412248185,None,418.75235412248185,None,418.75235412248185,None,418.75235412248185,None,418.75235412248185,None,418.75235412248185,None,418.75235412248185,None,422.7538785263823,None,422.7538785263823,None,422.7538785263823,None,422.7538785263823,None,422.7538785263823,None,422.7538785263823,None,422.7538785263823,None,423.73750942352854,None,,,,,,,,,,,,,,,,,,,,,,,,,,,,,,,23757,2019_Oct_29_1440,Mmi_3levels,3.1.5,59.99105458035995,
,,,1,1,-1.5,,,,,,,,,0,0,0,0,0,18,18,7,,,,,,,,,,,,,,,,,,,,,,,,,,,,,,,,,,,,,,,,,,,,,,,,,,,,,,,,,,,,True,False,False,0.14,-0.86,-15.96,-4.34,-1.5,-5.84,-3.67,gamble,lose,-5.84,97.00749999999998,425.7550515878247,None,425.7550515878247,None,425.7550515878247,None,425.7550515878247,None,425.7550515878247,None,425.7550515878247,None,425.7550515878247,None,1,1.9843502212352178,425.7550515878247,None,427.77247247817286,None,427.77247247817286,None,427.77247247817286,None,427.77247247817286,None,427.77247247817286,None,427.77247247817286,None,427.77247247817286,None,431.774014481196,None,431.774014481196,None,431.774014481196,None,431.774014481196,None,431.774014481196,None,431.774014481196,None,431.774014481196,None,432.75770009560983,None,,,,,,,,,,,,,,,,,,,,,,,,,,,,,,,23757,2019_Oct_29_1440,Mmi_3levels,3.1.5,59.99105458035995,
,,,1,1,7.1,,,,,,,,,0,0,0,0,0,19,19,9,,,,,,,,,,,,,,,,,,,,,,,,,,,,,,,,,,,,,,,,,,,,,,,,,,,,,,,,,,,,True,False,False,0.14,-0.86,-16.82,-4.411666666666666,7.1,2.6883333333333335,1.3441666666666667,gamble,lose,2.6883333333333335,99.69583333333331,434.7751680236106,None,434.7751680236106,None,434.7751680236106,None,434.7751680236106,None,434.7751680236106,None,434.7751680236106,None,434.7751680236106,None,1,1.033979103762249,434.7751680236106,None,435.8422421152736,None,435.8422421152736,None,435.8422421152736,None,435.8422421152736,None,435.8422421152736,None,435.8422421152736,None,435.8422421152736,None,439.82710271103133,None,439.82710271103133,None,439.82710271103133,None,439.82710271103133,None,439.82710271103133,None,439.82710271103133,None,439.82710271103133,None,449.3307732477988,None,440.82749917124056,None,441.8278850719762,None,0.08,7.502771061668682,444.82902517506227,None,None,444.82902517506227,None,,,,,,,,,,,,,,,,,,,,23757,2019_Oct_29_1440,Mmi_3levels,3.1.5,59.99105458035995,
,,,1,1,10.1,,,,,,,,,0,0,0,0,0,20,20,20,,,,,,,,,,,,,,,,,,,,,,,,,,,,,,,,,,,,,,,,,,,,,,,,,,,,,,,,,,,,True,True,False,0.08,-0.92,-17.740000000000002,30.620000000000005,10.1,-20.520000000000003,-5.210000000000002,gamble,win,10.1,109.7958333333333,451.3482117372696,None,451.3482117372696,None,451.3482117372696,None,451.3482117372696,None,451.3482117372696,None,451.3482117372696,None,451.3482117372696,None,1,1.2007051807977405,451.3482117372696,None,452.5820179856619,None,452.5820179856619,None,452.5820179856619,None,452.5820179856619,None,452.5820179856619,None,452.5820179856619,None,452.5820179856619,None,456.5835619085883,None,456.5835619085883,None,456.5835619085883,None,456.5835619085883,None,456.5835619085883,None,456.5835619085883,None,456.5835619085883,None,457.567333278721,None,,,,,,,,,,,,,,,,,,,,,,,,,,,,,,,23757,2019_Oct_29_1440,Mmi_3levels,3.1.5,59.99105458035995,
,,,1,1,11.5,,,,,,,,,0,0,0,0,0,21,21,0,,,,,,,,,,,,,,,,,,,,,,,,,,,,,,,,,,,,,,,,,,,,,,,,,,,,,,,,,,,,True,False,True,0.08,-0.92,-18.660000000000004,-4.775,11.5,6.725,3.3625,gamble,lose,6.725,116.5208333333333,459.58474552950247,None,459.58474552950247,None,459.58474552950247,None,459.58474552950247,None,459.58474552950247,None,459.58474552950247,None,459.58474552950247,None,1,1.31738031637542,459.58474552950247,None,460.93523459308744,None,460.93523459308744,None,460.93523459308744,None,460.93523459308744,None,460.93523459308744,None,460.93523459308744,None,460.93523459308744,None,464.93670107988146,None,464.93670107988146,None,464.93670107988146,None,464.93670107988146,None,464.93670107988146,None,464.93670107988146,None,464.93670107988146,None,474.4237257276109,None,465.92049292899173,None,466.92087307001566,None,0.08,7.502760502195088,469.9220138130695,None,None,469.9220138130695,None,,,,,,,,,,,,,,,,,,,,23757,2019_Oct_29_1440,Mmi_3levels,3.1.5,59.99105458035995,
,,,1,1,3.3,,,,,,,,,0,0,0,0,0,22,22,10,,,,,,,,,,,,,,,,,,,,,,,,,,,,,,,,,,,,,,,,,,,,,,,,,,,,,,,,,,,,True,True,False,0.08,-0.92,-19.580000000000005,32.46000000000001,3.3,-29.160000000000007,-12.930000000000003,gamble,win,3.3,119.8208333333333,476.44119781540394,None,476.44119781540394,None,476.44119781540394,None,476.44119781540394,None,476.44119781540394,None,476.44119781540394,None,476.44119781540394,None,1,1.2007499785613618,476.44119781540394,None,477.67501846307823,None,477.67501846307823,None,477.67501846307823,None,477.67501846307823,None,477.67501846307823,None,477.67501846307823,None,477.67501846307823,None,481.67650094907185,None,481.67650094907185,None,481.67650094907185,None,481.67650094907185,None,481.67650094907185,None,481.67650094907185,None,481.67650094907185,None,482.6602604797954,None,,,,,,,,,,,,,,,,,,,,,,,,,,,,,,,23757,2019_Oct_29_1440,Mmi_3levels,3.1.5,59.99105458035995,
,,,1,1,4.1,,,,,,,,,0,0,0,0,0,23,23,3,,,,,,,,,,,,,,,,,,,,,,,,,,,,,,,,,,,,,,,,,,,,,,,,,,,,,,,,,,,,True,True,True,0.08,-0.92,-20.500000000000007,33.38000000000001,4.1,-29.28000000000001,-12.590000000000003,gamble,win,4.1,123.92083333333329,484.6777152884515,None,484.6777152884515,None,484.6777152884515,None,484.6777152884515,None,484.6777152884515,None,484.6777152884515,None,484.6777152884515,None,1,1.0506841898459243,484.6777152884515,None,485.76145958793677,None,485.76145958793677,None,485.76145958793677,None,485.76145958793677,None,485.76145958793677,None,485.76145958793677,None,485.76145958793677,None,489.76304382885064,None,489.76304382885064,None,489.76304382885064,None,489.76304382885064,None,489.76304382885064,None,489.76304382885064,None,489.76304382885064,None,499.24998848057476,None,490.7467006447023,None,491.74709870483093,None,0.16,7.502755702435024,494.74822952838076,None,None,494.74822952838076,None,,,,,,,,,,,,,,,,,,,,23757,2019_Oct_29_1440,Mmi_3levels,3.1.5,59.99105458035995,
,,,1,1,5.1,,,,,,,,,0,0,0,0,0,24,24,5,,,,,,,,,,,,,,,,,,,,,,,,,,,,,,,,,,,,,,,,,,,,,,,,,,,,,,,,,,,,True,True,False,0.16,-0.84,-21.340000000000007,33.10000000000001,5.1,-28.000000000000007,-11.450000000000003,gamble,win,5.1,129.0208333333333,501.2674317698056,None,501.2674317698056,None,501.2674317698056,None,501.2674317698056,None,501.2674317698056,None,501.2674317698056,None,501.2674317698056,None,1,0.6171387924314331,501.2674317698056,None,501.9176796294323,None,501.9176796294323,None,501.9176796294323,None,501.9176796294323,None,501.9176796294323,None,501.9176796294323,None,501.9176796294323,None,505.9191688350911,None,505.9191688350911,None,505.9191688350911,None,505.9191688350911,None,505.9191688350911,None,505.9191688350911,None,505.9191688350911,None,506.90291812632677,None,,,,,,,,,,,,,,,,,,,,,,,,,,,,,,,23757,2019_Oct_29_1440,Mmi_3levels,3.1.5,59.99105458035995,
,,,1,1,11.1,,,,,,,,,0,0,0,0,0,25,25,12,,,,,,,,,,,,,,,,,,,,,,,,,,,,,,,,,,,,,,,,,,,,,,,,,,,,,,,,,,,,True,False,True,0.16,-0.84,-22.180000000000007,-4.788333333333334,11.1,6.311666666666666,3.155833333333333,gamble,lose,6.311666666666666,135.33249999999995,508.920384774392,None,508.920384774392,None,508.920384774392,None,508.920384774392,None,508.920384774392,None,508.920384774392,None,508.920384774392,None,1,0.9839809596705891,508.920384774392,None,509.93747032147985,None,509.93747032147985,None,509.93747032147985,None,509.93747032147985,None,509.93747032147985,None,509.93747032147985,None,509.93747032147985,None,513.9222969989332,None,513.9222969989332,None,513.9222969989332,None,513.9222969989332,None,513.9222969989332,None,513.9222969989332,None,513.9222969989332,None,514.922689619334,None,,,,,,,,,,,,,,,,,,,,,,,,,,,,,,,23757,2019_Oct_29_1440,Mmi_3levels,3.1.5,59.99105458035995,
,,,1,1,8.9,,,,,,,,,0,0,0,0,0,26,26,14,,,,,,,,,,,,,,,,,,,,,,,,,,,,,,,,,,,,,,,,,,,,,,,,,,,,,,,,,,,,True,True,False,0.16,-0.84,-23.020000000000007,34.78000000000001,8.9,-25.88000000000001,-8.490000000000006,gamble,win,8.9,144.23249999999996,516.9401287487726,None,516.9401287487726,None,516.9401287487726,None,516.9401287487726,None,516.9401287487726,None,516.9401287487726,None,516.9401287487726,None,1,1.3839357139295316,516.9401287487726,None,518.3573418414944,None,518.3573418414944,None,518.3573418414944,None,518.3573418414944,None,518.3573418414944,None,518.3573418414944,None,518.3573418414944,None,522.3588873643421,None,522.3588873643421,None,522.3588873643421,None,522.3588873643421,None,522.3588873643421,None,522.3588873643421,None,522.3588873643421,None,531.8459068923275,None,523.3425972975419,None,524.3429758386446,None,0.14,7.502774901477096,527.3441514599581,None,None,527.3441514599581,None,,,,,,,,,,,,,,,,,,,,23757,2019_Oct_29_1440,Mmi_3levels,3.1.5,59.99105458035995,
,,,2,0,8.1,,,,,,,,,0,1,1,1,0,0,0,5,,,,,,,,,,,,,,,,,,,,,,,,,,,,,,,,,,,,,,,,,,,,,,,,,536.347604087603,None,0.19,7.401635310365236,539.3654156784487,None,4,539.3654156784487,None,543.7504342183238,None,False,True,False,0.19,0.19,0.19,-2.85,8.1,5.25,2.625,gamble,lose,5.25,149.48249999999996,546.7849540950901,None,546.7849540950901,None,546.7849540950901,None,546.7849540950901,None,546.7849540950901,None,546.7849540950901,None,546.7849540950901,None,1,1.0006687666154903,546.7849540950901,None,547.8186810514417,None,547.8186810514417,None,547.8186810514417,None,547.8186810514417,None,547.8186810514417,None,547.8186810514417,None,547.8186810514417,None,551.8035211682218,None,551.8035211682218,None,551.8035211682218,None,551.8035211682218,None,551.8035211682218,None,551.8035211682218,None,551.8035211682218,None,552.8039333076485,None,,,,,,,,,,,,533.846634536003,None,4,2.484669245312034,533.846634536003,None,4.368574560758134,,,,,,,,,,,,,23757,2019_Oct_29_1440,Mmi_3levels,3.1.5,59.99105458035995,
,,,2,0,9.7,,,,,,,,,0,1,1,1,0,1,1,6,,,,,,,,,,,,,,,,,,,,,,,,,,,,,,,,,,,,,,,,,,,,,,,,,,,,,,,,,,,,False,False,False,0.19,0.19,0.38,0.6966666666666667,2.425,1.728333333333333,0.8641666666666665,gamble,win,2.425,151.90749999999997,554.821380116704,None,554.821380116704,None,554.821380116704,None,554.821380116704,None,554.821380116704,None,554.821380116704,None,554.821380116704,None,1,1.134003230557937,554.821380116704,None,555.988500094074,None,555.988500094074,None,555.988500094074,None,555.988500094074,None,555.988500094074,None,555.988500094074,None,555.988500094074,None,559.9733610098174,None,559.9733610098174,None,559.9733610098174,None,559.9733610098174,None,559.9733610098174,None,559.9733610098174,None,559.9733610098174,None,569.4770033879904,None,560.9737561900893,None,561.9741251316718,None,0.08,7.502796980374114,564.9752223568994,None,None,564.9752223568994,None,,,,,,,,,,,,,,,,,,,,23757,2019_Oct_29_1440,Mmi_3levels,3.1.5,59.99105458035995,
,,,2,0,4.5,,,,,,,,,0,1,1,1,0,2,2,19,,,,,,,,,,,,,,,,,,,,,,,,,,,,,,,,,,,,,,,,,,,,,,,,,,,,,,,,,,,,False,True,False,0.08,0.08,0.46,-1.58,4.5,2.92,1.46,gamble,lose,2.92,154.82749999999996,571.4944527569169,None,571.4944527569169,None,571.4944527569169,None,571.4944527569169,None,571.4944527569169,None,571.4944527569169,None,571.4944527569169,None,1,1.2674189704466698,571.4944527569169,None,572.7949859143027,None,572.7949859143027,None,572.7949859143027,None,572.7949859143027,None,572.7949859143027,None,572.7949859143027,None,572.7949859143027,None,576.7798337106997,None,576.7798337106997,None,576.7798337106997,None,576.7798337106997,None,576.7798337106997,None,576.7798337106997,None,576.7798337106997,None,577.7801997724273,None,,,,,,,,,,,,,,,,,,,,,,,,,,,,,,,23757,2019_Oct_29_1440,Mmi_3levels,3.1.5,59.99105458035995,
,,,2,0,-0.9,,,,,,,,,0,1,1,1,0,3,3,11,,,,,,,,,,,,,,,,,,,,,,,,,,,,,,,,,,,,,,,,,,,,,,,,,,,,,,,,,,,,False,True,False,0.08,0.08,0.54,-1.6600000000000001,-0.9,-2.56,-1.73,gamble,lose,-2.56,152.26749999999996,579.7976616207307,None,579.7976616207307,None,579.7976616207307,None,579.7976616207307,None,579.7976616207307,None,579.7976616207307,None,579.7976616207307,None,1,1.6008957632839156,579.7976616207307,None,581.431573335858,None,581.431573335858,None,581.431573335858,None,581.431573335858,None,581.431573335858,None,581.431573335858,None,581.431573335858,None,585.4164851290607,None,585.4164851290607,None,585.4164851290607,None,585.4164851290607,None,585.4164851290607,None,585.4164851290607,None,585.4164851290607,None,594.9201505460842,None,586.4168694298769,None,587.4172338916833,None,0.12,7.50283889828097,590.4184037532832,None,None,590.4184037532832,None,,,,,,,,,,,,,,,,,,,,23757,2019_Oct_29_1440,Mmi_3levels,3.1.5,59.99105458035995,
,,,2,0,3.9,,,,,,,,,0,1,1,1,0,4,4,13,,,,,,,,,,,,,,,,,,,,,,,,,,,,,,,,,,,,,,,,,,,,,,,,,,,,,,,,,,,,False,True,False,0.12,0.12,0.66,-2.34,3.9,1.56,0.78,gamble,lose,1.56,153.82749999999996,596.9375947952667,None,596.9375947952667,None,596.9375947952667,None,596.9375947952667,None,596.9375947952667,None,596.9375947952667,None,596.9375947952667,None,1,1.1506894375834236,596.9375947952667,None,598.1213808206685,None,598.1213808206685,None,598.1213808206685,None,598.1213808206685,None,598.1213808206685,None,598.1213808206685,None,598.1213808206685,None,602.1062503759804,None,602.1062503759804,None,602.1062503759804,None,602.1062503759804,None,602.1062503759804,None,602.1062503759804,None,602.1062503759804,None,603.1066289170831,None,,,,,,,,,,,,,,,,,,,,,,,,,,,,,,,23757,2019_Oct_29_1440,Mmi_3levels,3.1.5,59.99105458035995,
,,,2,0,2.3,,,,,,,,,0,1,1,1,0,5,5,22,,,,,,,,,,,,,,,,,,,,,,,,,,,,,,,,,,,,,,,,,,,,,,,,,,,,,,,,,,,,False,True,False,0.12,0.12,0.78,-2.46,2.3,-0.16000000000000014,1.0699999999999998,gamble,lose,-0.16000000000000014,153.66749999999996,605.1240680465216,None,605.1240680465216,None,605.1240680465216,None,605.1240680465216,None,605.1240680465216,None,605.1240680465216,None,605.1240680465216,None,1,1.500827478692372,605.1240680465216,None,606.6579988326976,None,606.6579988326976,None,606.6579988326976,None,606.6579988326976,None,606.6579988326976,None,606.6579988326976,None,606.6579988326976,None,610.6595241965515,None,610.6595241965515,None,610.6595241965515,None,610.6595241965515,None,610.6595241965515,None,610.6595241965515,None,610.6595241965515,None,611.6432418093682,None,,,,,,,,,,,,,,,,,,,,,,,,,,,,,,,23757,2019_Oct_29_1440,Mmi_3levels,3.1.5,59.99105458035995,
,,,2,0,-1.3,,,,,,,,,0,1,1,1,0,6,6,10,,,,,,,,,,,,,,,,,,,,,,,,,,,,,,,,,,,,,,,,,,,,,,,,,,,,,,,,,,,,False,True,False,0.12,0.12,0.9,-2.58,-1.3,-3.88,-2.59,gamble,lose,-3.88,149.78749999999997,613.660695338087,None,613.660695338087,None,613.660695338087,None,613.660695338087,None,613.660695338087,None,613.660695338087,None,613.660695338087,None,1,2.4177625052943768,613.660695338087,None,616.1115605108989,None,616.1115605108989,None,616.1115605108989,None,616.1115605108989,None,616.1115605108989,None,616.1115605108989,None,616.1115605108989,None,620.1131764302318,None,620.1131764302318,None,620.1131764302318,None,620.1131764302318,None,620.1131764302318,None,620.1131764302318,None,620.1131764302318,None,629.6001108424662,None,621.0968898832562,None,622.0973119421869,None,0.07,7.502806259912177,625.0984187669346,None,None,625.0984187669346,None,,,,,,,,,,,,,,,,,,,,23757,2019_Oct_29_1440,Mmi_3levels,3.1.5,59.99105458035995,
,,,2,0,8.3,,,,,,,,,0,1,1,1,0,7,7,16,,,,,,,,,,,,,,,,,,,,,,,,,,,,,,,,,,,,,,,,,,,,,,,,,,,,,,,,,,,,False,True,False,0.07,0.07,0.97,-1.9500000000000002,8.3,6.3500000000000005,3.1750000000000003,gamble,lose,6.3500000000000005,156.13749999999996,631.6176050091563,None,631.6176050091563,None,631.6176050091563,None,631.6176050091563,None,631.6176050091563,None,631.6176050091563,None,631.6176050091563,None,1,1.0173373745183198,631.6176050091563,None,632.6680085730113,None,632.6680085730113,None,632.6680085730113,None,632.6680085730113,None,632.6680085730113,None,632.6680085730113,None,632.6680085730113,None,636.6528778083393,None,636.6528778083393,None,636.6528778083393,None,636.6528778083393,None,636.6528778083393,None,636.6528778083393,None,636.6528778083393,None,637.6532592292988,None,,,,,,,,,,,,,,,,,,,,,,,,,,,,,,,23757,2019_Oct_29_1440,Mmi_3levels,3.1.5,59.99105458035995,
,,,2,0,13.1,,,,,,,,,0,1,1,1,0,8,8,17,,,,,,,,,,,,,,,,,,,,,,,,,,,,,,,,,,,,,,,,,,,,,,,,,,,,,,,,,,,,False,True,False,0.07,0.07,1.04,-2.02,13.1,11.08,5.54,gamble,lose,11.08,167.21749999999997,639.6707053983864,None,639.6707053983864,None,639.6707053983864,None,639.6707053983864,None,639.6707053983864,None,639.6707053983864,None,639.6707053983864,None,1,0.9005768032056949,639.6707053983864,None,640.6043871089951,None,640.6043871089951,None,640.6043871089951,None,640.6043871089951,None,640.6043871089951,None,640.6043871089951,None,640.6043871089951,None,644.6059879890781,None,644.6059879890781,None,644.6059879890781,None,644.6059879890781,None,644.6059879890781,None,644.6059879890781,None,644.6059879890781,None,654.0929249611854,None,645.5896460848671,None,646.5900358254112,None,0.08,7.502745782931015,649.5911676089127,None,None,649.5911676089127,None,,,,,,,,,,,,,,,,,,,,23757,2019_Oct_29_1440,Mmi_3levels,3.1.5,59.99105458035995,
,,,2,0,5.9,,,,,,,,,0,1,1,1,0,9,9,9,,,,,,,,,,,,,,,,,,,,,,,,,,,,,,,,,,,,,,,,,,,,,,,,,,,,,,,,,,,,False,True,True,0.08,0.08,1.12,-2.24,5.9,3.66,1.83,gamble,lose,3.66,170.87749999999997,656.1103628106885,None,656.1103628106885,None,656.1103628106885,None,656.1103628106885,None,656.1103628106885,None,656.1103628106885,None,656.1103628106885,None,1,1.3007539463633293,656.1103628106885,None,657.4441355887502,None,657.4441355887502,None,657.4441355887502,None,657.4441355887502,None,657.4441355887502,None,657.4441355887502,None,657.4441355887502,None,661.4291011392706,None,661.4291011392706,None,661.4291011392706,None,661.4291011392706,None,661.4291011392706,None,661.4291011392706,None,661.4291011392706,None,662.4294380824504,None,,,,,,,,,,,,,,,,,,,,,,,,,,,,,,,23757,2019_Oct_29_1440,Mmi_3levels,3.1.5,59.99105458035995,
,,,2,0,6.9,,,,,,,,,0,1,1,1,0,10,10,2,,,,,,,,,,,,,,,,,,,,,,,,,,,,,,,,,,,,,,,,,,,,,,,,,,,,,,,,,,,,False,True,False,0.08,0.08,1.2000000000000002,-2.3200000000000003,6.9,4.58,2.29,gamble,lose,4.58,175.45749999999998,664.4469066504189,None,664.4469066504189,None,664.4469066504189,None,664.4469066504189,None,664.4469066504189,None,664.4469066504189,None,664.4469066504189,None,1,0.8672920647804858,664.4469066504189,None,665.3472303462604,None,665.3472303462604,None,665.3472303462604,None,665.3472303462604,None,665.3472303462604,None,665.3472303462604,None,665.3472303462604,None,669.3321235803905,None,669.3321235803905,None,669.3321235803905,None,669.3321235803905,None,669.3321235803905,None,669.3321235803905,None,669.3321235803905,None,670.3324966817654,None,,,,,,,,,,,,,,,,,,,,,,,,,,,,,,,23757,2019_Oct_29_1440,Mmi_3levels,3.1.5,59.99105458035995,
,,,2,0,3.5,,,,,,,,,0,1,1,1,0,11,11,21,,,,,,,,,,,,,,,,,,,,,,,,,,,,,,,,,,,,,,,,,,,,,,,,,,,,,,,,,,,,False,False,False,0.08,0.08,1.2800000000000002,0.3866666666666667,0.875,0.4883333333333333,0.6816666666666666,gamble,win,0.875,176.33249999999998,672.3499460506919,None,672.3499460506919,None,672.3499460506919,None,672.3499460506919,None,672.3499460506919,None,672.3499460506919,None,672.3499460506919,None,1,1.017354333673211,672.3499460506919,None,673.4003563342103,None,673.4003563342103,None,673.4003563342103,None,673.4003563342103,None,673.4003563342103,None,673.4003563342103,None,673.4003563342103,None,677.385257887925,None,677.385257887925,None,677.385257887925,None,677.385257887925,None,677.385257887925,None,677.385257887925,None,677.385257887925,None,686.8888781871992,None,678.3856060305461,None,679.3859874515056,None,0.19,7.502847537849448,682.3870920363643,None,None,682.3870920363643,None,,,,,,,,,,,,,,,,,,,,23757,2019_Oct_29_1440,Mmi_3levels,3.1.5,59.99105458035995,
,,,2,0,2.7,,,,,,,,,0,1,1,1,0,12,12,12,,,,,,,,,,,,,,,,,,,,,,,,,,,,,,,,,,,,,,,,,,,,,,,,,,,,,,,,,,,,False,True,True,0.19,0.19,1.4700000000000002,-4.130000000000001,2.7,-1.4300000000000006,0.6349999999999998,gamble,lose,-1.4300000000000006,174.90249999999997,688.9063185965751,None,688.9063185965751,None,688.9063185965751,None,688.9063185965751,None,688.9063185965751,None,688.9063185965751,None,688.9063185965751,None,1,1.0840447644859523,688.9063185965751,None,690.0234218707792,None,690.0234218707792,None,690.0234218707792,None,690.0234218707792,None,690.0234218707792,None,690.0234218707792,None,690.0234218707792,None,694.0082827865226,None,694.0082827865226,None,694.0082827865226,None,694.0082827865226,None,694.0082827865226,None,694.0082827865226,None,694.0082827865226,None,695.0086754069234,None,,,,,,,,,,,,,,,,,,,,,,,,,,,,,,,23757,2019_Oct_29_1440,Mmi_3levels,3.1.5,59.99105458035995,
,,,2,0,2.5,,,,,,,,,0,1,1,1,0,13,13,20,,,,,,,,,,,,,,,,,,,,,,,,,,,,,,,,,,,,,,,,,,,,,,,,,,,,,,,,,,,,False,True,True,0.19,0.19,1.6600000000000001,-4.32,2.5,-1.8200000000000003,0.33999999999999986,gamble,lose,-1.8200000000000003,173.08249999999998,697.0261695736135,None,697.0261695736135,None,697.0261695736135,None,697.0261695736135,None,697.0261695736135,None,697.0261695736135,None,697.0261695736135,None,1,1.284043420553644,697.0261695736135,None,698.3432961426552,None,698.3432961426552,None,698.3432961426552,None,698.3432961426552,None,698.3432961426552,None,698.3432961426552,None,698.3432961426552,None,702.3281496987656,None,702.3281496987656,None,702.3281496987656,None,702.3281496987656,None,702.3281496987656,None,702.3281496987656,None,702.3281496987656,None,711.8318202355331,None,703.3285371994225,None,704.3289278999182,None,0.11,7.502766581892502,707.3300664030849,None,None,707.3300664030849,None,,,,,,,,,,,,,,,,,,,,23757,2019_Oct_29_1440,Mmi_3levels,3.1.5,59.99105458035995,
,,,2,0,12.1,,,,,,,,,0,1,1,1,0,14,14,0,,,,,,,,,,,,,,,,,,,,,,,,,,,,,,,,,,,,,,,,,,,,,,,,,,,,,,,,,,,,False,True,True,0.11,0.11,1.7700000000000002,-3.3100000000000005,12.1,8.79,4.395,gamble,lose,8.79,181.87249999999997,713.8492526453065,None,713.8492526453065,None,713.8492526453065,None,713.8492526453065,None,713.8492526453065,None,713.8492526453065,None,713.8492526453065,None,1,1.083813736016964,713.8492526453065,None,714.9663527196717,None,714.9663527196717,None,714.9663527196717,None,714.9663527196717,None,714.9663527196717,None,714.9663527196717,None,714.9663527196717,None,718.9512104355745,None,718.9512104355745,None,718.9512104355745,None,718.9512104355745,None,718.9512104355745,None,718.9512104355745,None,718.9512104355745,None,719.9515995361508,None,,,,,,,,,,,,,,,,,,,,,,,,,,,,,,,23757,2019_Oct_29_1440,Mmi_3levels,3.1.5,59.99105458035995,
,,,2,0,8.5,,,,,,,,,0,1,1,1,0,15,15,15,,,,,,,,,,,,,,,,,,,,,,,,,,,,,,,,,,,,,,,,,,,,,,,,,,,,,,,,,,,,False,True,True,0.11,0.11,1.8800000000000003,-3.4200000000000004,8.5,5.08,2.54,gamble,lose,5.08,186.9525,721.9690482651094,None,721.9690482651094,None,721.9690482651094,None,721.9690482651094,None,721.9690482651094,None,721.9690482651094,None,721.9690482651094,None,1,1.0673857561032492,721.9690482651094,None,723.0695306090311,None,723.0695306090311,None,723.0695306090311,None,723.0695306090311,None,723.0695306090311,None,723.0695306090311,None,723.0695306090311,None,727.0543326477127,None,727.0543326477127,None,727.0543326477127,None,727.0543326477127,None,727.0543326477127,None,727.0543326477127,None,727.0543326477127,None,736.5579897451516,None,728.054723988178,None,729.0551076490246,None,0.08,7.502812019623889,732.0562477521107,None,None,732.0562477521107,None,,,,,,,,,,,,,,,,,,,,23757,2019_Oct_29_1440,Mmi_3levels,3.1.5,59.99105458035995,
,,,2,0,9.1,,,,,,,,,0,1,1,1,0,16,16,14,,,,,,,,,,,,,,,,,,,,,,,,,,,,,,,,,,,,,,,,,,,,,,,,,,,,,,,,,,,,False,False,True,0.08,0.08,1.9600000000000004,0.44333333333333336,2.275,1.8316666666666666,0.9158333333333333,gamble,win,2.275,189.2275,738.5754407139993,None,738.5754407139993,None,738.5754407139993,None,738.5754407139993,None,738.5754407139993,None,738.5754407139993,None,738.5754407139993,None,1,0.7672496988943749,738.5754407139993,None,739.3757511625008,None,739.3757511625008,None,739.3757511625008,None,739.3757511625008,None,739.3757511625008,None,739.3757511625008,None,739.3757511625008,None,743.3772550874255,None,743.3772550874255,None,743.3772550874255,None,743.3772550874255,None,743.3772550874255,None,743.3772550874255,None,743.3772550874255,None,744.3609957390927,None,,,,,,,,,,,,,,,,,,,,,,,,,,,,,,,23757,2019_Oct_29_1440,Mmi_3levels,3.1.5,59.99105458035995,
,,,2,0,13.5,,,,,,,,,0,1,1,1,0,17,17,26,,,,,,,,,,,,,,,,,,,,,,,,,,,,,,,,,,,,,,,,,,,,,,,,,,,,,,,,,,,,False,False,True,0.08,0.08,2.0400000000000005,0.45000000000000007,3.375,2.925,1.4625,gamble,win,3.375,192.6025,746.3784396682913,None,746.3784396682913,None,746.3784396682913,None,746.3784396682913,None,746.3784396682913,None,746.3784396682913,None,746.3784396682913,None,1,1.217431705808849,746.3784396682913,None,747.6289234841388,None,747.6289234841388,None,747.6289234841388,None,747.6289234841388,None,747.6289234841388,None,747.6289234841388,None,747.6289234841388,None,751.6138167182689,None,751.6138167182689,None,751.6138167182689,None,751.6138167182689,None,751.6138167182689,None,751.6138167182689,None,751.6138167182689,None,752.6142304576151,None,,,,,,,,,,,,,,,,,,,,,,,,,,,,,,,23757,2019_Oct_29_1440,Mmi_3levels,3.1.5,59.99105458035995,
,,,2,0,13.9,,,,,,,,,0,1,1,1,0,18,18,23,,,,,,,,,,,,,,,,,,,,,,,,,,,,,,,,,,,,,,,,,,,,,,,,,,,,,,,,,,,,False,True,False,0.08,0.08,2.1200000000000006,-3.2400000000000007,13.9,10.66,5.33,gamble,lose,10.66,203.2625,754.6316590275801,None,754.6316590275801,None,754.6316590275801,None,754.6316590275801,None,754.6316590275801,None,754.6316590275801,None,754.6316590275801,None,1,0.7671658630806633,754.6316590275801,None,755.4318936398686,None,755.4318936398686,None,755.4318936398686,None,755.4318936398686,None,755.4318936398686,None,755.4318936398686,None,755.4318936398686,None,759.4333908451281,None,759.4333908451281,None,759.4333908451281,None,759.4333908451281,None,759.4333908451281,None,759.4333908451281,None,759.4333908451281,None,768.9204526110043,None,760.417183334208,None,761.4175660351029,None,0.23,7.502681466141439,764.4187474161281,None,None,764.4187474161281,None,,,,,,,,,,,,,,,,,,,,23757,2019_Oct_29_1440,Mmi_3levels,3.1.5,59.99105458035995,
,,,2,0,3.7,,,,,,,,,0,1,1,1,0,19,19,1,,,,,,,,,,,,,,,,,,,,,,,,,,,,,,,,,,,,,,,,,,,,,,,,,,,,,,,,,,,,False,True,True,0.23,0.23,2.3500000000000005,-5.57,3.7,-1.87,0.915,gamble,lose,-1.87,201.39249999999998,770.9378997400436,None,770.9378997400436,None,770.9378997400436,None,770.9378997400436,None,770.9378997400436,None,770.9378997400436,None,770.9378997400436,None,1,0.8839792317576212,770.9378997400436,None,771.8549099628945,None,771.8549099628945,None,771.8549099628945,None,771.8549099628945,None,771.8549099628945,None,771.8549099628945,None,771.8549099628945,None,775.8397795182063,None,775.8397795182063,None,775.8397795182063,None,775.8397795182063,None,775.8397795182063,None,775.8397795182063,None,775.8397795182063,None,776.8401724585892,None,,,,,,,,,,,,,,,,,,,,,,,,,,,,,,,23757,2019_Oct_29_1440,Mmi_3levels,3.1.5,59.99105458035995,
,,,2,0,11.1,,,,,,,,,0,1,1,1,0,20,20,24,,,,,,,,,,,,,,,,,,,,,,,,,,,,,,,,,,,,,,,,,,,,,,,,,,,,,,,,,,,,False,True,True,0.23,0.23,2.5800000000000005,-5.800000000000001,11.1,5.299999999999999,2.6499999999999995,gamble,lose,5.299999999999999,206.6925,778.8576058283161,None,778.8576058283161,None,778.8576058283161,None,778.8576058283161,None,778.8576058283161,None,778.8576058283161,None,778.8576058283161,None,1,0.9172639701828302,778.8576058283161,None,779.8079718260451,None,779.8079718260451,None,779.8079718260451,None,779.8079718260451,None,779.8079718260451,None,779.8079718260451,None,779.8079718260451,None,783.7928433012621,None,783.7928433012621,None,783.7928433012621,None,783.7928433012621,None,783.7928433012621,None,783.7928433012621,None,783.7928433012621,None,793.2964933590501,None,784.7932276020765,None,785.7936154227173,None,0.18,7.50272850379406,788.7947548858356,None,None,788.7947548858356,None,,,,,,,,,,,,,,,,,,,,23757,2019_Oct_29_1440,Mmi_3levels,3.1.5,59.99105458035995,
,,,2,0,0.3,,,,,,,,,0,1,1,1,0,21,21,4,,,,,,,,,,,,,,,,,,,,,,,,,,,,,,,,,,,,,,,,,,,,,,,,,,,,,,,,,,,,False,False,False,0.18,0.18,2.7600000000000007,0.8600000000000001,0.075,-0.7850000000000001,-0.3550000000000001,gamble,win,0.075,206.76749999999998,795.31393408841,None,795.31393408841,None,795.31393408841,None,795.31393408841,None,795.31393408841,None,795.31393408841,None,795.31393408841,None,1,1.1173269430382788,795.31393408841,None,796.4643185812147,None,796.4643185812147,None,796.4643185812147,None,796.4643185812147,None,796.4643185812147,None,796.4643185812147,None,796.4643185812147,None,800.4659249010274,None,800.4659249010274,None,800.4659249010274,None,800.4659249010274,None,800.4659249010274,None,800.4659249010274,None,800.4659249010274,None,801.4496773921037,None,,,,,,,,,,,,,,,,,,,,,,,,,,,,,,,23757,2019_Oct_29_1440,Mmi_3levels,3.1.5,59.99105458035995,
,,,2,0,4.1,,,,,,,,,0,1,1,1,0,22,22,3,,,,,,,,,,,,,,,,,,,,,,,,,,,,,,,,,,,,,,,,,,,,,,,,,,,,,,,,,,,,False,True,True,0.18,0.18,2.940000000000001,-5.460000000000001,4.1,-1.3600000000000012,1.3699999999999992,gamble,lose,-1.3600000000000012,205.40749999999997,803.4670842031555,None,803.4670842031555,None,803.4670842031555,None,803.4670842031555,None,803.4670842031555,None,803.4670842031555,None,803.4670842031555,None,1,0.950602785909723,803.4670842031555,None,804.4508133353975,None,804.4508133353975,None,804.4508133353975,None,804.4508133353975,None,804.4508133353975,None,804.4508133353975,None,804.4508133353975,None,808.4356640116512,None,808.4356640116512,None,808.4356640116512,None,808.4356640116512,None,808.4356640116512,None,808.4356640116512,None,808.4356640116512,None,817.9393147094088,None,809.4360355131066,None,810.436436453092,None,0.22,7.502763382051853,813.4375416779185,None,None,813.4375416779185,None,,,,,,,,,,,,,,,,,,,,23757,2019_Oct_29_1440,Mmi_3levels,3.1.5,59.99105458035995,
,,,2,0,10.7,,,,,,,,,0,1,1,1,0,23,23,25,,,,,,,,,,,,,,,,,,,,,,,,,,,,,,,,,,,,,,,,,,,,,,,,,,,,,,,,,,,,False,False,False,0.22,0.22,3.160000000000001,1.0333333333333334,2.675,1.6416666666666664,0.8208333333333332,gamble,win,2.675,208.08249999999998,819.9567602385287,None,819.9567602385287,None,819.9567602385287,None,819.9567602385287,None,819.9567602385287,None,819.9567602385287,None,819.9567602385287,None,1,1.183873061056147,819.9567602385287,None,821.173895959113,None,821.173895959113,None,821.173895959113,None,821.173895959113,None,821.173895959113,None,821.173895959113,None,821.173895959113,None,825.1754370021845,None,825.1754370021845,None,825.1754370021845,None,825.1754370021845,None,825.1754370021845,None,825.1754370021845,None,825.1754370021845,None,826.1591437355437,None,,,,,,,,,,,,,,,,,,,,,,,,,,,,,,,23757,2019_Oct_29_1440,Mmi_3levels,3.1.5,59.99105458035995,
,,,2,0,1.9,,,,,,,,,0,1,1,1,0,24,24,8,,,,,,,,,,,,,,,,,,,,,,,,,,,,,,,,,,,,,,,,,,,,,,,,,,,,,,,,,,,,False,True,True,0.22,0.22,3.3800000000000012,-6.460000000000001,1.9,-4.5600000000000005,-1.3300000000000003,gamble,lose,-4.5600000000000005,203.52249999999998,828.176653901437,None,828.176653901437,None,828.176653901437,None,828.176653901437,None,828.176653901437,None,828.176653901437,None,828.176653901437,None,1,0.8338809326633054,828.176653901437,None,829.0435975036125,None,829.0435975036125,None,829.0435975036125,None,829.0435975036125,None,829.0435975036125,None,829.0435975036125,None,829.0435975036125,None,833.0285051370229,None,833.0285051370229,None,833.0285051370229,None,833.0285051370229,None,833.0285051370229,None,833.0285051370229,None,833.0285051370229,None,834.0288964774863,None,,,,,,,,,,,,,,,,,,,,,,,,,,,,,,,23757,2019_Oct_29_1440,Mmi_3levels,3.1.5,59.99105458035995,
,,,2,0,11.7,,,,,,,,,0,1,1,1,0,25,25,18,,,,,,,,,,,,,,,,,,,,,,,,,,,,,,,,,,,,,,,,,,,,,,,,,,,,,,,,,,,,False,False,True,0.22,0.22,3.6000000000000014,1.07,2.925,1.8549999999999998,0.9274999999999999,gamble,win,2.925,206.4475,836.0462968888587,None,836.0462968888587,None,836.0462968888587,None,836.0462968888587,None,836.0462968888587,None,836.0462968888587,None,836.0462968888587,None,1,1.0839983668010973,836.0462968888587,None,837.1633768042284,None,837.1633768042284,None,837.1633768042284,None,837.1633768042284,None,837.1633768042284,None,837.1633768042284,None,837.1633768042284,None,841.1649200871889,None,841.1649200871889,None,841.1649200871889,None,841.1649200871889,None,841.1649200871889,None,841.1649200871889,None,841.1649200871889,None,850.65191625634,None,842.148663618711,None,843.1489695234413,None,0.3,7.502801460152114,846.1501589040672,None,None,846.1501589040672,None,,,,,,,,,,,,,,,,,,,,23757,2019_Oct_29_1440,Mmi_3levels,3.1.5,59.99105458035995,
,,,2,0,4.3,,,,,,,,,0,1,1,1,0,26,26,7,,,,,,,,,,,,,,,,,,,,,,,,,,,,,,,,,,,,,,,,,,,,,,,,,,,,,,,,,,,,False,True,True,0.3,0.3,3.9000000000000012,-8.100000000000001,4.3,-3.8000000000000016,0.2499999999999991,gamble,lose,-3.8000000000000016,202.64749999999998,852.6693477061617,None,852.6693477061617,None,852.6693477061617,None,852.6693477061617,None,852.6693477061617,None,852.6693477061617,None,852.6693477061617,None,1,1.6507191960972705,852.6693477061617,None,854.353363800079,None,854.353363800079,None,854.353363800079,None,854.353363800079,None,854.353363800079,None,854.353363800079,None,854.353363800079,None,858.3381939973551,None,858.3381939973551,None,858.3381939973551,None,858.3381939973551,None,858.3381939973551,None,858.3381939973551,None,858.3381939973551,None,859.3385872577237,None,,,,,,,,,,,,,,,,,,,,,,,,,,,,,,,23757,2019_Oct_29_1440,Mmi_3levels,3.1.5,59.99105458035995,
,,,3,1,-1.3,,,,,,,,,0,2,2,2,0,0,0,16,,,,,,,,,,,,,,,,,,,,,,,,,,,,,,,,,,,,,,,,,,,,,,,,,870.5595730261139,None,0.28,4.950914130367892,873.5607089694076,None,4,873.5607089694076,None,875.5114253496449,None,True,True,True,0.28,-0.72,-0.72,10.8,-1.3,-12.100000000000001,-6.700000000000001,gamble,win,-1.3,201.34749999999997,878.5459833045134,None,878.5459833045134,None,878.5459833045134,None,878.5459833045134,None,878.5459833045134,None,878.5459833045134,None,878.5459833045134,None,1,1.867710923870618,878.5459833045134,None,880.4466314641559,None,880.4466314641559,None,880.4466314641559,None,880.4466314641559,None,880.4466314641559,None,880.4466314641559,None,880.4466314641559,None,884.4482883414457,None,884.4482883414457,None,884.4482883414457,None,884.4482883414457,None,884.4482883414457,None,884.4482883414457,None,884.4482883414457,None,893.935225953519,None,885.4319624364343,None,886.4323320179847,None,0.18,7.502796980374114,889.4334321230672,None,None,889.4334321230672,None,861.3393414600741,None,4,9.203758788360574,861.3393414600741,None,1.9341677663451264,,,,,,,,,,,,,23757,2019_Oct_29_1440,Mmi_3levels,3.1.5,59.99105458035995,
,,,3,1,10.7,,,,,,,,,0,2,2,2,0,1,1,12,,,,,,,,,,,,,,,,,,,,,,,,,,,,,,,,,,,,,,,,,,,,,,,,,,,,,,,,,,,,True,True,False,0.18,-0.8200000000000001,-1.54,13.02,10.7,-2.3200000000000003,-1.1600000000000001,gamble,win,10.7,212.04749999999996,895.9526772423505,None,895.9526772423505,None,895.9526772423505,None,895.9526772423505,None,895.9526772423505,None,895.9526772423505,None,895.9526772423505,None,1,1.1007047328184854,895.9526772423505,None,897.0864452846508,None,897.0864452846508,None,897.0864452846508,None,897.0864452846508,None,897.0864452846508,None,897.0864452846508,None,897.0864452846508,None,901.0879847278011,None,901.0879847278011,None,901.0879847278011,None,901.0879847278011,None,901.0879847278011,None,901.0879847278011,None,901.0879847278011,None,902.0716985008094,None,,,,,,,,,,,,,,,,,,,,,,,,,,,,,,,23757,2019_Oct_29_1440,Mmi_3levels,3.1.5,59.99105458035995,
,,,3,1,0.3,,,,,,,,,0,2,2,2,0,2,2,18,,,,,,,,,,,,,,,,,,,,,,,,,,,,,,,,,,,,,,,,,,,,,,,,,,,,,,,,,,,,True,True,True,0.18,-0.8200000000000001,-2.3600000000000003,13.84,0.3,-13.54,-6.619999999999999,gamble,win,0.3,212.34749999999997,904.0891734684592,None,904.0891734684592,None,904.0891734684592,None,904.0891734684592,None,904.0891734684592,None,904.0891734684592,None,904.0891734684592,None,1,1.1173000643811974,904.0891734684592,None,905.2395819600679,None,905.2395819600679,None,905.2395819600679,None,905.2395819600679,None,905.2395819600679,None,905.2395819600679,None,905.2395819600679,None,909.2411246030588,None,909.2411246030588,None,909.2411246030588,None,909.2411246030588,None,909.2411246030588,None,909.2411246030588,None,909.2411246030588,None,910.2248361361799,None,,,,,,,,,,,,,,,,,,,,,,,,,,,,,,,23757,2019_Oct_29_1440,Mmi_3levels,3.1.5,59.99105458035995,
,,,3,1,-0.5,,,,,,,,,0,2,2,2,0,3,3,14,,,,,,,,,,,,,,,,,,,,,,,,,,,,,,,,,,,,,,,,,,,,,,,,,,,,,,,,,,,,True,True,False,0.18,-0.8200000000000001,-3.1800000000000006,14.66,-0.5,-15.16,-7.83,gamble,win,-0.5,211.84749999999997,912.242276545554,None,912.242276545554,None,912.242276545554,None,912.242276545554,None,912.242276545554,None,912.242276545554,None,912.242276545554,None,1,0.9006260807454964,912.242276545554,None,913.1759649758278,None,913.1759649758278,None,913.1759649758278,None,913.1759649758278,None,913.1759649758278,None,913.1759649758278,None,913.1759649758278,None,917.1775053789315,None,917.1775053789315,None,917.1775053789315,None,917.1775053789315,None,917.1775053789315,None,917.1775053789315,None,917.1775053789315,None,926.6644929085123,None,918.1611513153257,None,919.1616066525949,None,0.14,7.502823539047313,922.1627457957293,None,None,922.1627457957293,None,,,,,,,,,,,,,,,,,,,,23757,2019_Oct_29_1440,Mmi_3levels,3.1.5,59.99105458035995,
,,,3,1,12.1,,,,,,,,,0,2,2,2,0,4,4,10,,,,,,,,,,,,,,,,,,,,,,,,,,,,,,,,,,,,,,,,,,,,,,,,,,,,,,,,,,,,True,False,True,0.14,-0.86,-4.040000000000001,-3.3466666666666667,12.1,8.753333333333334,4.376666666666667,gamble,lose,8.753333333333334,220.6008333333333,928.6819448373135,None,928.6819448373135,None,928.6819448373135,None,928.6819448373135,None,928.6819448373135,None,928.6819448373135,None,928.6819448373135,None,1,1.033973024066654,928.6819448373135,None,929.7490237287348,None,929.7490237287348,None,929.7490237287348,None,929.7490237287348,None,929.7490237287348,None,929.7490237287348,None,929.7490237287348,None,933.7338830445569,None,933.7338830445569,None,933.7338830445569,None,933.7338830445569,None,933.7338830445569,None,933.7338830445569,None,933.7338830445569,None,934.7342731050849,None,,,,,,,,,,,,,,,,,,,,,,,,,,,,,,,23757,2019_Oct_29_1440,Mmi_3levels,3.1.5,59.99105458035995,
,,,3,1,5.3,,,,,,,,,0,2,2,2,0,5,5,1,,,,,,,,,,,,,,,,,,,,,,,,,,,,,,,,,,,,,,,,,,,,,,,,,,,,,,,,,,,,True,True,True,0.14,-0.86,-4.900000000000001,16.94,5.3,-11.64,-3.1700000000000004,gamble,win,5.3,225.9008333333333,936.751715754348,None,936.751715754348,None,936.751715754348,None,936.751715754348,None,936.751715754348,None,936.751715754348,None,936.751715754348,None,1,1.1673561255811364,936.751715754348,None,937.9521633480053,None,937.9521633480053,None,937.9521633480053,None,937.9521633480053,None,937.9521633480053,None,937.9521633480053,None,937.9521633480053,None,941.9537184703731,None,941.9537184703731,None,941.9537184703731,None,941.9537184703731,None,941.9537184703731,None,941.9537184703731,None,941.9537184703731,None,951.4407376783747,None,942.9374277636052,None,943.9378104645002,None,0.13,7.502814579496771,946.9389240089131,None,None,946.9389240089131,None,,,,,,,,,,,,,,,,,,,,23757,2019_Oct_29_1440,Mmi_3levels,3.1.5,59.99105458035995,
,,,3,1,3.9,,,,,,,,,0,2,2,2,0,6,6,24,,,,,,,,,,,,,,,,,,,,,,,,,,,,,,,,,,,,,,,,,,,,,,,,,,,,,,,,,,,,True,False,True,0.13,-0.87,-5.770000000000001,-3.5258333333333334,3.9,0.37416666666666654,0.18708333333333327,gamble,lose,0.37416666666666654,226.27499999999998,953.4581380897453,None,953.4581380897453,None,953.4581380897453,None,953.4581380897453,None,953.4581380897453,None,953.4581380897453,None,953.4581380897453,None,1,1.1674102028828202,953.4581380897453,None,954.6586042424751,None,954.6586042424751,None,954.6586042424751,None,954.6586042424751,None,954.6586042424751,None,954.6586042424751,None,954.6586042424751,None,958.6434705979464,None,958.6434705979464,None,958.6434705979464,None,958.6434705979464,None,958.6434705979464,None,958.6434705979464,None,958.6434705979464,None,959.6438532988432,None,,,,,,,,,,,,,,,,,,,,,,,,,,,,,,,23757,2019_Oct_29_1440,Mmi_3levels,3.1.5,59.99105458035995,
,,,3,1,12.7,,,,,,,,,0,2,2,2,0,7,7,17,,,,,,,,,,,,,,,,,,,,,,,,,,,,,,,,,,,,,,,,,,,,,,,,,,,,,,,,,,,,True,True,False,0.13,-0.87,-6.6400000000000015,18.82,12.7,-6.120000000000001,-3.0600000000000005,gamble,win,12.7,238.97499999999997,961.6613205868762,None,961.6613205868762,None,961.6613205868762,None,961.6613205868762,None,961.6613205868762,None,961.6613205868762,None,961.6613205868762,None,1,1.0839679683176655,961.6613205868762,None,962.778392822629,None,962.778392822629,None,962.778392822629,None,962.778392822629,None,962.778392822629,None,962.778392822629,None,962.778392822629,None,966.7799306658599,None,966.7799306658599,None,966.7799306658599,None,966.7799306658599,None,966.7799306658599,None,966.7799306658599,None,966.7799306658599,None,976.2669207553154,None,967.7636489186443,None,968.7640303396038,None,0.07,7.502779701237159,971.7651758824195,None,None,971.7651758824195,None,,,,,,,,,,,,,,,,,,,,23757,2019_Oct_29_1440,Mmi_3levels,3.1.5,59.99105458035995,
,,,3,1,11.7,,,,,,,,,0,2,2,2,0,8,8,25,,,,,,,,,,,,,,,,,,,,,,,,,,,,,,,,,,,,,,,,,,,,,,,,,,,,,,,,,,,,True,True,True,0.07,-0.9299999999999999,-7.570000000000001,20.59,11.7,-8.89,1.4049999999999994,gamble,win,11.7,250.67499999999995,978.284362444625,None,978.284362444625,None,978.284362444625,None,978.284362444625,None,978.284362444625,None,978.284362444625,None,978.284362444625,None,1,1.1840260134213167,978.284362444625,None,979.5015029649712,None,979.5015029649712,None,979.5015029649712,None,979.5015029649712,None,979.5015029649712,None,979.5015029649712,None,979.5015029649712,None,983.4863600409062,None,983.4863600409062,None,983.4863600409062,None,983.4863600409062,None,983.4863600409062,None,983.4863600409062,None,983.4863600409062,None,984.4867485015147,None,,,,,,,,,,,,,,,,,,,,,,,,,,,,,,,23757,2019_Oct_29_1440,Mmi_3levels,3.1.5,59.99105458035995,
,,,3,1,3.7,,,,,,,,,0,2,2,2,0,9,9,21,,,,,,,,,,,,,,,,,,,,,,,,,,,,,,,,,,,,,,,,,,,,,,,,,,,,,,,,,,,,True,False,True,0.07,-0.9299999999999999,-8.500000000000002,-3.9633333333333334,3.7,-0.2633333333333332,1.7183333333333335,gamble,lose,-0.2633333333333332,250.41166666666663,986.5041975504573,None,986.5041975504573,None,986.5041975504573,None,986.5041975504573,None,986.5041975504573,None,986.5041975504573,None,986.5041975504573,None,1,1.2841006976941571,986.5041975504573,None,987.8213679573109,None,987.8213679573109,None,987.8213679573109,None,987.8213679573109,None,987.8213679573109,None,987.8213679573109,None,987.8213679573109,None,991.8062314329254,None,991.8062314329254,None,991.8062314329254,None,991.8062314329254,None,991.8062314329254,None,991.8062314329254,None,991.8062314329254,None,992.8066189335823,None,,,,,,,,,,,,,,,,,,,,,,,,,,,,,,,23757,2019_Oct_29_1440,Mmi_3levels,3.1.5,59.99105458035995,
,,,3,1,0.9,,,,,,,,,0,2,2,2,0,10,10,8,,,,,,,,,,,,,,,,,,,,,,,,,,,,,,,,,,,,,,,,,,,,,,,,,,,,,,,,,,,,True,True,True,0.07,-0.9299999999999999,-9.430000000000001,22.450000000000003,0.9,-21.550000000000004,-10.325000000000003,gamble,win,0.9,251.31166666666664,994.824106380609,None,994.824106380609,None,994.824106380609,None,994.824106380609,None,994.824106380609,None,994.824106380609,None,994.824106380609,None,1,0.9505637478578137,994.824106380609,None,995.8077724759969,None,995.8077724759969,None,995.8077724759969,None,995.8077724759969,None,995.8077724759969,None,995.8077724759969,None,995.8077724759969,None,999.7926401114055,None,999.7926401114055,None,999.7926401114055,None,999.7926401114055,None,999.7926401114055,None,999.7926401114055,None,999.7926401114055,None,1009.2963048884594,None,1000.7930279320444,None,1001.7934157526852,None,0.04,7.50277746134816,1004.7945526559306,None,None,1004.7945526559306,None,,,,,,,,,,,,,,,,,,,,23757,2019_Oct_29_1440,Mmi_3levels,3.1.5,59.99105458035995,
,,,3,1,12.9,,,,,,,,,0,2,2,2,0,11,11,9,,,,,,,,,,,,,,,,,,,,,,,,,,,,,,,,,,,,,,,,,,,,,,,,,,,,,,,,,,,,True,True,True,0.04,-0.96,-10.39,23.83,12.9,-10.929999999999998,0.9850000000000012,gamble,win,12.9,264.21166666666664,1011.3137411380412,None,1011.3137411380412,None,1011.3137411380412,None,1011.3137411380412,None,1011.3137411380412,None,1011.3137411380412,None,1011.3137411380412,None,1,0.9673158715922909,1011.3137411380412,None,1012.314128958682,None,1012.314128958682,None,1012.314128958682,None,1012.314128958682,None,1012.314128958682,None,1012.314128958682,None,1012.314128958682,None,1016.3156645620238,None,1016.3156645620238,None,1016.3156645620238,None,1016.3156645620238,None,1016.3156645620238,None,1016.3156645620238,None,1016.3156645620238,None,1017.2993760951449,None,,,,,,,,,,,,,,,,,,,,,,,,,,,,,,,23757,2019_Oct_29_1440,Mmi_3levels,3.1.5,59.99105458035995,
,,,3,1,11.1,,,,,,,,,0,2,2,2,0,12,12,15,,,,,,,,,,,,,,,,,,,,,,,,,,,,,,,,,,,,,,,,,,,,,,,,,,,,,,,,,,,,True,True,True,0.04,-0.96,-11.350000000000001,24.79,11.1,-13.69,-1.295,gamble,win,11.1,275.31166666666667,1019.3168257840553,None,1019.3168257840553,None,1019.3168257840553,None,1019.3168257840553,None,1019.3168257840553,None,1019.3168257840553,None,1019.3168257840553,None,1,0.9340340130238474,1019.3168257840553,None,1020.2838984677874,None,1020.2838984677874,None,1020.2838984677874,None,1020.2838984677874,None,1020.2838984677874,None,1020.2838984677874,None,1020.2838984677874,None,1024.2853998328392,None,1024.2853998328392,None,1024.2853998328392,None,1024.2853998328392,None,1024.2853998328392,None,1024.2853998328392,None,1024.2853998328392,None,1033.7723886423573,None,1025.2690608084831,None,1026.2694787076216,None,0.05,7.50276978173315,1029.2706396096692,None,None,1029.2706396096692,None,,,,,,,,,,,,,,,,,,,,23757,2019_Oct_29_1440,Mmi_3levels,3.1.5,59.99105458035995,
,,,3,1,-1.5,,,,,,,,,0,2,2,2,0,13,13,4,,,,,,,,,,,,,,,,,,,,,,,,,,,,,,,,,,,,,,,,,,,,,,,,,,,,,,,,,,,,True,False,True,0.05,-0.95,-12.3,-4.35,-1.5,-5.85,-3.675,gamble,lose,-5.85,269.46166666666664,1035.7898287317494,None,1035.7898287317494,None,1035.7898287317494,None,1035.7898287317494,None,1035.7898287317494,None,1035.7898287317494,None,1035.7898287317494,None,1,1.4007774331894325,1035.7898287317494,None,1037.2237142721824,None,1037.2237142721824,None,1037.2237142721824,None,1037.2237142721824,None,1037.2237142721824,None,1037.2237142721824,None,1037.2237142721824,None,1041.2251810789603,None,1041.2251810789603,None,1041.2251810789603,None,1041.2251810789603,None,1041.2251810789603,None,1041.2251810789603,None,1041.2251810789603,None,1042.2089633285505,None,,,,,,,,,,,,,,,,,,,,,,,,,,,,,,,23757,2019_Oct_29_1440,Mmi_3levels,3.1.5,59.99105458035995,
,,,3,1,6.7,,,,,,,,,0,2,2,2,0,14,14,6,,,,,,,,,,,,,,,,,,,,,,,,,,,,,,,,,,,,,,,,,,,,,,,,,,,,,,,,,,,,True,False,False,0.05,-0.95,-13.25,-4.429166666666666,6.7,2.270833333333334,1.135416666666667,gamble,lose,2.270833333333334,271.73249999999996,1044.226329181647,None,1044.226329181647,None,1044.226329181647,None,1044.226329181647,None,1044.226329181647,None,1044.226329181647,None,1044.226329181647,None,1,1.2007944563392812,1044.226329181647,None,1045.460214466093,None,1045.460214466093,None,1045.460214466093,None,1045.460214466093,None,1045.460214466093,None,1045.460214466093,None,1045.460214466093,None,1049.4617670285897,None,1049.4617670285897,None,1049.4617670285897,None,1049.4617670285897,None,1049.4617670285897,None,1049.4617670285897,None,1049.4617670285897,None,1050.445468642205,None,,,,,,,,,,,,,,,,,,,,,,,,,,,,,,,23757,2019_Oct_29_1440,Mmi_3levels,3.1.5,59.99105458035995,
,,,3,1,8.7,,,,,,,,,0,2,2,2,0,15,15,13,,,,,,,,,,,,,,,,,,,,,,,,,,,,,,,,,,,,,,,,,,,,,,,,,,,,,,,,,,,,True,False,True,0.05,-0.95,-14.2,-4.508333333333333,8.7,4.191666666666666,2.095833333333333,gamble,lose,4.191666666666666,275.9241666666666,1052.46292185094,None,1052.46292185094,None,1052.46292185094,None,1052.46292185094,None,1052.46292185094,None,1052.46292185094,None,1052.46292185094,None,1,0.9672825932539126,1052.46292185094,None,1053.4632907925225,None,1053.4632907925225,None,1053.4632907925225,None,1053.4632907925225,None,1053.4632907925225,None,1053.4632907925225,None,1053.4632907925225,None,1057.4481520282498,None,1057.4481520282498,None,1057.4481520282498,None,1057.4481520282498,None,1057.4481520282498,None,1057.4481520282498,None,1057.4481520282498,None,1066.951820645112,None,1058.4485385689532,None,1059.4488793519413,None,0.05,7.502805299958709,1062.450073852313,None,None,1062.450073852313,None,,,,,,,,,,,,,,,,,,,,23757,2019_Oct_29_1440,Mmi_3levels,3.1.5,59.99105458035995,
,,,3,1,0.5,,,,,,,,,0,2,2,2,0,16,16,11,,,,,,,,,,,,,,,,,,,,,,,,,,,,,,,,,,,,,,,,,,,,,,,,,,,,,,,,,,,,True,True,True,0.05,-0.95,-15.149999999999999,28.449999999999996,0.5,-27.949999999999996,-13.724999999999998,gamble,win,0.5,276.4241666666666,1068.9692652142803,None,1068.9692652142803,None,1068.9692652142803,None,1068.9692652142803,None,1068.9692652142803,None,1068.9692652142803,None,1068.9692652142803,None,1,1.150686877710541,1068.9692652142803,None,1070.1530877178611,None,1070.1530877178611,None,1070.1530877178611,None,1070.1530877178611,None,1070.1530877178611,None,1070.1530877178611,None,1070.1530877178611,None,1074.1546319607714,None,1074.1546319607714,None,1074.1546319607714,None,1074.1546319607714,None,1074.1546319607714,None,1074.1546319607714,None,1074.1546319607714,None,1075.138308295649,None,,,,,,,,,,,,,,,,,,,,,,,,,,,,,,,23757,2019_Oct_29_1440,Mmi_3levels,3.1.5,59.99105458035995,
,,,3,1,0.1,,,,,,,,,0,2,2,2,0,17,17,3,,,,,,,,,,,,,,,,,,,,,,,,,,,,,,,,,,,,,,,,,,,,,,,,,,,,,,,,,,,,True,False,False,0.05,-0.95,-16.099999999999998,-4.666666666666666,0.1,-4.566666666666666,-2.2333333333333334,gamble,lose,-4.566666666666666,271.85749999999996,1077.1557474250876,None,1077.1557474250876,None,1077.1557474250876,None,1077.1557474250876,None,1077.1557474250876,None,1077.1557474250876,None,1077.1557474250876,None,1,1.5008297185813717,1077.1557474250876,None,1078.6896692517093,None,1078.6896692517093,None,1078.6896692517093,None,1078.6896692517093,None,1078.6896692517093,None,1078.6896692517093,None,1078.6896692517093,None,1082.6912109347486,None,1082.6912109347486,None,1082.6912109347486,None,1082.6912109347486,None,1082.6912109347486,None,1082.6912109347486,None,1082.6912109347486,None,1092.1782343025425,None,1083.674924387773,None,1084.6753074086537,None,0.0,7.502798580295348,1087.6764475117398,None,None,1087.6764475117398,None,,,,,,,,,,,,,,,,,,,,23757,2019_Oct_29_1440,Mmi_3levels,3.1.5,59.99105458035995,
,,,3,1,2.5,,,,,,,,,0,2,2,2,0,18,18,22,,,,,,,,,,,,,,,,,,,,,,,,,,,,,,,,,,,,,,,,,,,,,,,,,,,,,,,,,,,,True,True,False,0.0,-1.0,-17.099999999999998,31.099999999999998,2.5,-28.599999999999998,-13.049999999999999,gamble,win,2.5,274.35749999999996,1094.195651353084,None,1094.195651353084,None,1094.195651353084,None,1094.195651353084,None,1094.195651353084,None,1094.195651353084,None,1094.195651353084,None,1,1.3174459131005278,1094.195651353084,None,1095.5461634555195,None,1095.5461634555195,None,1095.5461634555195,None,1095.5461634555195,None,1095.5461634555195,None,1095.5461634555195,None,1095.5461634555195,None,1099.5476478614182,None,1099.5476478614182,None,1099.5476478614182,None,1099.5476478614182,None,1099.5476478614182,None,1099.5476478614182,None,1099.5476478614182,None,1100.5314112319502,None,,,,,,,,,,,,,,,,,,,,,,,,,,,,,,,23757,2019_Oct_29_1440,Mmi_3levels,3.1.5,59.99105458035995,
,,,3,1,13.7,,,,,,,,,0,2,2,2,0,19,19,2,,,,,,,,,,,,,,,,,,,,,,,,,,,,,,,,,,,,,,,,,,,,,,,,,,,,,,,,,,,,True,True,False,0.0,-1.0,-18.099999999999998,32.099999999999994,13.7,-18.399999999999995,-2.349999999999998,gamble,win,13.7,288.05749999999995,1102.5489194779384,None,1102.5489194779384,None,1102.5489194779384,None,1102.5489194779384,None,1102.5489194779384,None,1102.5489194779384,None,1102.5489194779384,None,1,1.6174878950041602,1102.5489194779384,None,1104.199549718478,None,1104.199549718478,None,1104.199549718478,None,1104.199549718478,None,1104.199549718478,None,1104.199549718478,None,1104.199549718478,None,1108.2010296445987,None,1108.2010296445987,None,1108.2010296445987,None,1108.2010296445987,None,1108.2010296445987,None,1108.2010296445987,None,1108.2010296445987,None,1117.688010774502,None,1109.1847469374316,None,1110.1851097993185,None,0.0,7.502844657994501,1113.186270701366,None,None,1113.186270701366,None,,,,,,,,,,,,,,,,,,,,23757,2019_Oct_29_1440,Mmi_3levels,3.1.5,59.99105458035995,
,,,3,1,12.5,,,,,,,,,0,2,2,2,0,20,20,19,,,,,,,,,,,,,,,,,,,,,,,,,,,,,,,,,,,,,,,,,,,,,,,,,,,,,,,,,,,,True,True,False,0.0,-1.0,-19.099999999999998,33.099999999999994,12.5,-20.599999999999994,-4.049999999999997,gamble,win,12.5,300.55749999999995,1119.7054531037793,None,1119.7054531037793,None,1119.7054531037793,None,1119.7054531037793,None,1119.7054531037793,None,1119.7054531037793,None,1119.7054531037793,None,1,1.100706332739719,1119.7054531037793,None,1120.8392291456803,None,1120.8392291456803,None,1120.8392291456803,None,1120.8392291456803,None,1120.8392291456803,None,1120.8392291456803,None,1120.8392291456803,None,1124.8406921126498,None,1124.8406921126498,None,1124.8406921126498,None,1124.8406921126498,None,1124.8406921126498,None,1124.8406921126498,None,1124.8406921126498,None,1125.8244785220322,None,,,,,,,,,,,,,,,,,,,,,,,,,,,,,,,23757,2019_Oct_29_1440,Mmi_3levels,3.1.5,59.99105458035995,
,,,3,1,3.1,,,,,,,,,0,2,2,2,0,21,21,26,,,,,,,,,,,,,,,,,,,,,,,,,,,,,,,,,,,,,,,,,,,,,,,,,,,,,,,,,,,,True,True,False,0.0,-1.0,-20.099999999999998,34.099999999999994,3.1,-30.999999999999993,-13.949999999999996,gamble,win,3.1,303.65749999999997,1127.841919891358,None,1127.841919891358,None,1127.841919891358,None,1127.841919891358,None,1127.841919891358,None,1127.841919891358,None,1127.841919891358,None,1,1.217263394211841,1127.841919891358,None,1129.09240242727,None,1129.09240242727,None,1129.09240242727,None,1129.09240242727,None,1129.09240242727,None,1129.09240242727,None,1129.09240242727,None,1133.0939389905652,None,1133.0939389905652,None,1133.0939389905652,None,1133.0939389905652,None,1133.0939389905652,None,1133.0939389905652,None,1133.0939389905652,None,1134.0776575633336,None,,,,,,,,,,,,,,,,,,,,,,,,,,,,,,,23757,2019_Oct_29_1440,Mmi_3levels,3.1.5,59.99105458035995,
,,,3,1,5.9,,,,,,,,,0,2,2,2,0,22,22,7,,,,,,,,,,,,,,,,,,,,,,,,,,,,,,,,,,,,,,,,,,,,,,,,,,,,,,,,,,,,True,True,False,0.0,-1.0,-21.099999999999998,35.099999999999994,5.9,-29.199999999999996,-11.649999999999999,gamble,win,5.9,309.55749999999995,1136.0950934929315,None,1136.0950934929315,None,1136.0950934929315,None,1136.0950934929315,None,1136.0950934929315,None,1136.0950934929315,None,1136.0950934929315,None,1,1.2840696592429595,1136.0950934929315,None,1137.4122734993052,None,1137.4122734993052,None,1137.4122734993052,None,1137.4122734993052,None,1137.4122734993052,None,1137.4122734993052,None,1137.4122734993052,None,1141.4138174222335,None,1141.4138174222335,None,1141.4138174222335,None,1141.4138174222335,None,1141.4138174222335,None,1141.4138174222335,None,1141.4138174222335,None,1150.9008043118483,None,1142.3975225556733,None,1143.39788157775,None,0.0,7.5027902607107535,1146.3990104813965,None,None,1146.3990104813965,None,,,,,,,,,,,,,,,,,,,,23757,2019_Oct_29_1440,Mmi_3levels,3.1.5,59.99105458035995,
,,,3,1,6.1,,,,,,,,,0,2,2,2,0,23,23,5,,,,,,,,,,,,,,,,,,,,,,,,,,,,,,,,,,,,,,,,,,,,,,,,,,,,,,,,,,,,True,True,False,0.0,-1.0,-22.099999999999998,36.099999999999994,6.1,-29.999999999999993,-11.949999999999996,gamble,win,6.1,315.65749999999997,1152.918214002757,None,1152.918214002757,None,1152.918214002757,None,1152.918214002757,None,1152.918214002757,None,1152.918214002757,None,1152.918214002757,None,1,1.0006905255286256,1152.918214002757,None,1153.9520148754164,None,1153.9520148754164,None,1153.9520148754164,None,1153.9520148754164,None,1153.9520148754164,None,1153.9520148754164,None,1153.9520148754164,None,1157.9535127206436,None,1157.9535127206436,None,1157.9535127206436,None,1157.9535127206436,None,1157.9535127206436,None,1157.9535127206436,None,1157.9535127206436,None,1158.9371743362572,None,,,,,,,,,,,,,,,,,,,,,,,,,,,,,,,23757,2019_Oct_29_1440,Mmi_3levels,3.1.5,59.99105458035995,
,,,3,1,2.3,,,,,,,,,0,2,2,2,0,24,24,20,,,,,,,,,,,,,,,,,,,,,,,,,,,,,,,,,,,,,,,,,,,,,,,,,,,,,,,,,,,,True,False,False,0.0,-1.0,-23.099999999999998,-5.425,2.3,-3.125,-0.4125000000000001,gamble,lose,-3.125,312.53249999999997,1160.9546659430744,None,1160.9546659430744,None,1160.9546659430744,None,1160.9546659430744,None,1160.9546659430744,None,1160.9546659430744,None,1160.9546659430744,None,1,1.0673758365992398,1160.9546659430744,None,1162.0551489269656,None,1162.0551489269656,None,1162.0551489269656,None,1162.0551489269656,None,1162.0551489269656,None,1162.0551489269656,None,1162.0551489269656,None,1166.0399794442255,None,1166.0399794442255,None,1166.0399794442255,None,1166.0399794442255,None,1166.0399794442255,None,1166.0399794442255,None,1166.0399794442255,None,1175.5602878704285,None,1167.0403387862862,None,1168.0407282068463,None,0.01,7.519402871408602,1171.0419134276817,None,None,1171.0419134276817,None,,,,,,,,,,,,,,,,,,,,23757,2019_Oct_29_1440,Mmi_3levels,3.1.5,59.99105458035995,
,,,3,1,11.5,,,,,,,,,0,2,2,2,0,25,25,23,,,,,,,,,,,,,,,,,,,,,,,,,,,,,,,,,,,,,,,,,,,,,,,,,,,,,,,,,,,,True,False,True,0.01,-0.99,-24.089999999999996,-5.4725,11.5,6.0275,3.01375,gamble,lose,6.0275,318.55999999999995,1177.5777340395161,None,1177.5777340395161,None,1177.5777340395161,None,1177.5777340395161,None,1177.5777340395161,None,1177.5777340395161,None,1177.5777340395161,None,1,1.0172928967385815,1177.5777340395161,None,1178.6281686418206,None,1178.6281686418206,None,1178.6281686418206,None,1178.6281686418206,None,1178.6281686418206,None,1178.6281686418206,None,1178.6281686418206,None,1182.6129975591612,None,1182.6129975591612,None,1182.6129975591612,None,1182.6129975591612,None,1182.6129975591612,None,1182.6129975591612,None,1182.6129975591612,None,1183.6133101835549,None,,,,,,,,,,,,,,,,,,,,,,,,,,,,,,,23757,2019_Oct_29_1440,Mmi_3levels,3.1.5,59.99105458035995,
,,,3,1,8.1,,,,,,,,,0,2,2,2,0,26,26,0,,,,,,,,,,,,,,,,,,,,,,,,,,,,,,,,,,,,,,,,,,,,,,,,,,,,,,,,,,,,True,True,True,0.01,-0.99,-25.079999999999995,38.94,8.1,-30.839999999999996,-11.369999999999997,gamble,win,8.1,326.65999999999997,1185.6308254691921,None,1185.6308254691921,None,1185.6308254691921,None,1185.6308254691921,None,1185.6308254691921,None,1185.6308254691921,None,1185.6308254691921,None,1,0.933943137557435,1185.6308254691921,None,1186.597869674344,None,1186.597869674344,None,1186.597869674344,None,1186.597869674344,None,1186.597869674344,None,1186.597869674344,None,1186.597869674344,None,1190.5993323213297,None,1190.5993323213297,None,1190.5993323213297,None,1190.5993323213297,None,1190.5993323213297,None,1190.5993323213297,None,1190.5993323213297,None,1200.0864372850501,None,1191.5830819325492,None,1192.583504311464,None,0.0,7.502804979974826,1195.5846476143906,None,None,1195.5846476143906,None,,,,,,,,,,,,,,,,,,,,23757,2019_Oct_29_1440,Mmi_3levels,3.1.5,59.99105458035995,
,,,,,,,,,,,,,,,,,,,,,,,,,,,,,,0,0,0,0,,,,,,,,,,,,,,,,,,,,,,,,,,,,,,,,,,,,,,,,,,,,,,,,,,,,,,,,,,,,,,,,,,,,,,,,,,,,,,,,,,,,,,,,,,,,,,,,,,,,,,,,,,,,,,,,,,,,,,,,,1202.0871233308026,None,4,21.425329167568634,1202.0871233308026,None,,326.65999999999997,6,1223.5454230124815,None,1223.5454230124815,None,1223.5454230124815,None,space,5.518992331903064,1223.5454230124815,None,23757,2019_Oct_29_1440,Mmi_3levels,3.1.5,59.99105458035995,
