currSlide,currImage,currText,blockNum,targetHappiness,highAmount,instructionLoop1.thisRepN,instructionLoop1.thisTrialN,instructionLoop1.thisN,instructionLoop1.thisIndex,instructionLoop2.thisRepN,instructionLoop2.thisTrialN,instructionLoop2.thisN,instructionLoop2.thisIndex,blockLoop.thisRepN,blockLoop.thisTrialN,blockLoop.thisN,blockLoop.thisIndex,trialLoop.thisRepN,trialLoop.thisTrialN,trialLoop.thisN,trialLoop.thisIndex,doRatingLoop.thisRepN,doRatingLoop.thisTrialN,doRatingLoop.thisN,doRatingLoop.thisIndex,trialHappyLoop.thisRepN,trialHappyLoop.thisTrialN,trialHappyLoop.thisN,trialHappyLoop.thisIndex,logWinningsLoop.thisRepN,logWinningsLoop.thisTrialN,logWinningsLoop.thisN,logWinningsLoop.thisIndex,instrImage.started,instrImage.stopped,instrText.started,instrText.stopped,instrContinueText.started,instrContinueText.stopped,instrKeyResp.keys,instrKeyResp.rt,instrKeyResp.started,instrKeyResp.stopped,lifeHappyText.started,lifeHappyText.stopped,lifeHappySlider.response,lifeHappySlider.rt,lifeHappySlider.started,lifeHappySlider.stopped,lifeHappyResp.keys,lifeHappyResp.started,lifeHappyResp.stopped,instrImage_2.started,instrImage_2.stopped,instrText_2.started,instrText_2.stopped,instrContinueText_2.started,instrContinueText_2.stopped,instrKeyResp_2.keys,instrKeyResp_2.rt,instrKeyResp_2.started,instrKeyResp_2.stopped,localizing.started,localizing.stopped,start_exp.keys,start_exp.rt,start_exp.started,start_exp.stopped,blockHappyText.started,blockHappyText.stopped,blockHappySlider.response,blockHappySlider.rt,blockHappySlider.started,blockHappySlider.stopped,blockHappyResp.keys,blockHappyResp.started,blockHappyResp.stopped,blankText.started,blankText.stopped,isHappyBlock,isCongruent,isWinOnTop,lastHappyRating,diff,sumDiff,RPE,winAmount,loseAmount,certainAmount,choice,outcome,outcomeAmount,currentWinnings,fixCross.started,fixCross.stopped,certainBox.started,certainBox.stopped,outcome1Box.started,outcome1Box.stopped,outcome2Box.started,outcome2Box.stopped,certainText.started,certainText.stopped,outcome1Text.started,outcome1Text.stopped,outcome2Text.started,outcome2Text.stopped,choiceKey.keys,choiceKey.started,choiceKey.stopped,fixCross_2.started,fixCross_2.stopped,certainBox_2.started,certainBox_2.stopped,outcome1Box_2.started,outcome1Box_2.stopped,outcome2Box_2.started,outcome2Box_2.stopped,certainText_2.started,certainText_2.stopped,outcome1Text_2.started,outcome1Text_2.stopped,outcome2Text_2.started,outcome2Text_2.stopped,fixCross_3.started,fixCross_3.stopped,certainBox_3.started,certainBox_3.stopped,outcome1Box_3.started,outcome1Box_3.stopped,outcome2Box_3.started,outcome2Box_3.stopped,certainText_3.started,certainText_3.stopped,outcome1Text_3.started,outcome1Text_3.stopped,outcome2Text_3.started,outcome2Text_3.stopped,fixCross_ITI.started,fixCross_ITI.stopped,choiceKey.rt,fixCross_ISI.started,fixCross_ISI.stopped,happyText.started,happyText.stopped,happySlider.response,happySlider.rt,happySlider.started,happySlider.stopped,happyResp.keys,happyResp.started,happyResp.stopped,endOfBlockText.started,endOfBlockText.stopped,restKeyResp.keys,restKeyResp.rt,restKeyResp.started,restKeyResp.stopped,blockHappyResp.rt,finalWinnings,cashBonus,participant,date,expName,psychopyVersion,frameRate,
1,black.png,"Welcome! You are about to play our gambling task.
This task has 3 blocks and takes about 15 minutes.",,,,0,0,0,0,,,,,,,,,,,,,,,,,,,,,,,,,97.6742316223681,None,97.6742316223681,None,97.6742316223681,None,4,3.3346156160114333,97.6742316223681,None,,,,,,,,,,,,,,,,,,,,,,,,,,,,,,,,,,,,,,,,,,,,,,,,,,,,,,,,,,,,,,,,,,,,,,,,,,,,,,,,,,,,,,,,,,,,,,,,,,,,,,,,,,,,,,,,,,,,,,,24232,2019_Nov_05_1502,Mmi_3levels,3.1.5,59.97574224581828,
2,black.png,"In this game, you may win or lose points. Your goal is to get as many points as possible. These points will be converted to a cash bonus at the end.
Sometimes we will ask you to rate your mood.",,,,0,1,1,1,,,,,,,,,,,,,,,,,,,,,,,,,101.0588201036444,None,101.0588201036444,None,101.0588201036444,None,4,2.3177908558864146,101.0588201036444,None,,,,,,,,,,,,,,,,,,,,,,,,,,,,,,,,,,,,,,,,,,,,,,,,,,,,,,,,,,,,,,,,,,,,,,,,,,,,,,,,,,,,,,,,,,,,,,,,,,,,,,,,,,,,,,,,,,,,,,,24232,2019_Nov_05_1502,Mmi_3levels,3.1.5,59.97574224581828,
3,black.png,"On the next screen, please rate how you feel about your life these days. Use the LEFT (green) and RIGHT (blue) buttons to move the slider (you can press and hold them to slide gradually) and the TOP (red) button to lock in your response.
Make your rating as accurately and quickly as you can!",,,,0,2,2,2,,,,,,,,,,,,,,,,,,,,,,,,,103.42637199547607,None,103.42637199547607,None,103.42637199547607,None,4,3.8351099913707003,103.42637199547607,None,,,,,,,,,,,,,,,,,,,,,,,,,,,,,,,,,,,,,,,,,,,,,,,,,,,,,,,,,,,,,,,,,,,,,,,,,,,,,,,,,,,,,,,,,,,,,,,,,,,,,,,,,,,,,,,,,,,,,,,24232,2019_Nov_05_1502,Mmi_3levels,3.1.5,59.97574224581828,
,,,,,,,,,,,,,,,,,,,,,,,,,,,,,,,,,,,,,,,,,,,,107.27786292904057,None,0.34,10.502797300345264,111.27939341263846,None,None,111.27939341263846,None,,,,,,,,,,,,,,,,,,,,,,,,,,,,,,,,,,,,,,,,,,,,,,,,,,,,,,,,,,,,,,,,,,,,,,,,,,,,,,,,,,,,,,,,,,,,,,,,,,,,,,,,,,,,,,24232,2019_Nov_05_1502,Mmi_3levels,3.1.5,59.97574224581828,
4,black.png,"In this game you can win money by earning points according to your choices. You will decide whether to gamble a number of points or stick with a guaranteed number of points. 
Make your choice by pressing the left or right arrow key once. An example of one trial is shown on the next screen.",,,,,,,,0,0,0,0,,,,,,,,,,,,,,,,,,,,,,,,,,,,,,,,,,,,,,,,117.81526874180418,None,117.81526874180418,None,117.81526874180418,None,4,8.303583885077387,117.81526874180418,None,,,,,,,,,,,,,,,,,,,,,,,,,,,,,,,,,,,,,,,,,,,,,,,,,,,,,,,,,,,,,,,,,,,,,,,,,,,,,,,,,,,,,,,,,,,,,,,,,,,,24232,2019_Nov_05_1502,Mmi_3levels,3.1.5,59.97574224581828,
5,example_start.png,"The GAMBLING OPTION will be shown on the RIGHT SIDE. 
Select this option using the RIGHT (blue) button on your keypad.",,,,,,,,0,1,1,1,,,,,,,,,,,,,,,,,,,,,,,,,,,,,,,,,,,,,,,,126.18513507803436,None,126.18513507803436,None,126.18513507803436,None,4,8.170080789597705,126.18513507803436,None,,,,,,,,,,,,,,,,,,,,,,,,,,,,,,,,,,,,,,,,,,,,,,,,,,,,,,,,,,,,,,,,,,,,,,,,,,,,,,,,,,,,,,,,,,,,,,,,,,,,24232,2019_Nov_05_1502,Mmi_3levels,3.1.5,59.97574224581828,
6,example_gamble.png,"Once you select the gambling choice, the choice you made will remain on the screen.",,,,,,,,0,2,2,2,,,,,,,,,,,,,,,,,,,,,,,,,,,,,,,,,,,,,,,,134.38829197641462,None,134.38829197641462,None,134.38829197641462,None,4,3.3015430269297212,134.38829197641462,None,,,,,,,,,,,,,,,,,,,,,,,,,,,,,,,,,,,,,,,,,,,,,,,,,,,,,,,,,,,,,,,,,,,,,,,,,,,,,,,,,,,,,,,,,,,,,,,,,,,,24232,2019_Nov_05_1502,Mmi_3levels,3.1.5,59.97574224581828,
7,example_win.png,"The outcome you received will then be shown on the screen. In this example , you WON 10 points.",,,,,,,,0,3,3,3,,,,,,,,,,,,,,,,,,,,,,,,,,,,,,,,,,,,,,,,137.7229021526873,None,137.7229021526873,None,137.7229021526873,None,4,3.518440679414198,137.7229021526873,None,,,,,,,,,,,,,,,,,,,,,,,,,,,,,,,,,,,,,,,,,,,,,,,,,,,,,,,,,,,,,,,,,,,,,,,,,,,,,,,,,,,,,,,,,,,,,,,,,,,,24232,2019_Nov_05_1502,Mmi_3levels,3.1.5,59.97574224581828,
8,example_start.png,"The GUARANTEED OPTION will be shown on the LEFT SIDE. You are 100% guaranteed to gain or lose this amount. In this example, you have a 100% chance of winning 1 point. Select this option using the LEFT (green) button on your keyboard.",,,,,,,,0,4,4,4,,,,,,,,,,,,,,,,,,,,,,,,,,,,,,,,,,,,,,,,141.29094131616876,None,141.29094131616876,None,141.29094131616876,None,4,9.020458818646148,141.29094131616876,None,,,,,,,,,,,,,,,,,,,,,,,,,,,,,,,,,,,,,,,,,,,,,,,,,,,,,,,,,,,,,,,,,,,,,,,,,,,,,,,,,,,,,,,,,,,,,,,,,,,,24232,2019_Nov_05_1502,Mmi_3levels,3.1.5,59.97574224581828,
9,example_certain.png,"Once you select the guaranteed choice, your selection will remain on the screen.",,,,,,,,0,5,5,5,,,,,,,,,,,,,,,,,,,,,,,,,,,,,,,,,,,,,,,,150.34444360539783,None,150.34444360539783,None,150.34444360539783,None,4,2.2844725191826,150.34444360539783,None,,,,,,,,,,,,,,,,,,,,,,,,,,,,,,,,,,,,,,,,,,,,,,,,,,,,,,,,,,,,,,,,,,,,,,,,,,,,,,,,,,,,,,,,,,,,,,,,,,,,24232,2019_Nov_05_1502,Mmi_3levels,3.1.5,59.97574224581828,
10,black.png,"Please make your choices as fast as possible.
You will be given a break at the end of each block.
Let's play!",,,,,,,,0,6,6,6,,,,,,,,,,,,,,,,,,,,,,,,,,,,,,,,,,,,,,,,152.66201111243572,None,152.66201111243572,None,152.66201111243572,None,4,3.5351137671386823,152.66201111243572,None,,,,,,,,,,,,,,,,,,,,,,,,,,,,,,,,,,,,,,,,,,,,,,,,,,,,,,,,,,,,,,,,,,,,,,,,,,,,,,,,,,,,,,,,,,,,,,,,,,,,24232,2019_Nov_05_1502,Mmi_3levels,3.1.5,59.97574224581828,
,,,,,,,,,,,,,,,,,,,,,,,,,,,,,,,,,,,,,,,,,,,,,,,,,,,,,,,,,,,,,,,156.2133730284404,None,space,74.0789016612107,156.2133730284404,None,,,,,,,,,,,,,,,,,,,,,,,,,,,,,,,,,,,,,,,,,,,,,,,,,,,,,,,,,,,,,,,,,,,,,,,,,,,,,,,,,,,,,,,,,,,,,,24232,2019_Nov_05_1502,Mmi_3levels,3.1.5,59.97574224581828,
,,,1,1,1.5,,,,,,,,,0,0,0,0,0,0,0,12,,,,,,,,,,,,,,,,,,,,,,,,,,,,,,,,,,,,,,,,,,,,,,,,230.30855099717155,None,0.5,7.495521503617056,233.32636386796366,None,None,233.32636386796366,None,237.81142317375634,None,True,True,True,0.5,-0.5,-0.5,7.5,1.5,-6.0,-2.25,gamble,win,1.5,1.5,240.845924491412,None,240.845924491412,None,240.845924491412,None,240.845924491412,None,240.845924491412,None,240.845924491412,None,240.845924491412,None,None,240.845924491412,None,243.84714747034013,None,243.84714747034013,None,243.84714747034013,None,243.84714747034013,None,243.84714747034013,None,243.84714747034013,None,243.84714747034013,None,247.832015105756,None,247.832015105756,None,247.832015105756,None,247.832015105756,None,247.832015105756,None,247.832015105756,None,247.832015105756,None,248.83234532934148,None,,,,,,,,,,,,,,,,,,,,,,24232,2019_Nov_05_1502,Mmi_3levels,3.1.5,59.97574224581828,
,,,1,1,3.3,,,,,,,,,0,0,0,0,0,1,1,23,,,,,,,,,,,,,,,,,,,,,,,,,,,,,,,,,,,,,,,,,,,,,,,,,,,,,,,,,,,True,True,False,0.5,-0.5,-1.0,8.0,3.3,-4.7,-0.7000000000000002,gamble,win,3.3,4.8,250.8498407759471,None,250.8498407759471,None,250.8498407759471,None,250.8498407759471,None,250.8498407759471,None,250.8498407759471,None,250.8498407759471,None,1,250.8498407759471,None,252.76724809897132,None,252.76724809897132,None,252.76724809897132,None,252.76724809897132,None,252.76724809897132,None,252.76724809897132,None,252.76724809897132,None,256.7687337847892,None,256.7687337847892,None,256.7687337847892,None,256.7687337847892,None,256.7687337847892,None,256.7687337847892,None,256.7687337847892,None,257.75244851771276,None,1.8841379438526928,,,,,,,,,,,,,,,,,,,,,24232,2019_Nov_05_1502,Mmi_3levels,3.1.5,59.97574224581828,
,,,1,1,6.1,,,,,,,,,0,0,0,0,0,2,2,13,,,,,,,,,,,,,,,,,,,,,,,,,,,,,,,,,,,,,,,,,,,,,,,,,,,,,,,,,,,True,False,True,0.5,-0.5,-1.5,-1.875,6.1,4.225,2.1125,gamble,lose,4.225,9.024999999999999,259.7698854072951,None,259.7698854072951,None,259.7698854072951,None,259.7698854072951,None,259.7698854072951,None,259.7698854072951,None,259.7698854072951,None,1,259.7698854072951,None,262.28756708465517,None,262.28756708465517,None,262.28756708465517,None,262.28756708465517,None,262.28756708465517,None,262.28756708465517,None,262.28756708465517,None,266.2890735694673,None,266.2890735694673,None,266.2890735694673,None,266.2890735694673,None,266.2890735694673,None,266.2890735694673,None,266.2890735694673,None,275.7927226673346,None,2.5012546573998407,267.28950266807806,None,268.2898328915471,None,0.57,7.502809139783494,271.291029951768,None,None,271.291029951768,None,,,,,,,,,,24232,2019_Nov_05_1502,Mmi_3levels,3.1.5,59.97574224581828,
,,,1,1,2.3,,,,,,,,,0,0,0,0,0,3,3,4,,,,,,,,,,,,,,,,,,,,,,,,,,,,,,,,,,,,,,,,,,,,,,,,,,,,,,,,,,,True,True,False,0.57,-0.43000000000000005,-1.9300000000000002,7.950000000000001,2.3,-5.650000000000001,-1.6750000000000007,gamble,win,2.3,11.325,277.810238272883,None,277.810238272883,None,277.810238272883,None,277.810238272883,None,277.810238272883,None,277.810238272883,None,277.810238272883,None,1,277.810238272883,None,279.8443328909343,None,279.8443328909343,None,279.8443328909343,None,279.8443328909343,None,279.8443328909343,None,279.8443328909343,None,279.8443328909343,None,283.8291179704247,None,283.8291179704247,None,283.8291179704247,None,283.8291179704247,None,283.8291179704247,None,283.8291179704247,None,283.8291179704247,None,284.8295121907722,None,2.0009977102745324,,,,,,,,,,,,,,,,,,,,,24232,2019_Nov_05_1502,Mmi_3levels,3.1.5,59.97574224581828,
,,,1,1,4.5,,,,,,,,,0,0,0,0,0,4,4,6,,,,,,,,,,,,,,,,,,,,,,,,,,,,,,,,,,,,,,,,,,,,,,,,,,,,,,,,,,,True,False,False,0.57,-0.43000000000000005,-2.3600000000000003,-1.7016666666666669,4.5,2.798333333333333,1.3991666666666664,gamble,lose,2.798333333333333,14.123333333333331,286.8469823586056,None,286.8469823586056,None,286.8469823586056,None,286.8469823586056,None,286.8469823586056,None,286.8469823586056,None,286.8469823586056,None,1,286.8469823586056,None,288.1641207670327,None,288.1641207670327,None,288.1641207670327,None,288.1641207670327,None,288.1641207670327,None,288.1641207670327,None,288.1641207670327,None,292.14899416221306,None,292.14899416221306,None,292.14899416221306,None,292.14899416221306,None,292.14899416221306,None,292.14899416221306,None,292.14899416221306,None,301.6526199012296,None,1.2840786188608035,293.1493663035799,None,294.1497515643714,None,0.55,7.50280817982275,297.1508948673727,None,None,297.1508948673727,None,,,,,,,,,,24232,2019_Nov_05_1502,Mmi_3levels,3.1.5,59.97574224581828,
,,,1,1,10.1,,,,,,,,,0,0,0,0,0,5,5,10,,,,,,,,,,,,,,,,,,,,,,,,,,,,,,,,,,,,,,,,,,,,,,,,,,,,,,,,,,,True,True,False,0.55,-0.44999999999999996,-2.8100000000000005,9.11,10.1,0.9900000000000002,0.4950000000000001,gamble,win,10.1,24.22333333333333,303.6701963037485,None,303.6701963037485,None,303.6701963037485,None,303.6701963037485,None,303.6701963037485,None,303.6701963037485,None,303.6701963037485,None,1,303.6701963037485,None,305.1039676099317,None,305.1039676099317,None,305.1039676099317,None,305.1039676099317,None,305.1039676099317,None,305.1039676099317,None,305.1039676099317,None,309.10556241031736,None,309.10556241031736,None,309.10556241031736,None,309.10556241031736,None,309.10556241031736,None,309.10556241031736,None,309.10556241031736,None,310.08932034112513,None,1.400708956643939,,,,,,,,,,,,,,,,,,,,,24232,2019_Nov_05_1502,Mmi_3levels,3.1.5,59.97574224581828,
,,,1,1,11.3,,,,,,,,,0,0,0,0,0,6,6,22,,,,,,,,,,,,,,,,,,,,,,,,,,,,,,,,,,,,,,,,,,,,,,,,,,,,,,,,,,,True,True,False,0.55,-0.44999999999999996,-3.2600000000000007,9.559999999999999,11.3,1.740000000000002,0.870000000000001,gamble,win,11.3,35.523333333333326,312.1066826743772,None,312.1066826743772,None,312.1066826743772,None,312.1066826743772,None,312.1066826743772,None,312.1066826743772,None,312.1066826743772,None,1,312.1066826743772,None,313.357202648418,None,313.357202648418,None,313.357202648418,None,313.357202648418,None,313.357202648418,None,313.357202648418,None,313.357202648418,None,317.3420277260011,None,317.3420277260011,None,317.3420277260011,None,317.3420277260011,None,317.3420277260011,None,317.3420277260011,None,317.3420277260011,None,318.34241554664914,None,1.2174131467472762,,,,,,,,,,,,,,,,,,,,,24232,2019_Nov_05_1502,Mmi_3levels,3.1.5,59.97574224581828,
,,,1,1,0.9,,,,,,,,,0,0,0,0,0,7,7,0,,,,,,,,,,,,,,,,,,,,,,,,,,,,,,,,,,,,,,,,,,,,,,,,,,,,,,,,,,,True,True,True,0.55,-0.44999999999999996,-3.710000000000001,10.01,0.9,-9.11,-4.1049999999999995,gamble,win,0.9,36.423333333333325,320.3598895543255,None,320.3598895543255,None,320.3598895543255,None,320.3598895543255,None,320.3598895543255,None,320.3598895543255,None,320.3598895543255,None,None,320.3598895543255,None,323.36104757653084,None,323.36104757653084,None,323.36104757653084,None,323.36104757653084,None,323.36104757653084,None,323.36104757653084,None,323.36104757653084,None,327.3625886195805,None,327.3625886195805,None,327.3625886195805,None,327.3625886195805,None,327.3625886195805,None,327.3625886195805,None,327.3625886195805,None,336.8495390310418,None,,328.3462963128695,None,329.3466511751758,None,0.66,7.502852337551303,332.3478219967801,None,None,332.3478219967801,None,,,,,,,,,,24232,2019_Nov_05_1502,Mmi_3levels,3.1.5,59.97574224581828,
,,,1,1,7.5,,,,,,,,,0,0,0,0,0,8,8,7,,,,,,,,,,,,,,,,,,,,,,,,,,,,,,,,,,,,,,,,,,,,,,,,,,,,,,,,,,,True,True,False,0.66,-0.33999999999999997,-4.050000000000001,8.81,7.5,-1.3100000000000005,-0.6550000000000002,gamble,win,7.5,43.923333333333325,338.86696376116015,None,338.86696376116015,None,338.86696376116015,None,338.86696376116015,None,338.86696376116015,None,338.86696376116015,None,338.86696376116015,None,1,338.86696376116015,None,340.5009225138929,None,340.5009225138929,None,340.5009225138929,None,340.5009225138929,None,340.5009225138929,None,340.5009225138929,None,340.5009225138929,None,344.50245971721597,None,344.50245971721597,None,344.50245971721597,None,344.50245971721597,None,344.50245971721597,None,344.50245971721597,None,344.50245971721597,None,345.486253166222,None,1.600909522618167,,,,,,,,,,,,,,,,,,,,,24232,2019_Nov_05_1502,Mmi_3levels,3.1.5,59.97574224581828,
,,,1,1,13.3,,,,,,,,,0,0,0,0,0,9,9,11,,,,,,,,,,,,,,,,,,,,,,,,,,,,,,,,,,,,,,,,,,,,,,,,,,,,,,,,,,,True,False,True,0.66,-0.33999999999999997,-4.390000000000001,-1.5558333333333334,13.3,11.744166666666667,5.872083333333333,gamble,lose,11.744166666666667,55.66749999999999,347.50361645943485,None,347.50361645943485,None,347.50361645943485,None,347.50361645943485,None,347.50361645943485,None,347.50361645943485,None,347.50361645943485,None,1,347.50361645943485,None,348.870868846192,None,348.870868846192,None,348.870868846192,None,348.870868846192,None,348.870868846192,None,348.870868846192,None,348.870868846192,None,352.8556734448066,None,352.8556734448066,None,352.8556734448066,None,352.8556734448066,None,352.8556734448066,None,352.8556734448066,None,352.8556734448066,None,362.35938269959297,None,1.3341420396463946,353.85605934553314,None,354.85650124342646,None,0.73,7.502805619966239,357.85758790920954,None,None,357.85758790920954,None,,,,,,,,,,24232,2019_Nov_05_1502,Mmi_3levels,3.1.5,59.97574224581828,
,,,1,1,6.9,,,,,,,,,0,0,0,0,0,10,10,2,,,,,,,,,,,,,,,,,,,,,,,,,,,,,,,,,,,,,,,,,,,,,,,,,,,,,,,,,,,True,False,True,0.73,-0.27,-4.66,-1.3333333333333335,6.9,5.566666666666666,2.783333333333333,gamble,lose,5.566666666666666,61.23416666666665,364.376825028914,None,364.376825028914,None,364.376825028914,None,364.376825028914,None,364.376825028914,None,364.376825028914,None,364.376825028914,None,1,364.376825028914,None,365.67732586793136,None,365.67732586793136,None,365.67732586793136,None,365.67732586793136,None,365.67732586793136,None,365.67732586793136,None,365.67732586793136,None,369.66214646562,None,369.66214646562,None,369.66214646562,None,369.66214646562,None,369.66214646562,None,369.66214646562,None,369.66214646562,None,370.6626226018416,None,1.2674573685508221,,,,,,,,,,,,,,,,,,,,,24232,2019_Nov_05_1502,Mmi_3levels,3.1.5,59.97574224581828,
,,,1,1,10.5,,,,,,,,,0,0,0,0,0,11,11,5,,,,,,,,,,,,,,,,,,,,,,,,,,,,,,,,,,,,,,,,,,,,,,,,,,,,,,,,,,,True,False,True,0.73,-0.27,-4.93,-1.3558333333333334,10.5,9.144166666666667,4.5720833333333335,gamble,lose,9.144166666666667,70.37833333333332,372.6799737357069,None,372.6799737357069,None,372.6799737357069,None,372.6799737357069,None,372.6799737357069,None,372.6799737357069,None,372.6799737357069,None,1,372.6799737357069,None,373.86376712075435,None,373.86376712075435,None,373.86376712075435,None,373.86376712075435,None,373.86376712075435,None,373.86376712075435,None,373.86376712075435,None,377.86529760435224,None,377.86529760435224,None,377.86529760435224,None,377.86529760435224,None,377.86529760435224,None,377.86529760435224,None,377.86529760435224,None,387.3523414511001,None,1.1506929573370144,378.8490625747945,None,379.8494094375055,None,0.75,7.502815539482981,382.8505319413962,None,None,382.8505319413962,None,,,,,,,,,,24232,2019_Nov_05_1502,Mmi_3levels,3.1.5,59.97574224581828,
,,,1,1,4.3,,,,,,,,,0,0,0,0,0,12,12,1,,,,,,,,,,,,,,,,,,,,,,,,,,,,,,,,,,,,,,,,,,,,,,,,,,,,,,,,,,,True,True,True,0.75,-0.25,-5.18,8.68,4.3,-4.38,-0.040000000000000036,certain,certain,-0.040000000000000036,70.33833333333331,389.3697245833464,None,389.3697245833464,None,389.3697245833464,None,389.3697245833464,None,389.3697245833464,None,389.3697245833464,None,389.3697245833464,None,3,389.3697245833464,None,391.5706284742337,None,391.5706284742337,None,391.5706284742337,None,391.5706284742337,None,391.5706284742337,None,391.5706284742337,None,391.5706284742337,None,395.57216791738756,None,395.57216791738756,None,395.57216791738756,None,395.57216791738756,None,395.57216791738756,None,395.57216791738756,None,395.57216791738756,None,396.55590344930533,None,2.167874499806203,,,,,,,,,,,,,,,,,,,,,24232,2019_Nov_05_1502,Mmi_3levels,3.1.5,59.97574224581828,
,,,1,1,11.9,,,,,,,,,0,0,0,0,0,13,13,24,,,,,,,,,,,,,,,,,,,,,,,,,,,,,,,,,,,,,,,,,,,,,,,,,,,,,,,,,,,True,True,False,0.75,-0.25,-5.43,8.93,11.9,2.9700000000000006,1.4850000000000003,gamble,win,11.9,82.23833333333332,398.57332241977565,None,398.57332241977565,None,398.57332241977565,None,398.57332241977565,None,398.57332241977565,None,398.57332241977565,None,398.57332241977565,None,1,398.57332241977565,None,399.6903834560653,None,399.6903834560653,None,399.6903834560653,None,399.6903834560653,None,399.6903834560653,None,399.6903834560653,None,399.6903834560653,None,403.72530267294496,None,403.72530267294496,None,403.72530267294496,None,403.72530267294496,None,403.72530267294496,None,403.72530267294496,None,403.72530267294496,None,404.67572722770274,None,1.084083482506685,,,,,,,,,,,,,,,,,,,,,24232,2019_Nov_05_1502,Mmi_3levels,3.1.5,59.97574224581828,
,,,1,1,8.9,,,,,,,,,0,0,0,0,0,14,14,8,,,,,,,,,,,,,,,,,,,,,,,,,,,,,,,,,,,,,,,,,,,,,,,,,,,,,,,,,,,True,True,False,0.75,-0.25,-5.68,9.18,8.9,-0.27999999999999936,-0.13999999999999968,gamble,win,8.9,91.13833333333332,406.6931116398191,None,406.6931116398191,None,406.6931116398191,None,406.6931116398191,None,406.6931116398191,None,406.6931116398191,None,406.6931116398191,None,1,406.6931116398191,None,408.9105795038631,None,408.9105795038631,None,408.9105795038631,None,408.9105795038631,None,408.9105795038631,None,408.9105795038631,None,408.9105795038631,None,412.91220054298174,None,412.91220054298174,None,412.91220054298174,None,412.91220054298174,None,412.91220054298174,None,412.91220054298174,None,412.91220054298174,None,422.3991525543388,None,2.1842061644420028,413.89584903919604,None,414.8962167009013,None,0.73,7.502814579522237,417.89735776395537,None,None,417.89735776395537,None,,,,,,,,,,24232,2019_Nov_05_1502,Mmi_3levels,3.1.5,59.97574224581828,
,,,1,1,4.9,,,,,,,,,0,0,0,0,0,15,15,18,,,,,,,,,,,,,,,,,,,,,,,,,,,,,,,,,,,,,,,,,,,,,,,,,,,,,,,,,,,True,True,False,0.73,-0.27,-5.949999999999999,9.73,4.9,-4.83,0.03500000000000014,certain,certain,0.03500000000000014,91.17333333333332,424.4165692848619,None,424.4165692848619,None,424.4165692848619,None,424.4165692848619,None,424.4165692848619,None,424.4165692848619,None,424.4165692848619,None,3,424.4165692848619,None,426.5673691169359,None,426.5673691169359,None,426.5673691169359,None,426.5673691169359,None,426.5673691169359,None,426.5673691169359,None,426.5673691169359,None,430.56896231742576,None,430.56896231742576,None,430.56896231742576,None,430.56896231742576,None,430.56896231742576,None,430.56896231742576,None,430.56896231742576,None,431.5526706506498,None,2.117715403670445,,,,,,,,,,,,,,,,,,,,,24232,2019_Nov_05_1502,Mmi_3levels,3.1.5,59.97574224581828,
,,,1,1,4.1,,,,,,,,,0,0,0,0,0,16,16,14,,,,,,,,,,,,,,,,,,,,,,,,,,,,,,,,,,,,,,,,,,,,,,,,,,,,,,,,,,,True,True,False,0.73,-0.27,-6.219999999999999,10.0,4.1,-5.9,-0.9000000000000004,gamble,win,4.1,95.27333333333331,433.57006754225586,None,433.57006754225586,None,433.57006754225586,None,433.57006754225586,None,433.57006754225586,None,433.57006754225586,None,433.57006754225586,None,None,433.57006754225586,None,436.5712031655712,None,436.5712031655712,None,436.5712031655712,None,436.5712031655712,None,436.5712031655712,None,436.5712031655712,None,436.5712031655712,None,440.5560893600341,None,440.5560893600341,None,440.5560893600341,None,440.5560893600341,None,440.5560893600341,None,440.5560893600341,None,440.5560893600341,None,450.0597496572882,None,,441.5565334978746,None,442.5568730009254,None,0.78,7.5027313836617395,445.55807166104205,None,None,445.55807166104205,None,,,,,,,,,,24232,2019_Nov_05_1502,Mmi_3levels,3.1.5,59.97574224581828,
,,,1,1,0.1,,,,,,,,,0,0,0,0,0,17,17,25,,,,,,,,,,,,,,,,,,,,,,,,,,,,,,,,,,,,,,,,,,,,,,,,,,,,,,,,,,,True,False,False,0.78,-0.21999999999999997,-6.439999999999999,-1.3066666666666664,0.1,-1.2066666666666663,-0.5533333333333331,gamble,lose,-1.2066666666666663,94.06666666666665,452.07724830380175,None,452.07724830380175,None,452.07724830380175,None,452.07724830380175,None,452.07724830380175,None,452.07724830380175,None,452.07724830380175,None,None,452.07724830380175,None,455.07840088626835,None,455.07840088626835,None,455.07840088626835,None,455.07840088626835,None,455.07840088626835,None,455.07840088626835,None,455.07840088626835,None,459.06320452480577,None,459.06320452480577,None,459.06320452480577,None,459.06320452480577,None,459.06320452480577,None,459.06320452480577,None,459.06320452480577,None,460.0636102645658,None,,,,,,,,,,,,,,,,,,,,,,24232,2019_Nov_05_1502,Mmi_3levels,3.1.5,59.97574224581828,
,,,1,1,5.7,,,,,,,,,0,0,0,0,0,18,18,3,,,,,,,,,,,,,,,,,,,,,,,,,,,,,,,,,,,,,,,,,,,,,,,,,,,,,,,,,,,True,True,True,0.78,-0.21999999999999997,-6.659999999999998,9.739999999999998,5.7,-4.039999999999998,0.830000000000001,certain,certain,0.830000000000001,94.89666666666665,462.0810356347356,None,462.0810356347356,None,462.0810356347356,None,462.0810356347356,None,462.0810356347356,None,462.0810356347356,None,462.0810356347356,None,3,462.0810356347356,None,463.9484457735671,None,463.9484457735671,None,463.9484457735671,None,463.9484457735671,None,463.9484457735671,None,463.9484457735671,None,463.9484457735671,None,467.9333441274939,None,467.9333441274939,None,467.9333441274939,None,467.9333441274939,None,467.9333441274939,None,467.9333441274939,None,467.9333441274939,None,468.93372810829896,None,1.8343001117464155,,,,,,,,,,,,,,,,,,,,,24232,2019_Nov_05_1502,Mmi_3levels,3.1.5,59.97574224581828,
,,,1,1,-0.3,,,,,,,,,0,0,0,0,0,19,19,15,,,,,,,,,,,,,,,,,,,,,,,,,,,,,,,,,,,,,,,,,,,,,,,,,,,,,,,,,,,True,True,False,0.78,-0.21999999999999997,-6.879999999999998,9.959999999999997,-0.3,-10.259999999999998,-5.279999999999999,certain,certain,-5.279999999999999,89.61666666666665,470.9512145953486,None,470.9512145953486,None,470.9512145953486,None,470.9512145953486,None,470.9512145953486,None,470.9512145953486,None,470.9512145953486,None,3,470.9512145953486,None,473.43540738441516,None,473.43540738441516,None,473.43540738441516,None,473.43540738441516,None,473.43540738441516,None,473.43540738441516,None,473.43540738441516,None,477.437003784813,None,477.437003784813,None,477.437003784813,None,477.437003784813,None,477.437003784813,None,477.437003784813,None,477.437003784813,None,486.9239589959616,None,2.450917970156297,478.4206593206618,None,479.4210954589071,None,0.75,7.502813619561493,482.4221786048729,None,None,482.4221786048729,None,,,,,,,,,,24232,2019_Nov_05_1502,Mmi_3levels,3.1.5,59.97574224581828,
,,,1,1,6.3,,,,,,,,,0,0,0,0,0,20,20,20,,,,,,,,,,,,,,,,,,,,,,,,,,,,,,,,,,,,,,,,,,,,,,,,,,,,,,,,,,,True,True,True,0.75,-0.25,-7.129999999999998,10.629999999999999,6.3,-4.329999999999999,0.9850000000000003,gamble,win,6.3,95.91666666666664,488.9413757264847,None,488.9413757264847,None,488.9413757264847,None,488.9413757264847,None,488.9413757264847,None,488.9413757264847,None,488.9413757264847,None,1,488.9413757264847,None,491.3590025586309,None,491.3590025586309,None,491.3590025586309,None,491.3590025586309,None,491.3590025586309,None,491.3590025586309,None,491.3590025586309,None,495.3605138431303,None,495.3605138431303,None,495.3605138431303,None,495.3605138431303,None,495.3605138431303,None,495.3605138431303,None,495.3605138431303,None,496.34427273389883,None,2.3845705622807145,,,,,,,,,,,,,,,,,,,,,24232,2019_Nov_05_1502,Mmi_3levels,3.1.5,59.97574224581828,
,,,1,1,5.5,,,,,,,,,0,0,0,0,0,21,21,26,,,,,,,,,,,,,,,,,,,,,,,,,,,,,,,,,,,,,,,,,,,,,,,,,,,,,,,,,,,True,False,False,0.75,-0.25,-7.379999999999998,-1.4899999999999998,5.5,4.01,2.005,gamble,lose,4.01,99.92666666666665,498.36171666311566,None,498.36171666311566,None,498.36171666311566,None,498.36171666311566,None,498.36171666311566,None,498.36171666311566,None,498.36171666311566,None,1,498.36171666311566,None,499.56215497723315,None,499.56215497723315,None,499.56215497723315,None,499.56215497723315,None,499.56215497723315,None,499.56215497723315,None,499.56215497723315,None,503.54698933428153,None,503.54698933428153,None,503.54698933428153,None,503.54698933428153,None,503.54698933428153,None,503.54698933428153,None,503.54698933428153,None,513.0507043488324,None,1.1673439660808071,504.5474299523048,None,505.54781841288786,None,0.75,7.5027771414024755,508.5489092384232,None,None,508.5489092384232,None,,,,,,,,,,24232,2019_Nov_05_1502,Mmi_3levels,3.1.5,59.97574224581828,
,,,1,1,5.3,,,,,,,,,0,0,0,0,0,22,22,19,,,,,,,,,,,,,,,,,,,,,,,,,,,,,,,,,,,,,,,,,,,,,,,,,,,,,,,,,,,True,True,True,0.75,-0.25,-7.629999999999998,11.129999999999999,5.3,-5.829999999999999,-0.2649999999999997,certain,certain,-0.2649999999999997,99.66166666666665,515.0680964406347,None,515.0680964406347,None,515.0680964406347,None,515.0680964406347,None,515.0680964406347,None,515.0680964406347,None,515.0680964406347,None,3,515.0680964406347,None,517.4190510809422,None,517.4190510809422,None,517.4190510809422,None,517.4190510809422,None,517.4190510809422,None,517.4190510809422,None,517.4190510809422,None,521.4039206362795,None,521.4039206362795,None,521.4039206362795,None,521.4039206362795,None,521.4039206362795,None,521.4039206362795,None,521.4039206362795,None,522.4042454200098,None,2.3178804513299838,,,,,,,,,,,,,,,,,,,,,24232,2019_Nov_05_1502,Mmi_3levels,3.1.5,59.97574224581828,
,,,1,1,10.3,,,,,,,,,0,0,0,0,0,23,23,16,,,,,,,,,,,,,,,,,,,,,,,,,,,,,,,,,,,,,,,,,,,,,,,,,,,,,,,,,,,True,True,False,0.75,-0.25,-7.879999999999998,11.379999999999999,10.3,-1.0799999999999983,-0.5399999999999991,gamble,win,10.3,109.96166666666664,524.4216685503488,None,524.4216685503488,None,524.4216685503488,None,524.4216685503488,None,524.4216685503488,None,524.4216685503488,None,524.4216685503488,None,1,524.4216685503488,None,525.7556109199068,None,525.7556109199068,None,525.7556109199068,None,525.7556109199068,None,525.7556109199068,None,525.7556109199068,None,525.7556109199068,None,529.7571305240272,None,529.7571305240272,None,529.7571305240272,None,529.7571305240272,None,529.7571305240272,None,529.7571305240272,None,529.7571305240272,None,539.24406173639,None,1.3008262627990916,530.7408049390651,None,531.7412228381727,None,0.8,7.502718904288486,534.7423744606785,None,None,534.7423744606785,None,,,,,,,,,,24232,2019_Nov_05_1502,Mmi_3levels,3.1.5,59.97574224581828,
,,,1,1,12.7,,,,,,,,,0,0,0,0,0,24,24,17,,,,,,,,,,,,,,,,,,,,,,,,,,,,,,,,,,,,,,,,,,,,,,,,,,,,,,,,,,,True,False,True,0.8,-0.19999999999999996,-8.079999999999998,-1.373333333333333,12.7,11.326666666666666,5.663333333333333,gamble,lose,11.326666666666666,121.28833333333331,541.2615546231391,None,541.2615546231391,None,541.2615546231391,None,541.2615546231391,None,541.2615546231391,None,541.2615546231391,None,541.2615546231391,None,1,541.2615546231391,None,542.6954404836288,None,542.6954404836288,None,542.6954404836288,None,542.6954404836288,None,542.6954404836288,None,542.6954404836288,None,542.6954404836288,None,546.6803033192409,None,546.6803033192409,None,546.6803033192409,None,546.6803033192409,None,546.6803033192409,None,546.6803033192409,None,546.6803033192409,None,547.6806421823567,None,1.4006190411746502,,,,,,,,,,,,,,,,,,,,,24232,2019_Nov_05_1502,Mmi_3levels,3.1.5,59.97574224581828,
,,,1,1,13.5,,,,,,,,,0,0,0,0,0,25,25,21,,,,,,,,,,,,,,,,,,,,,,,,,,,,,,,,,,,,,,,,,,,,,,,,,,,,,,,,,,,True,False,False,0.8,-0.19999999999999996,-8.279999999999998,-1.3899999999999997,13.5,12.11,6.055,gamble,lose,12.11,133.3983333333333,549.6981401888188,None,549.6981401888188,None,549.6981401888188,None,549.6981401888188,None,549.6981401888188,None,549.6981401888188,None,549.6981401888188,None,1,549.6981401888188,None,550.6318490981357,None,550.6318490981357,None,550.6318490981357,None,550.6318490981357,None,550.6318490981357,None,550.6318490981357,None,550.6318490981357,None,554.6333763818257,None,554.6333763818257,None,554.6333763818257,None,554.6333763818257,None,554.6333763818257,None,554.6333763818257,None,554.6333763818257,None,555.6170613563154,None,0.9005912024294958,,,,,,,,,,,,,,,,,,,,,24232,2019_Nov_05_1502,Mmi_3levels,3.1.5,59.97574224581828,
,,,1,1,3.9,,,,,,,,,0,0,0,0,0,26,26,9,,,,,,,,,,,,,,,,,,,,,,,,,,,,,,,,,,,,,,,,,,,,,,,,,,,,,,,,,,,True,True,False,0.8,-0.19999999999999996,-8.479999999999997,11.279999999999996,3.9,-7.3799999999999955,-1.7399999999999978,gamble,win,3.9,137.29833333333332,557.6344697672175,None,557.6344697672175,None,557.6344697672175,None,557.6344697672175,None,557.6344697672175,None,557.6344697672175,None,557.6344697672175,None,1,557.6344697672175,None,560.2355252025882,None,560.2355252025882,None,560.2355252025882,None,560.2355252025882,None,560.2355252025882,None,560.2355252025882,None,560.2355252025882,None,564.2203317210078,None,564.2203317210078,None,564.2203317210078,None,564.2203317210078,None,564.2203317210078,None,564.2203317210078,None,564.2203317210078,None,573.7239942582091,None,2.567934848717414,565.2207195416559,None,566.2211080022389,None,0.78,7.502765301964246,569.222288103425,None,None,569.222288103425,None,,,,,,,,,,24232,2019_Nov_05_1502,Mmi_3levels,3.1.5,59.97574224581828,
,,,2,0,11.7,,,,,,,,,0,1,1,1,0,0,0,14,,,,,,,,,,,,,,,,,,,,,,,,,,,,,,,,,,,,,,,,,,,,,,,,579.0427082680399,None,0.78,6.117950911866501,582.0605604968732,None,4,582.0605604968732,None,585.1617013678188,None,False,True,True,0.78,0.78,0.78,-11.7,11.7,0.0,0.0,gamble,lose,0.0,137.29833333333332,588.1962510031881,None,588.1962510031881,None,588.1962510031881,None,588.1962510031881,None,588.1962510031881,None,588.1962510031881,None,588.1962510031881,None,1,588.1962510031881,None,589.6968023356749,None,589.6968023356749,None,589.6968023356749,None,589.6968023356749,None,589.6968023356749,None,589.6968023356749,None,589.6968023356749,None,593.6816843702691,None,593.6816843702691,None,593.6816843702691,None,593.6816843702691,None,593.6816843702691,None,593.6816843702691,None,593.6816843702691,None,594.6820549118565,None,1.4674681840697303,,,,,,,,,,,,575.7247561401455,None,4,3.3014748704154044,575.7247561401455,None,3.084701051702723,,,24232,2019_Nov_05_1502,Mmi_3levels,3.1.5,59.97574224581828,
,,,2,0,0.7,,,,,,,,,0,1,1,1,0,1,1,24,,,,,,,,,,,,,,,,,,,,,,,,,,,,,,,,,,,,,,,,,,,,,,,,,,,,,,,,,,,False,True,False,0.78,0.78,1.56,-12.48,0.7,-11.780000000000001,-5.540000000000001,certain,certain,-5.540000000000001,131.75833333333333,596.6995410788804,None,596.6995410788804,None,596.6995410788804,None,596.6995410788804,None,596.6995410788804,None,596.6995410788804,None,596.6995410788804,None,3,596.6995410788804,None,599.3505188220879,None,599.3505188220879,None,599.3505188220879,None,599.3505188220879,None,599.3505188220879,None,599.3505188220879,None,599.3505188220879,None,603.335385497543,None,603.335385497543,None,603.335385497543,None,603.335385497543,None,603.335385497543,None,603.335385497543,None,603.335385497543,None,612.8390982722631,None,2.6178789153927937,604.3357646786608,None,605.3362084964756,None,0.69,7.502806579810567,608.3373220409267,None,None,608.3373220409267,None,,,,,,,,,,24232,2019_Nov_05_1502,Mmi_3levels,3.1.5,59.97574224581828,
,,,2,0,3.3,,,,,,,,,0,1,1,1,0,2,2,21,,,,,,,,,,,,,,,,,,,,,,,,,,,,,,,,,,,,,,,,,,,,,,,,,,,,,,,,,,,False,True,False,0.69,0.69,2.25,-11.91,3.3,-8.61,-2.655,gamble,lose,-8.61,123.14833333333333,614.8565041233087,None,614.8565041233087,None,614.8565041233087,None,614.8565041233087,None,614.8565041233087,None,614.8565041233087,None,614.8565041233087,None,1,614.8565041233087,None,616.9740028977394,None,616.9740028977394,None,616.9740028977394,None,616.9740028977394,None,616.9740028977394,None,616.9740028977394,None,616.9740028977394,None,620.9755205820547,None,620.9755205820547,None,620.9755205820547,None,620.9755205820547,None,620.9755205820547,None,620.9755205820547,None,620.9755205820547,None,621.9592189957621,None,2.0843922670464963,,,,,,,,,,,,,,,,,,,,,24232,2019_Nov_05_1502,Mmi_3levels,3.1.5,59.97574224581828,
,,,2,0,5.5,,,,,,,,,0,1,1,1,0,3,3,10,,,,,,,,,,,,,,,,,,,,,,,,,,,,,,,,,,,,,,,,,,,,,,,,,,,,,,,,,,,False,False,True,0.69,0.69,2.94,2.66,1.375,-1.2850000000000001,0.04499999999999993,gamble,win,1.375,124.52333333333333,623.9767198821064,None,623.9767198821064,None,623.9767198821064,None,623.9767198821064,None,623.9767198821064,None,623.9767198821064,None,623.9767198821064,None,None,623.9767198821064,None,626.977889103815,None,626.977889103815,None,626.977889103815,None,626.977889103815,None,626.977889103815,None,626.977889103815,None,626.977889103815,None,630.9627164212288,None,630.9627164212288,None,630.9627164212288,None,630.9627164212288,None,630.9627164212288,None,630.9627164212288,None,630.9627164212288,None,640.4663188013947,None,,631.9630668037571,None,632.9634491846664,None,0.68,7.502804980031215,635.9645937674213,None,None,635.9645937674213,None,,,,,,,,,,24232,2019_Nov_05_1502,Mmi_3levels,3.1.5,59.97574224581828,
,,,2,0,0.3,,,,,,,,,0,1,1,1,0,4,4,22,,,,,,,,,,,,,,,,,,,,,,,,,,,,,,,,,,,,,,,,,,,,,,,,,,,,,,,,,,,False,True,False,0.68,0.68,3.62,-13.14,0.3,-12.84,-6.27,gamble,lose,-12.84,111.68333333333332,642.4838820846053,None,642.4838820846053,None,642.4838820846053,None,642.4838820846053,None,642.4838820846053,None,642.4838820846053,None,642.4838820846053,None,1,642.4838820846053,None,644.3512211870402,None,644.3512211870402,None,644.3512211870402,None,644.3512211870402,None,644.3512211870402,None,644.3512211870402,None,644.3512211870402,None,648.3527036730666,None,648.3527036730666,None,648.3527036730666,None,648.3527036730666,None,648.3527036730666,None,648.3527036730666,None,648.3527036730666,None,649.3364190459251,None,1.834237714880146,,,,,,,,,,,,,,,,,,,,,24232,2019_Nov_05_1502,Mmi_3levels,3.1.5,59.97574224581828,
,,,2,0,5.1,,,,,,,,,0,1,1,1,0,5,5,11,,,,,,,,,,,,,,,,,,,,,,,,,,,,,,,,,,,,,,,,,,,,,,,,,,,,,,,,,,,False,True,True,0.68,0.68,4.3,-13.82,5.1,-8.72,-1.8100000000000005,gamble,lose,-8.72,102.96333333333332,651.3538620151812,None,651.3538620151812,None,651.3538620151812,None,651.3538620151812,None,651.3538620151812,None,651.3538620151812,None,651.3538620151812,None,1,651.3538620151812,None,652.7210660843411,None,652.7210660843411,None,652.7210660843411,None,652.7210660843411,None,652.7210660843411,None,652.7210660843411,None,652.7210660843411,None,656.7226493653143,None,656.7226493653143,None,656.7226493653143,None,656.7226493653143,None,656.7226493653143,None,656.7226493653143,None,656.7226493653143,None,657.706307461136,None,1.3339676483301446,,,,,,,,,,,,,,,,,,,,,24232,2019_Nov_05_1502,Mmi_3levels,3.1.5,59.97574224581828,
,,,2,0,2.5,,,,,,,,,0,1,1,1,0,6,6,8,,,,,,,,,,,,,,,,,,,,,,,,,,,,,,,,,,,,,,,,,,,,,,,,,,,,,,,,,,,False,True,False,0.68,0.68,4.9799999999999995,-14.5,2.5,-12.0,-4.75,certain,certain,-4.75,98.21333333333332,659.7237494704314,None,659.7237494704314,None,659.7237494704314,None,659.7237494704314,None,659.7237494704314,None,659.7237494704314,None,659.7237494704314,None,3,659.7237494704314,None,662.5748967411928,None,662.5748967411928,None,662.5748967411928,None,662.5748967411928,None,662.5748967411928,None,662.5748967411928,None,662.5748967411928,None,666.5597202187637,None,666.5597202187637,None,666.5597202187637,None,666.5597202187637,None,666.5597202187637,None,666.5597202187637,None,666.5597202187637,None,676.0634617919568,None,2.818052282789722,667.560111559229,None,668.5604824207257,None,0.61,7.502857137355022,671.5616327632451,None,None,671.5616327632451,None,,,,,,,,,,24232,2019_Nov_05_1502,Mmi_3levels,3.1.5,59.97574224581828,
,,,2,0,7.7,,,,,,,,,0,1,1,1,0,7,7,25,,,,,,,,,,,,,,,,,,,,,,,,,,,,,,,,,,,,,,,,,,,,,,,,,,,,,,,,,,,False,False,True,0.61,0.61,5.59,2.600833333333333,1.925,-0.6758333333333331,0.6245833333333335,gamble,win,1.925,100.13833333333332,678.0808398044901,None,678.0808398044901,None,678.0808398044901,None,678.0808398044901,None,678.0808398044901,None,678.0808398044901,None,678.0808398044901,None,1,678.0808398044901,None,680.4984634367283,None,680.4984634367283,None,680.4984634367283,None,680.4984634367283,None,680.4984634367283,None,680.4984634367283,None,680.4984634367283,None,684.5000012799865,None,684.5000012799865,None,684.5000012799865,None,684.5000012799865,None,684.5000012799865,None,684.5000012799865,None,684.5000012799865,None,685.4837038534461,None,2.3845385637832806,,,,,,,,,,,,,,,,,,,,,24232,2019_Nov_05_1502,Mmi_3levels,3.1.5,59.97574224581828,
,,,2,0,3.5,,,,,,,,,0,1,1,1,0,8,8,0,,,,,,,,,,,,,,,,,,,,,,,,,,,,,,,,,,,,,,,,,,,,,,,,,,,,,,,,,,,False,False,True,0.61,0.61,6.2,2.6516666666666664,0.875,-1.7766666666666664,-0.4508333333333332,gamble,win,0.875,101.01333333333332,687.5011007450521,None,687.5011007450521,None,687.5011007450521,None,687.5011007450521,None,687.5011007450521,None,687.5011007450521,None,687.5011007450521,None,1,687.5011007450521,None,689.08504311461,None,689.08504311461,None,689.08504311461,None,689.08504311461,None,689.08504311461,None,689.08504311461,None,689.08504311461,None,693.0865879975026,None,693.0865879975026,None,693.0865879975026,None,693.0865879975026,None,693.0865879975026,None,693.0865879975026,None,693.0865879975026,None,702.5736244847067,None,1.5508521813899279,694.0703504080884,None,695.0706883112434,None,0.66,7.502948972862214,698.0718242545845,None,None,698.0718242545845,None,,,,,,,,,,24232,2019_Nov_05_1502,Mmi_3levels,3.1.5,59.97574224581828,
,,,2,0,2.3,,,,,,,,,0,1,1,1,0,9,9,19,,,,,,,,,,,,,,,,,,,,,,,,,,,,,,,,,,,,,,,,,,,,,,,,,,,,,,,,,,,False,True,False,0.66,0.66,6.86,-16.1,2.3,-13.8,-5.75,certain,certain,-5.75,95.26333333333332,704.5910748135066,None,704.5910748135066,None,704.5910748135066,None,704.5910748135066,None,704.5910748135066,None,704.5910748135066,None,704.5910748135066,None,3,704.5910748135066,None,706.9419158595847,None,706.9419158595847,None,706.9419158595847,None,706.9419158595847,None,706.9419158595847,None,706.9419158595847,None,706.9419158595847,None,710.9435097000096,None,710.9435097000096,None,710.9435097000096,None,710.9435097000096,None,710.9435097000096,None,710.9435097000096,None,710.9435097000096,None,711.9271844349569,None,2.317730058915913,,,,,,,,,,,,,,,,,,,,,24232,2019_Nov_05_1502,Mmi_3levels,3.1.5,59.97574224581828,
,,,2,0,1.3,,,,,,,,,0,1,1,1,0,10,10,15,,,,,,,,,,,,,,,,,,,,,,,,,,,,,,,,,,,,,,,,,,,,,,,,,,,,,,,,,,,False,True,False,0.66,0.66,7.5200000000000005,-16.76,1.3,-15.46,-7.08,gamble,lose,-15.46,79.80333333333331,713.9446606825804,None,713.9446606825804,None,713.9446606825804,None,713.9446606825804,None,713.9446606825804,None,713.9446606825804,None,713.9446606825804,None,1,713.9446606825804,None,716.1955323190195,None,716.1955323190195,None,716.1955323190195,None,716.1955323190195,None,716.1955323190195,None,716.1955323190195,None,716.1955323190195,None,720.1970964008942,None,720.1970964008942,None,720.1970964008942,None,720.1970964008942,None,720.1970964008942,None,720.1970964008942,None,720.1970964008942,None,721.1807445771992,None,2.2177635291591287,,,,,,,,,,,,,,,,,,,,,24232,2019_Nov_05_1502,Mmi_3levels,3.1.5,59.97574224581828,
,,,2,0,12.3,,,,,,,,,0,1,1,1,0,11,11,1,,,,,,,,,,,,,,,,,,,,,,,,,,,,,,,,,,,,,,,,,,,,,,,,,,,,,,,,,,,False,True,False,0.66,0.66,8.18,-17.42,12.3,-5.120000000000001,-2.5600000000000005,gamble,lose,-5.120000000000001,74.68333333333331,723.198192346259,None,723.198192346259,None,723.198192346259,None,723.198192346259,None,723.198192346259,None,723.198192346259,None,723.198192346259,None,1,723.198192346259,None,724.8822273191763,None,724.8822273191763,None,724.8822273191763,None,724.8822273191763,None,724.8822273191763,None,724.8822273191763,None,724.8822273191763,None,728.8669887199067,None,728.8669887199067,None,728.8669887199067,None,728.8669887199067,None,728.8669887199067,None,728.8669887199067,None,728.8669887199067,None,738.3706778157502,None,1.6509291055845097,729.8674555766629,None,730.8677893199492,None,0.59,7.50278866069857,733.868930703029,None,None,733.868930703029,None,,,,,,,,,,24232,2019_Nov_05_1502,Mmi_3levels,3.1.5,59.97574224581828,
,,,2,0,13.1,,,,,,,,,0,1,1,1,0,12,12,2,,,,,,,,,,,,,,,,,,,,,,,,,,,,,,,,,,,,,,,,,,,,,,,,,,,,,,,,,,,False,True,True,0.59,0.59,8.77,-17.03,13.1,-3.9300000000000015,-1.9650000000000007,gamble,lose,-3.9300000000000015,70.7533333333333,740.3881707024993,None,740.3881707024993,None,740.3881707024993,None,740.3881707024993,None,740.3881707024993,None,740.3881707024993,None,740.3881707024993,None,1,740.3881707024993,None,741.5886224559508,None,741.5886224559508,None,741.5886224559508,None,741.5886224559508,None,741.5886224559508,None,741.5886224559508,None,741.5886224559508,None,745.5901241409592,None,745.5901241409592,None,745.5901241409592,None,745.5901241409592,None,745.5901241409592,None,745.5901241409592,None,745.5901241409592,None,746.5738350341562,None,1.1673548456747085,,,,,,,,,,,,,,,,,,,,,24232,2019_Nov_05_1502,Mmi_3levels,3.1.5,59.97574224581828,
,,,2,0,5.3,,,,,,,,,0,1,1,1,0,13,13,12,,,,,,,,,,,,,,,,,,,,,,,,,,,,,,,,,,,,,,,,,,,,,,,,,,,,,,,,,,,False,True,False,0.59,0.59,9.36,-17.619999999999997,5.3,-12.319999999999997,-3.5099999999999985,certain,certain,-3.5099999999999985,67.2433333333333,748.5912792832823,None,748.5912792832823,None,748.5912792832823,None,748.5912792832823,None,748.5912792832823,None,748.5912792832823,None,748.5912792832823,None,3,748.5912792832823,None,750.5587477872614,None,750.5587477872614,None,750.5587477872614,None,750.5587477872614,None,750.5587477872614,None,750.5587477872614,None,750.5587477872614,None,754.5435594255105,None,754.5435594255105,None,754.5435594255105,None,754.5435594255105,None,754.5435594255105,None,754.5435594255105,None,754.5435594255105,None,764.0472654805053,None,1.934367116424255,755.5439837243175,None,756.5443523459835,None,0.5,7.502810739679262,759.5455289272359,None,None,759.5455289272359,None,,,,,,,,,,24232,2019_Nov_05_1502,Mmi_3levels,3.1.5,59.97574224581828,
,,,2,0,9.1,,,,,,,,,0,1,1,1,0,14,14,13,,,,,,,,,,,,,,,,,,,,,,,,,,,,,,,,,,,,,,,,,,,,,,,,,,,,,,,,,,,False,True,True,0.5,0.5,9.86,-16.86,9.1,-7.76,0.6699999999999999,gamble,lose,-7.76,59.4833333333333,766.0646652518772,None,766.0646652518772,None,766.0646652518772,None,766.0646652518772,None,766.0646652518772,None,766.0646652518772,None,766.0646652518772,None,1,766.0646652518772,None,767.6152604861418,None,767.6152604861418,None,767.6152604861418,None,767.6152604861418,None,767.6152604861418,None,767.6152604861418,None,767.6152604861418,None,771.6168092088774,None,771.6168092088774,None,771.6168092088774,None,771.6168092088774,None,771.6168092088774,None,771.6168092088774,None,771.6168092088774,None,772.6004961032886,None,1.5175268050516024,,,,,,,,,,,,,,,,,,,,,24232,2019_Nov_05_1502,Mmi_3levels,3.1.5,59.97574224581828,
,,,2,0,-0.5,,,,,,,,,0,1,1,1,0,15,15,20,,,,,,,,,,,,,,,,,,,,,,,,,,,,,,,,,,,,,,,,,,,,,,,,,,,,,,,,,,,False,True,True,0.5,0.5,10.36,-17.36,-0.5,-17.86,-9.18,gamble,lose,-17.86,41.6233333333333,774.6179509118665,None,774.6179509118665,None,774.6179509118665,None,774.6179509118665,None,774.6179509118665,None,774.6179509118665,None,774.6179509118665,None,None,774.6179509118665,None,777.6191089340718,None,777.6191089340718,None,777.6191089340718,None,777.6191089340718,None,777.6191089340718,None,777.6191089340718,None,777.6191089340718,None,781.620700534666,None,781.620700534666,None,781.620700534666,None,781.620700534666,None,781.620700534666,None,781.620700534666,None,781.620700534666,None,791.1076112680603,None,,782.604413987603,None,783.604742931202,None,0.4,7.502801460213959,786.6059403114486,None,None,786.6059403114486,None,,,,,,,,,,24232,2019_Nov_05_1502,Mmi_3levels,3.1.5,59.97574224581828,
,,,2,0,-1.1,,,,,,,,,0,1,1,1,0,16,16,26,,,,,,,,,,,,,,,,,,,,,,,,,,,,,,,,,,,,,,,,,,,,,,,,,,,,,,,,,,,False,True,True,0.4,0.4,10.76,-16.36,-1.1,-17.46,-9.280000000000001,gamble,lose,-17.46,24.1633333333333,793.1251278335694,None,793.1251278335694,None,793.1251278335694,None,793.1251278335694,None,793.1251278335694,None,793.1251278335694,None,793.1251278335694,None,1,793.1251278335694,None,795.2592721771216,None,795.2592721771216,None,795.2592721771216,None,795.2592721771216,None,795.2592721771216,None,795.2592721771216,None,795.2592721771216,None,799.260823779623,None,799.260823779623,None,799.260823779623,None,799.260823779623,None,799.260823779623,None,799.260823779623,None,799.260823779623,None,800.2444869951578,None,2.1010013580089435,,,,,,,,,,,,,,,,,,,,,24232,2019_Nov_05_1502,Mmi_3levels,3.1.5,59.97574224581828,
,,,2,0,-0.3,,,,,,,,,0,1,1,1,0,17,17,6,,,,,,,,,,,,,,,,,,,,,,,,,,,,,,,,,,,,,,,,,,,,,,,,,,,,,,,,,,,False,False,False,0.4,0.4,11.16,2.33,-0.075,-2.4050000000000002,-1.2400000000000002,gamble,win,-0.075,24.0883333333333,802.2620166800916,None,802.2620166800916,None,802.2620166800916,None,802.2620166800916,None,802.2620166800916,None,802.2620166800916,None,802.2620166800916,None,None,802.2620166800916,None,805.2630876667099,None,805.2630876667099,None,805.2630876667099,None,805.2630876667099,None,805.2630876667099,None,805.2630876667099,None,805.2630876667099,None,809.2646719075274,None,809.2646719075274,None,809.2646719075274,None,809.2646719075274,None,809.2646719075274,None,809.2646719075274,None,809.2646719075274,None,810.2483834406594,None,,,,,,,,,,,,,,,,,,,,,,24232,2019_Nov_05_1502,Mmi_3levels,3.1.5,59.97574224581828,
,,,2,0,9.3,,,,,,,,,0,1,1,1,0,18,18,23,,,,,,,,,,,,,,,,,,,,,,,,,,,,,,,,,,,,,,,,,,,,,,,,,,,,,,,,,,,False,True,True,0.4,0.4,11.56,-17.16,9.3,-7.859999999999999,0.7200000000000006,gamble,lose,-7.859999999999999,16.2283333333333,812.2658862469252,None,812.2658862469252,None,812.2658862469252,None,812.2658862469252,None,812.2658862469252,None,812.2658862469252,None,812.2658862469252,None,1,812.2658862469252,None,813.532982033561,None,813.532982033561,None,813.532982033561,None,813.532982033561,None,813.532982033561,None,813.532982033561,None,813.532982033561,None,817.5344878783217,None,817.5344878783217,None,817.5344878783217,None,817.5344878783217,None,817.5344878783217,None,817.5344878783217,None,817.5344878783217,None,827.0214312501485,None,1.2340932741062716,818.5181805323809,None,819.5185709128855,None,0.36,7.502816499327309,822.5197654133663,None,None,822.5197654133663,None,,,,,,,,,,24232,2019_Nov_05_1502,Mmi_3levels,3.1.5,59.97574224581828,
,,,2,0,12.1,,,,,,,,,0,1,1,1,0,19,19,17,,,,,,,,,,,,,,,,,,,,,,,,,,,,,,,,,,,,,,,,,,,,,,,,,,,,,,,,,,,False,True,True,0.36,0.36,11.92,-16.96,12.1,-4.860000000000001,-2.4300000000000006,gamble,lose,-4.860000000000001,11.368333333333299,829.0389193370938,None,829.0389193370938,None,829.0389193370938,None,829.0389193370938,None,829.0389193370938,None,829.0389193370938,None,829.0389193370938,None,1,829.0389193370938,None,830.2393614910543,None,830.2393614910543,None,830.2393614910543,None,830.2393614910543,None,830.2393614910543,None,830.2393614910543,None,830.2393614910543,None,834.2242243266664,None,834.2242243266664,None,834.2242243266664,None,834.2242243266664,None,834.2242243266664,None,834.2242243266664,None,834.2242243266664,None,835.2246201469097,None,1.1673321267589927,,,,,,,,,,,,,,,,,,,,,24232,2019_Nov_05_1502,Mmi_3levels,3.1.5,59.97574224581828,
,,,2,0,8.7,,,,,,,,,0,1,1,1,0,20,20,3,,,,,,,,,,,,,,,,,,,,,,,,,,,,,,,,,,,,,,,,,,,,,,,,,,,,,,,,,,,False,True,False,0.36,0.36,12.28,-17.32,8.7,-8.620000000000001,0.03999999999999915,gamble,lose,-8.620000000000001,2.7483333333332975,837.2420503168833,None,837.2420503168833,None,837.2420503168833,None,837.2420503168833,None,837.2420503168833,None,837.2420503168833,None,837.2420503168833,None,1,837.2420503168833,None,838.5425591554958,None,838.5425591554958,None,838.5425591554958,None,838.5425591554958,None,838.5425591554958,None,838.5425591554958,None,838.5425591554958,None,842.5440918789245,None,842.5440918789245,None,842.5440918789245,None,842.5440918789245,None,842.5440918789245,None,842.5440918789245,None,842.5440918789245,None,852.031121966429,None,1.267469207989052,843.5278062919388,None,844.5281870729523,None,0.31,7.502874096622691,847.5293809332652,None,None,847.5293809332652,None,,,,,,,,,,24232,2019_Nov_05_1502,Mmi_3levels,3.1.5,59.97574224581828,
,,,2,0,1.7,,,,,,,,,0,1,1,1,0,21,21,9,,,,,,,,,,,,,,,,,,,,,,,,,,,,,,,,,,,,,,,,,,,,,,,,,,,,,,,,,,,False,True,True,0.31,0.31,12.59,-16.93,1.7,-15.23,-6.765000000000001,gamble,lose,-15.23,-12.481666666666703,854.0485166180879,None,854.0485166180879,None,854.0485166180879,None,854.0485166180879,None,854.0485166180879,None,854.0485166180879,None,854.0485166180879,None,1,854.0485166180879,None,855.9826005485374,None,855.9826005485374,None,855.9826005485374,None,855.9826005485374,None,855.9826005485374,None,855.9826005485374,None,855.9826005485374,None,859.9675113818375,None,859.9675113818375,None,859.9675113818375,None,859.9675113818375,None,859.9675113818375,None,859.9675113818375,None,859.9675113818375,None,860.9678902429296,None,1.9010276607004926,,,,,,,,,,,,,,,,,,,,,24232,2019_Nov_05_1502,Mmi_3levels,3.1.5,59.97574224581828,
,,,2,0,4.3,,,,,,,,,0,1,1,1,0,22,22,5,,,,,,,,,,,,,,,,,,,,,,,,,,,,,,,,,,,,,,,,,,,,,,,,,,,,,,,,,,,False,True,True,0.31,0.31,12.9,-17.240000000000002,4.3,-12.940000000000001,-4.32,gamble,lose,-12.940000000000001,-25.421666666666702,862.985342491651,None,862.985342491651,None,862.985342491651,None,862.985342491651,None,862.985342491651,None,862.985342491651,None,862.985342491651,None,1,862.985342491651,None,864.2691328049405,None,864.2691328049405,None,864.2691328049405,None,864.2691328049405,None,864.2691328049405,None,864.2691328049405,None,864.2691328049405,None,868.2706978467759,None,868.2706978467759,None,868.2706978467759,None,868.2706978467759,None,868.2706978467759,None,868.2706978467759,None,868.2706978467759,None,877.7576965758344,None,1.2506729264277965,869.2543693819316,None,870.2548045600997,None,0.23,7.502758262329735,873.2559443432838,None,None,873.2559443432838,None,,,,,,,,,,24232,2019_Nov_05_1502,Mmi_3levels,3.1.5,59.97574224581828,
,,,2,0,3.9,,,,,,,,,0,1,1,1,0,23,23,4,,,,,,,,,,,,,,,,,,,,,,,,,,,,,,,,,,,,,,,,,,,,,,,,,,,,,,,,,,,False,True,True,0.23,0.23,13.13,-16.35,3.9,-12.450000000000001,-4.275,certain,certain,-4.275,-29.6966666666667,879.7751369851176,None,879.7751369851176,None,879.7751369851176,None,879.7751369851176,None,879.7751369851176,None,879.7751369851176,None,879.7751369851176,None,3,879.7751369851176,None,881.7759100665571,None,881.7759100665571,None,881.7759100665571,None,881.7759100665571,None,881.7759100665571,None,881.7759100665571,None,881.7759100665571,None,885.7774335105205,None,885.7774335105205,None,885.7774335105205,None,885.7774335105205,None,885.7774335105205,None,885.7774335105205,None,885.7774335105205,None,886.7611543231178,None,1.9676652941852808,,,,,,,,,,,,,,,,,,,,,24232,2019_Nov_05_1502,Mmi_3levels,3.1.5,59.97574224581828,
,,,2,0,11.1,,,,,,,,,0,1,1,1,0,24,24,16,,,,,,,,,,,,,,,,,,,,,,,,,,,,,,,,,,,,,,,,,,,,,,,,,,,,,,,,,,,False,True,False,0.23,0.23,13.360000000000001,-16.580000000000002,11.1,-5.480000000000002,-2.740000000000001,gamble,lose,-5.480000000000002,-35.176666666666705,888.7785896128044,None,888.7785896128044,None,888.7785896128044,None,888.7785896128044,None,888.7785896128044,None,888.7785896128044,None,888.7785896128044,None,1,888.7785896128044,None,889.862382549909,None,889.862382549909,None,889.862382549909,None,889.862382549909,None,889.862382549909,None,889.862382549909,None,889.862382549909,None,893.8471628295956,None,893.8471628295956,None,893.8471628295956,None,893.8471628295956,None,893.8471628295956,None,893.8471628295956,None,893.8471628295956,None,894.8475525701651,None,1.0506566711701453,,,,,,,,,,,,,,,,,,,,,24232,2019_Nov_05_1502,Mmi_3levels,3.1.5,59.97574224581828,
,,,2,0,5.9,,,,,,,,,0,1,1,1,0,25,25,18,,,,,,,,,,,,,,,,,,,,,,,,,,,,,,,,,,,,,,,,,,,,,,,,,,,,,,,,,,,False,False,True,0.23,0.23,13.590000000000002,1.9375,1.475,-0.4624999999999999,0.5062500000000001,certain,certain,0.5062500000000001,-34.6704166666667,896.865006738808,None,896.865006738808,None,896.865006738808,None,896.865006738808,None,896.865006738808,None,896.865006738808,None,896.865006738808,None,3,896.865006738808,None,898.1988902314333,None,898.1988902314333,None,898.1988902314333,None,898.1988902314333,None,898.1988902314333,None,898.1988902314333,None,898.1988902314333,None,902.1838039444992,None,902.1838039444992,None,902.1838039444992,None,902.1838039444992,None,902.1838039444992,None,902.1838039444992,None,902.1838039444992,None,911.6874152842211,None,1.3007958643138409,903.1840938500827,None,904.1844835905358,None,0.38,7.502757302368991,907.1856732912129,None,None,907.1856732912129,None,,,,,,,,,,24232,2019_Nov_05_1502,Mmi_3levels,3.1.5,59.97574224581828,
,,,2,0,7.5,,,,,,,,,0,1,1,1,0,26,26,7,,,,,,,,,,,,,,,,,,,,,,,,,,,,,,,,,,,,,,,,,,,,,,,,,,,,,,,,,,,False,True,True,0.38,0.38,13.970000000000002,-19.290000000000003,7.5,-11.790000000000003,-2.1450000000000014,gamble,lose,-11.790000000000003,-46.4604166666667,913.7048076960491,None,913.7048076960491,None,913.7048076960491,None,913.7048076960491,None,913.7048076960491,None,913.7048076960491,None,913.7048076960491,None,1,913.7048076960491,None,914.8052711609052,None,914.8052711609052,None,914.8052711609052,None,914.8052711609052,None,914.8052711609052,None,914.8052711609052,None,914.8052711609052,None,918.7901471158257,None,918.7901471158257,None,918.7901471158257,None,918.7901471158257,None,918.7901471158257,None,918.7901471158257,None,918.7901471158257,None,919.7905346165644,None,1.0673019202658907,,,,,,,,,,,,,,,,,,,,,24232,2019_Nov_05_1502,Mmi_3levels,3.1.5,59.97574224581828,
,,,3,1,0.7,,,,,,,,,0,2,2,2,0,0,0,14,,,,,,,,,,,,,,,,,,,,,,,,,,,,,,,,,,,,,,,,,,,,,,,,924.892482487252,None,0.34,5.601262784912251,927.9102595198201,None,4,927.9102595198201,None,930.4945794706,None,True,False,True,0.34,-0.6599999999999999,-0.6599999999999999,-2.3649999999999998,0.7,-1.6649999999999998,-0.48249999999999993,certain,certain,-0.48249999999999993,-46.942916666666704,933.5291556644952,None,933.5291556644952,None,933.5291556644952,None,933.5291556644952,None,933.5291556644952,None,933.5291556644952,None,933.5291556644952,None,3,933.5291556644952,None,935.5966073373565,None,935.5966073373565,None,935.5966073373565,None,935.5966073373565,None,935.5966073373565,None,935.5966073373565,None,935.5966073373565,None,939.5982075774809,None,939.5982075774809,None,939.5982075774809,None,939.5982075774809,None,939.5982075774809,None,939.5982075774809,None,939.5982075774809,None,949.085141029791,None,2.034357004915364,940.5818727129372,None,941.5822006965755,None,0.33,7.502872176584788,944.5833423995646,None,None,944.5833423995646,None,921.7912836991018,None,4,3.0848108063219115,921.7912836991018,None,2.5679111698409542,,,24232,2019_Nov_05_1502,Mmi_3levels,3.1.5,59.97574224581828,
,,,3,1,12.5,,,,,,,,,0,2,2,2,0,1,1,20,,,,,,,,,,,,,,,,,,,,,,,,,,,,,,,,,,,,,,,,,,,,,,,,,,,,,,,,,,,True,False,True,0.33,-0.6699999999999999,-1.3299999999999998,-2.455833333333333,12.5,10.044166666666667,5.022083333333334,gamble,lose,10.044166666666667,-36.898750000000035,951.102529601776,None,951.102529601776,None,951.102529601776,None,951.102529601776,None,951.102529601776,None,951.102529601776,None,951.102529601776,None,1,951.102529601776,None,952.019550704048,None,952.019550704048,None,952.019550704048,None,952.019550704048,None,952.019550704048,None,952.019550704048,None,952.019550704048,None,956.0045015353244,None,956.0045015353244,None,956.0045015353244,None,956.0045015353244,None,956.0045015353244,None,956.0045015353244,None,956.0045015353244,None,957.0049050351372,None,0.8839104351354763,,,,,,,,,,,,,,,,,,,,,24232,2019_Nov_05_1502,Mmi_3levels,3.1.5,59.97574224581828,
,,,3,1,13.5,,,,,,,,,0,2,2,2,0,2,2,11,,,,,,,,,,,,,,,,,,,,,,,,,,,,,,,,,,,,,,,,,,,,,,,,,,,,,,,,,,,True,True,True,0.33,-0.6699999999999999,-1.9999999999999998,11.379999999999999,13.5,2.120000000000001,1.0600000000000005,gamble,win,13.5,-23.398750000000035,959.0222449694993,None,959.0222449694993,None,959.0222449694993,None,959.0222449694993,None,959.0222449694993,None,959.0222449694993,None,959.0222449694993,None,1,959.0222449694993,None,959.955938199535,None,959.955938199535,None,959.955938199535,None,959.955938199535,None,959.955938199535,None,959.955938199535,None,959.955938199535,None,963.9408323935932,None,963.9408323935932,None,963.9408323935932,None,963.9408323935932,None,963.9408323935932,None,963.9408323935932,None,963.9408323935932,None,964.9412243741099,None,0.9005832028342411,,,,,,,,,,,,,,,,,,,,,24232,2019_Nov_05_1502,Mmi_3levels,3.1.5,59.97574224581828,
,,,3,1,4.7,,,,,,,,,0,2,2,2,0,3,3,25,,,,,,,,,,,,,,,,,,,,,,,,,,,,,,,,,,,,,,,,,,,,,,,,,,,,,,,,,,,True,True,False,0.33,-0.6699999999999999,-2.67,12.049999999999999,4.7,-7.349999999999999,-1.3249999999999993,gamble,win,4.7,-18.698750000000036,966.9586791826878,None,966.9586791826878,None,966.9586791826878,None,966.9586791826878,None,966.9586791826878,None,966.9586791826878,None,966.9586791826878,None,1,966.9586791826878,None,968.359197748825,None,968.359197748825,None,968.359197748825,None,968.359197748825,None,968.359197748825,None,968.359197748825,None,968.359197748825,None,972.3607554311166,None,972.3607554311166,None,972.3607554311166,None,972.3607554311166,None,972.3607554311166,None,972.3607554311166,None,972.3607554311166,None,981.8477423207369,None,1.3674136587651446,973.3444640843663,None,974.3448051873129,None,0.47,7.5028382582822815,977.3459526500665,None,None,977.3459526500665,None,,,,,,,,,,24232,2019_Nov_05_1502,Mmi_3levels,3.1.5,59.97574224581828,
,,,3,1,13.9,,,,,,,,,0,2,2,2,0,4,4,1,,,,,,,,,,,,,,,,,,,,,,,,,,,,,,,,,,,,,,,,,,,,,,,,,,,,,,,,,,,True,True,False,0.47,-0.53,-3.2,10.620000000000001,13.9,3.2799999999999994,1.6399999999999997,gamble,win,13.9,-4.798750000000036,983.8651520116255,None,983.8651520116255,None,983.8651520116255,None,983.8651520116255,None,983.8651520116255,None,983.8651520116255,None,983.8651520116255,None,1,983.8651520116255,None,984.5987505903468,None,984.5987505903468,None,984.5987505903468,None,984.5987505903468,None,984.5987505903468,None,984.5987505903468,None,984.5987505903468,None,988.5836620635819,None,988.5836620635819,None,988.5836620635819,None,988.5836620635819,None,988.5836620635819,None,988.5836620635819,None,988.5836620635819,None,989.5840543640079,None,0.7005071106832474,,,,,,,,,,,,,,,,,,,,,24232,2019_Nov_05_1502,Mmi_3levels,3.1.5,59.97574224581828,
,,,3,1,6.1,,,,,,,,,0,2,2,2,0,5,5,24,,,,,,,,,,,,,,,,,,,,,,,,,,,,,,,,,,,,,,,,,,,,,,,,,,,,,,,,,,,True,True,False,0.47,-0.53,-3.7300000000000004,11.15,6.1,-5.050000000000001,0.5249999999999995,gamble,win,6.1,1.301249999999964,991.6014470957452,None,991.6014470957452,None,991.6014470957452,None,991.6014470957452,None,991.6014470957452,None,991.6014470957452,None,991.6014470957452,None,1,991.6014470957452,None,992.9019450548803,None,992.9019450548803,None,992.9019450548803,None,992.9019450548803,None,992.9019450548803,None,992.9019450548803,None,992.9019450548803,None,996.8868683675537,None,996.8868683675537,None,996.8868683675537,None,996.8868683675537,None,996.8868683675537,None,996.8868683675537,None,996.8868683675537,None,1006.3904473888688,None,1.2674375295173377,997.8872401890112,None,998.887634729268,None,0.58,7.502760182134807,1001.8887245948426,None,None,1001.8887245948426,None,,,,,,,,,,24232,2019_Nov_05_1502,Mmi_3levels,3.1.5,59.97574224581828,
,,,3,1,6.7,,,,,,,,,0,2,2,2,0,6,6,18,,,,,,,,,,,,,,,,,,,,,,,,,,,,,,,,,,,,,,,,,,,,,,,,,,,,,,,,,,,True,True,True,0.58,-0.42000000000000004,-4.15,10.030000000000001,6.7,-3.330000000000001,1.6849999999999996,gamble,win,6.7,8.001249999999963,1008.4079098771326,None,1008.4079098771326,None,1008.4079098771326,None,1008.4079098771326,None,1008.4079098771326,None,1008.4079098771326,None,1008.4079098771326,None,1,1008.4079098771326,None,1009.3583328319946,None,1009.3583328319946,None,1009.3583328319946,None,1009.3583328319946,None,1009.3583328319946,None,1009.3583328319946,None,1009.3583328319946,None,1013.359856915893,None,1013.359856915893,None,1013.359856915893,None,1013.359856915893,None,1013.359856915893,None,1013.359856915893,None,1013.359856915893,None,1014.3435239712708,None,0.9173244471894577,,,,,,,,,,,,,,,,,,,,,24232,2019_Nov_05_1502,Mmi_3levels,3.1.5,59.97574224581828,
,,,3,1,13.3,,,,,,,,,0,2,2,2,0,7,7,5,,,,,,,,,,,,,,,,,,,,,,,,,,,,,,,,,,,,,,,,,,,,,,,,,,,,,,,,,,,True,False,False,0.58,-0.42000000000000004,-4.57,-1.8508333333333336,13.3,11.449166666666667,5.724583333333333,gamble,lose,11.449166666666667,19.45041666666663,1016.3609864595346,None,1016.3609864595346,None,1016.3609864595346,None,1016.3609864595346,None,1016.3609864595346,None,1016.3609864595346,None,1016.3609864595346,None,1,1016.3609864595346,None,1017.0779631481273,None,1017.0779631481273,None,1017.0779631481273,None,1017.0779631481273,None,1017.0779631481273,None,1017.0779631481273,None,1017.0779631481273,None,1021.0794552336447,None,1021.0794552336447,None,1021.0794552336447,None,1021.0794552336447,None,1021.0794552336447,None,1021.0794552336447,None,1021.0794552336447,None,1030.5664325236576,None,0.6839277782710269,1022.063161327038,None,1023.063591385493,None,0.55,7.502744183060713,1026.0647401281167,None,None,1026.0647401281167,None,,,,,,,,,,24232,2019_Nov_05_1502,Mmi_3levels,3.1.5,59.97574224581828,
,,,3,1,2.9,,,,,,,,,0,2,2,2,0,8,8,4,,,,,,,,,,,,,,,,,,,,,,,,,,,,,,,,,,,,,,,,,,,,,,,,,,,,,,,,,,,True,True,True,0.55,-0.44999999999999996,-5.0200000000000005,11.32,2.9,-8.42,-2.76,certain,certain,-2.76,16.69041666666663,1032.5839302102104,None,1032.5839302102104,None,1032.5839302102104,None,1032.5839302102104,None,1032.5839302102104,None,1032.5839302102104,None,1032.5839302102104,None,3,1032.5839302102104,None,1034.5012860158458,None,1034.5012860158458,None,1034.5012860158458,None,1034.5012860158458,None,1034.5012860158458,None,1034.5012860158458,None,1034.5012860158458,None,1038.4861466115108,None,1038.4861466115108,None,1038.4861466115108,None,1038.4861466115108,None,1038.4861466115108,None,1038.4861466115108,None,1038.4861466115108,None,1039.486542431754,None,1.8842867363709956,,,,,,,,,,,,,,,,,,,,,24232,2019_Nov_05_1502,Mmi_3levels,3.1.5,59.97574224581828,
,,,3,1,6.5,,,,,,,,,0,2,2,2,0,9,9,22,,,,,,,,,,,,,,,,,,,,,,,,,,,,,,,,,,,,,,,,,,,,,,,,,,,,,,,,,,,True,True,False,0.55,-0.44999999999999996,-5.470000000000001,11.77,6.5,-5.27,0.6150000000000002,gamble,win,6.5,23.19041666666663,1041.5040301987901,None,1041.5040301987901,None,1041.5040301987901,None,1041.5040301987901,None,1041.5040301987901,None,1041.5040301987901,None,1041.5040301987901,None,1,1041.5040301987901,None,1043.288023061934,None,1043.288023061934,None,1043.288023061934,None,1043.288023061934,None,1043.288023061934,None,1043.288023061934,None,1043.288023061934,None,1047.272862858721,None,1047.272862858721,None,1047.272862858721,None,1047.272862858721,None,1047.272862858721,None,1047.272862858721,None,1047.272862858721,None,1048.2732529191999,None,1.7508988351328298,,,,,,,,,,,,,,,,,,,,,24232,2019_Nov_05_1502,Mmi_3levels,3.1.5,59.97574224581828,
,,,3,1,1.1,,,,,,,,,0,2,2,2,0,10,10,8,,,,,,,,,,,,,,,,,,,,,,,,,,,,,,,,,,,,,,,,,,,,,,,,,,,,,,,,,,,True,True,False,0.55,-0.44999999999999996,-5.920000000000001,12.219999999999999,1.1,-11.12,-5.01,gamble,win,1.1,24.29041666666663,1050.2907378063537,None,1050.2907378063537,None,1050.2907378063537,None,1050.2907378063537,None,1050.2907378063537,None,1050.2907378063537,None,1050.2907378063537,None,None,1050.2907378063537,None,1053.291850390844,None,1053.291850390844,None,1053.291850390844,None,1053.291850390844,None,1053.291850390844,None,1053.291850390844,None,1053.291850390844,None,1057.2767625040142,None,1057.2767625040142,None,1057.2767625040142,None,1057.2767625040142,None,1057.2767625040142,None,1057.2767625040142,None,1057.2767625040142,None,1066.7804071221035,None,,1058.2772079217248,None,1059.27748598787,None,0.59,7.502758582239039,1062.2786193713546,None,None,1062.2786193713546,None,,,,,,,,,,24232,2019_Nov_05_1502,Mmi_3levels,3.1.5,59.97574224581828,
,,,3,1,12.9,,,,,,,,,0,2,2,2,0,11,11,21,,,,,,,,,,,,,,,,,,,,,,,,,,,,,,,,,,,,,,,,,,,,,,,,,,,,,,,,,,,True,False,False,0.59,-0.41000000000000003,-6.330000000000001,-1.9625000000000001,12.9,10.9375,5.46875,gamble,lose,10.9375,35.22791666666663,1068.8645616411231,None,1068.8645616411231,None,1068.8645616411231,None,1068.8645616411231,None,1068.8645616411231,None,1068.8645616411231,None,1068.8645616411231,None,1,1068.8645616411231,None,1069.5481556761079,None,1069.5481556761079,None,1069.5481556761079,None,1069.5481556761079,None,1069.5481556761079,None,1069.5481556761079,None,1069.5481556761079,None,1073.5330217115115,None,1073.5330217115115,None,1073.5330217115115,None,1073.5330217115115,None,1073.5330217115115,None,1073.5330217115115,None,1073.5330217115115,None,1074.533337855828,None,0.6505217659287155,,,,,,,,,,,,,,,,,,,,,24232,2019_Nov_05_1502,Mmi_3levels,3.1.5,59.97574224581828,
,,,3,1,13.1,,,,,,,,,0,2,2,2,0,12,12,7,,,,,,,,,,,,,,,,,,,,,,,,,,,,,,,,,,,,,,,,,,,,,,,,,,,,,,,,,,,True,True,False,0.59,-0.41000000000000003,-6.740000000000001,12.48,13.1,0.6199999999999992,0.3099999999999996,gamble,win,13.1,48.32791666666663,1076.5508125034394,None,1076.5508125034394,None,1076.5508125034394,None,1076.5508125034394,None,1076.5508125034394,None,1076.5508125034394,None,1076.5508125034394,None,1,1076.5508125034394,None,1077.2510626669973,None,1077.2510626669973,None,1077.2510626669973,None,1077.2510626669973,None,1077.2510626669973,None,1077.2510626669973,None,1077.2510626669973,None,1081.252600510139,None,1081.252600510139,None,1081.252600510139,None,1081.252600510139,None,1081.252600510139,None,1081.252600510139,None,1081.252600510139,None,1090.7396264378913,None,0.6671746945939958,1082.2363680405542,None,1083.2366749051725,None,0.67,7.502815219457261,1086.2378998040222,None,None,1086.2378998040222,None,,,,,,,,,,24232,2019_Nov_05_1502,Mmi_3levels,3.1.5,59.97574224581828,
,,,3,1,0.9,,,,,,,,,0,2,2,2,0,13,13,3,,,,,,,,,,,,,,,,,,,,,,,,,,,,,,,,,,,,,,,,,,,,,,,,,,,,,,,,,,,True,True,False,0.67,-0.32999999999999996,-7.070000000000001,11.690000000000001,0.9,-10.790000000000001,-4.945,certain,certain,-4.945,43.38291666666663,1092.757082846365,None,1092.757082846365,None,1092.757082846365,None,1092.757082846365,None,1092.757082846365,None,1092.757082846365,None,1092.757082846365,None,3,1092.757082846365,None,1094.7078056263272,None,1094.7078056263272,None,1094.7078056263272,None,1094.7078056263272,None,1094.7078056263272,None,1094.7078056263272,None,1094.7078056263272,None,1098.7093761079013,None,1098.7093761079013,None,1098.7093761079013,None,1098.7093761079013,None,1098.7093761079013,None,1098.7093761079013,None,1098.7093761079013,None,1099.693092440837,None,1.917638671468012,,,,,,,,,,,,,,,,,,,,,24232,2019_Nov_05_1502,Mmi_3levels,3.1.5,59.97574224581828,
,,,3,1,-1.5,,,,,,,,,0,2,2,2,0,14,14,12,,,,,,,,,,,,,,,,,,,,,,,,,,,,,,,,,,,,,,,,,,,,,,,,,,,,,,,,,,,True,False,False,0.67,-0.32999999999999996,-7.400000000000001,-1.7716666666666665,-1.5,-3.2716666666666665,-2.3858333333333333,gamble,lose,-3.2716666666666665,40.11124999999996,1101.71047813294,None,1101.71047813294,None,1101.71047813294,None,1101.71047813294,None,1101.71047813294,None,1101.71047813294,None,1101.71047813294,None,1,1101.71047813294,None,1104.3448794236174,None,1104.3448794236174,None,1104.3448794236174,None,1104.3448794236174,None,1104.3448794236174,None,1104.3448794236174,None,1104.3448794236174,None,1108.3296885018935,None,1108.3296885018935,None,1108.3296885018935,None,1108.3296885018935,None,1108.3296885018935,None,1108.3296885018935,None,1108.3296885018935,None,1109.3300763225416,None,2.6012951033189893,,,,,,,,,,,,,,,,,,,,,24232,2019_Nov_05_1502,Mmi_3levels,3.1.5,59.97574224581828,
,,,3,1,2.3,,,,,,,,,0,2,2,2,0,15,15,6,,,,,,,,,,,,,,,,,,,,,,,,,,,,,,,,,,,,,,,,,,,,,,,,,,,,,,,,,,,True,False,True,0.67,-0.32999999999999996,-7.730000000000001,-1.7991666666666666,2.3,0.5008333333333332,1.4004166666666666,gamble,lose,0.5008333333333332,40.612083333333295,1111.34757432912,None,1111.34757432912,None,1111.34757432912,None,1111.34757432912,None,1111.34757432912,None,1111.34757432912,None,1111.34757432912,None,1,1111.34757432912,None,1112.4145988231758,None,1112.4145988231758,None,1112.4145988231758,None,1112.4145988231758,None,1112.4145988231758,None,1112.4145988231758,None,1112.4145988231758,None,1116.3994616589043,None,1116.3994616589043,None,1116.3994616589043,None,1116.3994616589043,None,1116.3994616589043,None,1116.3994616589043,None,1116.3994616589043,None,1125.9030947574647,None,1.0339307861868292,1117.399844359723,None,1118.4002065816894,None,0.58,7.502776501351036,1121.4013703635428,None,None,1121.4013703635428,None,,,,,,,,,,24232,2019_Nov_05_1502,Mmi_3levels,3.1.5,59.97574224581828,
,,,3,1,11.9,,,,,,,,,0,2,2,2,0,16,16,0,,,,,,,,,,,,,,,,,,,,,,,,,,,,,,,,,,,,,,,,,,,,,,,,,,,,,,,,,,,True,True,True,0.58,-0.42000000000000004,-8.150000000000002,14.030000000000003,11.9,-2.1300000000000026,-1.0650000000000013,gamble,win,11.9,52.512083333333294,1127.920616122894,None,1127.920616122894,None,1127.920616122894,None,1127.920616122894,None,1127.920616122894,None,1127.920616122894,None,1127.920616122894,None,1,1127.920616122894,None,1129.0043121047784,None,1129.0043121047784,None,1129.0043121047784,None,1129.0043121047784,None,1129.0043121047784,None,1129.0043121047784,None,1129.0043121047784,None,1132.9891746203648,None,1132.9891746203648,None,1132.9891746203648,None,1132.9891746203648,None,1132.9891746203648,None,1132.9891746203648,None,1132.9891746203648,None,1133.989613958518,None,1.0505897945258766,,,,,,,,,,,,,,,,,,,,,24232,2019_Nov_05_1502,Mmi_3levels,3.1.5,59.97574224581828,
,,,3,1,-1.3,,,,,,,,,0,2,2,2,0,17,17,2,,,,,,,,,,,,,,,,,,,,,,,,,,,,,,,,,,,,,,,,,,,,,,,,,,,,,,,,,,,True,False,True,0.58,-0.42000000000000004,-8.570000000000002,-2.184166666666667,-1.3,-3.484166666666667,-2.3920833333333333,gamble,lose,-3.484166666666667,49.02791666666663,1136.0070089300862,None,1136.0070089300862,None,1136.0070089300862,None,1136.0070089300862,None,1136.0070089300862,None,1136.0070089300862,None,1136.0070089300862,None,1,1136.0070089300862,None,1137.7076353948796,None,1137.7076353948796,None,1137.7076353948796,None,1137.7076353948796,None,1137.7076353948796,None,1137.7076353948796,None,1137.7076353948796,None,1141.6925843062345,None,1141.6925843062345,None,1141.6925843062345,None,1141.6925843062345,None,1141.6925843062345,None,1141.6925843062345,None,1141.6925843062345,None,1151.196165247471,None,1.6675567555939779,1142.6929273291025,None,1143.693295310717,None,0.58,7.502778741298243,1146.6944846913684,None,None,1146.6944846913684,None,,,,,,,,,,24232,2019_Nov_05_1502,Mmi_3levels,3.1.5,59.97574224581828,
,,,3,1,9.7,,,,,,,,,0,2,2,2,0,18,18,13,,,,,,,,,,,,,,,,,,,,,,,,,,,,,,,,,,,,,,,,,,,,,,,,,,,,,,,,,,,True,False,True,0.58,-0.42000000000000004,-8.990000000000002,-2.219166666666667,9.7,7.480833333333332,3.740416666666666,gamble,lose,7.480833333333332,56.50874999999996,1153.2136674136855,None,1153.2136674136855,None,1153.2136674136855,None,1153.2136674136855,None,1153.2136674136855,None,1153.2136674136855,None,1153.2136674136855,None,1,1153.2136674136855,None,1154.1807023393922,None,1154.1807023393922,None,1154.1807023393922,None,1154.1807023393922,None,1154.1807023393922,None,1154.1807023393922,None,1154.1807023393922,None,1158.1656432510354,None,1158.1656432510354,None,1158.1656432510354,None,1158.1656432510354,None,1158.1656432510354,None,1158.1656432510354,None,1158.1656432510354,None,1159.166026271996,None,0.9339584967819974,,,,,,,,,,,,,,,,,,,,,24232,2019_Nov_05_1502,Mmi_3levels,3.1.5,59.97574224581828,
,,,3,1,7.9,,,,,,,,,0,2,2,2,0,19,19,9,,,,,,,,,,,,,,,,,,,,,,,,,,,,,,,,,,,,,,,,,,,,,,,,,,,,,,,,,,,True,False,True,0.58,-0.42000000000000004,-9.410000000000002,-2.254166666666667,7.9,5.645833333333334,2.822916666666667,gamble,lose,5.645833333333334,62.15458333333329,1161.1834100441774,None,1161.1834100441774,None,1161.1834100441774,None,1161.1834100441774,None,1161.1834100441774,None,1161.1834100441774,None,1161.1834100441774,None,1,1161.1834100441774,None,1162.017014830606,None,1162.017014830606,None,1162.017014830606,None,1162.017014830606,None,1162.017014830606,None,1162.017014830606,None,1162.017014830606,None,1166.001932383515,None,1166.001932383515,None,1166.001932383515,None,1166.001932383515,None,1166.001932383515,None,1166.001932383515,None,1166.001932383515,None,1175.5055872410303,None,0.8003427668008953,1167.0023390832357,None,1168.0027054649545,None,0.62,7.502807219862007,1171.0037898907904,None,None,1171.0037898907904,None,,,,,,,,,,24232,2019_Nov_05_1502,Mmi_3levels,3.1.5,59.97574224581828,
,,,3,1,8.3,,,,,,,,,0,2,2,2,0,20,20,10,,,,,,,,,,,,,,,,,,,,,,,,,,,,,,,,,,,,,,,,,,,,,,,,,,,,,,,,,,,True,True,True,0.62,-0.38,-9.790000000000003,15.110000000000003,8.3,-6.810000000000002,0.7449999999999992,gamble,win,8.3,70.45458333333329,1177.5229553340469,None,1177.5229553340469,None,1177.5229553340469,None,1177.5229553340469,None,1177.5229553340469,None,1177.5229553340469,None,1177.5229553340469,None,1,1177.5229553340469,None,1179.09030557191,None,1179.09030557191,None,1179.09030557191,None,1179.09030557191,None,1179.09030557191,None,1179.09030557191,None,1179.09030557191,None,1183.091842775233,None,1183.091842775233,None,1183.091842775233,None,1183.091842775233,None,1183.091842775233,None,1183.091842775233,None,1183.091842775233,None,1184.0755517485086,None,1.534347725333646,,,,,,,,,,,,,,,,,,,,,24232,2019_Nov_05_1502,Mmi_3levels,3.1.5,59.97574224581828,
,,,3,1,0.5,,,,,,,,,0,2,2,2,0,21,21,17,,,,,,,,,,,,,,,,,,,,,,,,,,,,,,,,,,,,,,,,,,,,,,,,,,,,,,,,,,,True,True,True,0.62,-0.38,-10.170000000000003,15.490000000000004,0.5,-14.990000000000004,-7.245000000000002,gamble,win,0.5,70.95458333333329,1186.092941280338,None,1186.092941280338,None,1186.092941280338,None,1186.092941280338,None,1186.092941280338,None,1186.092941280338,None,1186.092941280338,None,1,1186.092941280338,None,1187.8270060758805,None,1187.8270060758805,None,1187.8270060758805,None,1187.8270060758805,None,1187.8270060758805,None,1187.8270060758805,None,1187.8270060758805,None,1191.8284824821167,None,1191.8284824821167,None,1191.8284824821167,None,1191.8284824821167,None,1191.8284824821167,None,1191.8284824821167,None,1191.8284824821167,None,1192.8121962551959,None,1.7009618079755455,,,,,,,,,,,,,,,,,,,,,24232,2019_Nov_05_1502,Mmi_3levels,3.1.5,59.97574224581828,
,,,3,1,10.7,,,,,,,,,0,2,2,2,0,22,22,23,,,,,,,,,,,,,,,,,,,,,,,,,,,,,,,,,,,,,,,,,,,,,,,,,,,,,,,,,,,True,False,False,0.62,-0.38,-10.550000000000004,-2.209166666666667,10.7,8.490833333333333,4.245416666666666,gamble,lose,8.490833333333333,79.44541666666662,1194.829641144257,None,1194.829641144257,None,1194.829641144257,None,1194.829641144257,None,1194.829641144257,None,1194.829641144257,None,1194.829641144257,None,1,1194.829641144257,None,1195.496561131673,None,1195.496561131673,None,1195.496561131673,None,1195.496561131673,None,1195.496561131673,None,1195.496561131673,None,1195.496561131673,None,1199.481486044242,None,1199.481486044242,None,1199.481486044242,None,1199.481486044242,None,1199.481486044242,None,1199.481486044242,None,1199.481486044242,None,1208.9851316221757,None,0.6338259594049305,1200.4818130679196,None,1201.4822488861391,None,0.65,7.5028011401882395,1204.4833560308907,None,None,1204.4833560308907,None,,,,,,,,,,24232,2019_Nov_05_1502,Mmi_3levels,3.1.5,59.97574224581828,
,,,3,1,3.3,,,,,,,,,0,2,2,2,0,23,23,26,,,,,,,,,,,,,,,,,,,,,,,,,,,,,,,,,,,,,,,,,,,,,,,,,,,,,,,,,,,True,True,False,0.65,-0.35,-10.900000000000004,15.800000000000004,3.3,-12.500000000000004,-4.600000000000001,gamble,win,3.3,82.74541666666661,1211.0025662719272,None,1211.0025662719272,None,1211.0025662719272,None,1211.0025662719272,None,1211.0025662719272,None,1211.0025662719272,None,1211.0025662719272,None,1,1211.0025662719272,None,1212.4364665315952,None,1212.4364665315952,None,1212.4364665315952,None,1212.4364665315952,None,1212.4364665315952,None,1212.4364665315952,None,1212.4364665315952,None,1216.4380245337961,None,1216.4380245337961,None,1216.4380245337961,None,1216.4380245337961,None,1216.4380245337961,None,1216.4380245337961,None,1216.4380245337961,None,1217.4216688702581,None,1.4007969523081556,,,,,,,,,,,,,,,,,,,,,24232,2019_Nov_05_1502,Mmi_3levels,3.1.5,59.97574224581828,
,,,3,1,11.5,,,,,,,,,0,2,2,2,0,24,24,16,,,,,,,,,,,,,,,,,,,,,,,,,,,,,,,,,,,,,,,,,,,,,,,,,,,,,,,,,,,True,True,True,0.65,-0.35,-11.250000000000004,16.150000000000002,11.5,-4.650000000000002,-2.325000000000001,gamble,win,11.5,94.24541666666661,1219.4391028799582,None,1219.4391028799582,None,1219.4391028799582,None,1219.4391028799582,None,1219.4391028799582,None,1219.4391028799582,None,1219.4391028799582,None,1,1219.4391028799582,None,1220.4895157234278,None,1220.4895157234278,None,1220.4895157234278,None,1220.4895157234278,None,1220.4895157234278,None,1220.4895157234278,None,1220.4895157234278,None,1224.4911066839704,None,1224.4911066839704,None,1224.4911066839704,None,1224.4911066839704,None,1224.4911066839704,None,1224.4911066839704,None,1224.4911066839704,None,1233.978088773787,None,1.0175104858353734,1225.4748729343992,None,1226.4751858786913,None,0.66,7.502848817850463,1229.4763125424506,None,None,1229.4763125424506,None,,,,,,,,,,24232,2019_Nov_05_1502,Mmi_3levels,3.1.5,59.97574224581828,
,,,3,1,11.1,,,,,,,,,0,2,2,2,0,25,25,15,,,,,,,,,,,,,,,,,,,,,,,,,,,,,,,,,,,,,,,,,,,,,,,,,,,,,,,,,,,True,True,False,0.66,-0.33999999999999997,-11.590000000000003,16.35,11.1,-5.250000000000002,-2.625000000000001,gamble,win,11.1,105.34541666666661,1235.9955288631609,None,1235.9955288631609,None,1235.9955288631609,None,1235.9955288631609,None,1235.9955288631609,None,1235.9955288631609,None,1235.9955288631609,None,1,1235.9955288631609,None,1237.1293013852555,None,1237.1293013852555,None,1237.1293013852555,None,1237.1293013852555,None,1237.1293013852555,None,1237.1293013852555,None,1237.1293013852555,None,1241.1307813114254,None,1241.1307813114254,None,1241.1307813114254,None,1241.1307813114254,None,1241.1307813114254,None,1241.1307813114254,None,1241.1307813114254,None,1242.1311451332876,None,1.117331102839671,,,,,,,,,,,,,,,,,,,,,24232,2019_Nov_05_1502,Mmi_3levels,3.1.5,59.97574224581828,
,,,3,1,10.3,,,,,,,,,0,2,2,2,0,26,26,19,,,,,,,,,,,,,,,,,,,,,,,,,,,,,,,,,,,,,,,,,,,,,,,,,,,,,,,,,,,True,True,False,0.66,-0.33999999999999997,-11.930000000000003,16.690000000000005,10.3,-6.390000000000004,1.9549999999999983,gamble,win,10.3,115.6454166666666,1244.1486620188225,None,1244.1486620188225,None,1244.1486620188225,None,1244.1486620188225,None,1244.1486620188225,None,1244.1486620188225,None,1244.1486620188225,None,1,1244.1486620188225,None,1245.0490359520772,None,1245.0490359520772,None,1245.0490359520772,None,1245.0490359520772,None,1245.0490359520772,None,1245.0490359520772,None,1245.0490359520772,None,1249.0505037188996,None,1249.0505037188996,None,1249.0505037188996,None,1249.0505037188996,None,1249.0505037188996,None,1249.0505037188996,None,1249.0505037188996,None,1258.5374886885984,None,0.8672626262996346,1250.0342424506089,None,1251.0345966729801,None,0.67,7.502851697616279,1254.0357866935665,None,None,1254.0357866935665,None,,,,,,,,,,24232,2019_Nov_05_1502,Mmi_3levels,3.1.5,59.97574224581828,
,,,,,,,,,,,,,,,,,,,,,,,,,,,,,,,,,,,,,,,,,,,,,,,,,,,,,,,,,,,,,,,,,,,,,,,,,,,,,,,,,,,,,,,,,,,,,,,,,,,,,,,,,,,,,,,,,,,,,,,,,,,,,,,,,,,,,,,,,,,,,,,,,,,,,,,,,1260.5382454508217,None,4,4.0851384699344635,1260.5382454508217,None,,115.6454166666666,3,,,,,,
