currSlide,currImage,currText,blockNum,targetHappiness,highAmount,instructionLoop1.thisRepN,instructionLoop1.thisTrialN,instructionLoop1.thisN,instructionLoop1.thisIndex,instructionLoop2.thisRepN,instructionLoop2.thisTrialN,instructionLoop2.thisN,instructionLoop2.thisIndex,blockLoop.thisRepN,blockLoop.thisTrialN,blockLoop.thisN,blockLoop.thisIndex,trialLoop.thisRepN,trialLoop.thisTrialN,trialLoop.thisN,trialLoop.thisIndex,doRatingLoop.thisRepN,doRatingLoop.thisTrialN,doRatingLoop.thisN,doRatingLoop.thisIndex,trialHappyLoop.thisRepN,trialHappyLoop.thisTrialN,trialHappyLoop.thisN,trialHappyLoop.thisIndex,logWinningsLoop.thisRepN,logWinningsLoop.thisTrialN,logWinningsLoop.thisN,logWinningsLoop.thisIndex,instrImage.started,instrImage.stopped,instrText.started,instrText.stopped,instrContinueText.started,instrContinueText.stopped,instrKeyResp.keys,instrKeyResp.rt,instrKeyResp.started,instrKeyResp.stopped,lifeHappyText.started,lifeHappyText.stopped,lifeHappySlider.response,lifeHappySlider.rt,lifeHappySlider.started,lifeHappySlider.stopped,lifeHappyResp.keys,lifeHappyResp.rt,lifeHappyResp.started,lifeHappyResp.stopped,instrImage_2.started,instrImage_2.stopped,instrText_2.started,instrText_2.stopped,instrContinueText_2.started,instrContinueText_2.stopped,instrKeyResp_2.keys,instrKeyResp_2.rt,instrKeyResp_2.started,instrKeyResp_2.stopped,localizing.started,localizing.stopped,start_exp.keys,start_exp.rt,start_exp.started,start_exp.stopped,blockHappyText.started,blockHappyText.stopped,blockHappySlider.response,blockHappySlider.rt,blockHappySlider.started,blockHappySlider.stopped,blockHappyResp.keys,blockHappyResp.rt,blockHappyResp.started,blockHappyResp.stopped,blankText.started,blankText.stopped,isHappyBlock,isCongruent,isWinOnTop,lastHappyRating,diff,sumDiff,RPE,winAmount,loseAmount,certainAmount,choice,outcome,outcomeAmount,currentWinnings,fixCross.started,fixCross.stopped,certainBox.started,certainBox.stopped,outcome1Box.started,outcome1Box.stopped,outcome2Box.started,outcome2Box.stopped,certainText.started,certainText.stopped,outcome1Text.started,outcome1Text.stopped,outcome2Text.started,outcome2Text.stopped,choiceKey.keys,choiceKey.rt,choiceKey.started,choiceKey.stopped,fixCross_2.started,fixCross_2.stopped,certainBox_2.started,certainBox_2.stopped,outcome1Box_2.started,outcome1Box_2.stopped,outcome2Box_2.started,outcome2Box_2.stopped,certainText_2.started,certainText_2.stopped,outcome1Text_2.started,outcome1Text_2.stopped,outcome2Text_2.started,outcome2Text_2.stopped,fixCross_3.started,fixCross_3.stopped,certainBox_3.started,certainBox_3.stopped,outcome1Box_3.started,outcome1Box_3.stopped,outcome2Box_3.started,outcome2Box_3.stopped,certainText_3.started,certainText_3.stopped,outcome1Text_3.started,outcome1Text_3.stopped,outcome2Text_3.started,outcome2Text_3.stopped,fixCross_ITI.started,fixCross_ITI.stopped,fixCross_ISI.started,fixCross_ISI.stopped,happyText.started,happyText.stopped,happySlider.response,happySlider.rt,happySlider.started,happySlider.stopped,happyResp.keys,happyResp.started,happyResp.stopped,endOfBlockText.started,endOfBlockText.stopped,restKeyResp.keys,restKeyResp.rt,restKeyResp.started,restKeyResp.stopped,finalWinnings,cashBonus,goodbyeText.started,goodbyeText.stopped,finalWinningsText.started,finalWinningsText.stopped,spaceToContinue.started,spaceToContinue.stopped,goodbyeKeyResp_2.keys,goodbyeKeyResp_2.rt,goodbyeKeyResp_2.started,goodbyeKeyResp_2.stopped,participant,date,expName,psychopyVersion,frameRate,
1,black.png,"Welcome! You are about to play our gambling task.
This task has 3 blocks and takes about 15 minutes.",,,,0,0,0,0,,,,,,,,,,,,,,,,,,,,,,,,,22.605069156124955,None,22.605069156124955,None,22.605069156124955,None,4,5.185689121411997,22.605069156124955,None,,,,,,,,,,,,,,,,,,,,,,,,,,,,,,,,,,,,,,,,,,,,,,,,,,,,,,,,,,,,,,,,,,,,,,,,,,,,,,,,,,,,,,,,,,,,,,,,,,,,,,,,,,,,,,,,,,,,,,,,,,,,,,,,,,23641,2019_Nov_20_1652,Mmi_3levels,3.1.5,59.98819498319121,
2,black.png,"In this game, you may win or lose points. Your goal is to get as many points as possible. These points will be converted to a cash bonus at the end.
Sometimes we will ask you to rate your mood.",,,,0,1,1,1,,,,,,,,,,,,,,,,,,,,,,,,,27.840398057705897,None,27.840398057705897,None,27.840398057705897,None,4,16.94005199708772,27.840398057705897,None,,,,,,,,,,,,,,,,,,,,,,,,,,,,,,,,,,,,,,,,,,,,,,,,,,,,,,,,,,,,,,,,,,,,,,,,,,,,,,,,,,,,,,,,,,,,,,,,,,,,,,,,,,,,,,,,,,,,,,,,,,,,,,,,,,23641,2019_Nov_20_1652,Mmi_3levels,3.1.5,59.98819498319121,
3,black.png,"On the next screen, please rate how you feel about your life these days. Use the LEFT (green) and RIGHT (blue) buttons to move the slider (you can press and hold them to slide gradually) and the TOP (red) button to lock in your response.
Make your rating as accurately and quickly as you can!",,,,0,2,2,2,,,,,,,,,,,,,,,,,,,,,,,,,44.83014231202833,None,44.83014231202833,None,44.83014231202833,None,4,10.204200724761904,44.83014231202833,None,,,,,,,,,,,,,,,,,,,,,,,,,,,,,,,,,,,,,,,,,,,,,,,,,,,,,,,,,,,,,,,,,,,,,,,,,,,,,,,,,,,,,,,,,,,,,,,,,,,,,,,,,,,,,,,,,,,,,,,,,,,,,,,,,,23641,2019_Nov_20_1652,Mmi_3levels,3.1.5,59.98819498319121,
,,,,,,,,,,,,,,,,,,,,,,,,,,,,,,,,,,,,,,,,,,,,55.05069892085885,None,0.42,6.5847966913861455,59.05220507651393,None,4,2.5678360411839094,59.05220507651393,None,,,,,,,,,,,,,,,,,,,,,,,,,,,,,,,,,,,,,,,,,,,,,,,,,,,,,,,,,,,,,,,,,,,,,,,,,,,,,,,,,,,,,,,,,,,,,,,,,,,,,,,,,,,,,,,,,,,,,,,,23641,2019_Nov_20_1652,Mmi_3levels,3.1.5,59.98819498319121,
4,black.png,"In this game you can win money by earning points according to your choices. You will decide whether to gamble a number of points or stick with a guaranteed number of points. 
Make your choice by pressing the left or right arrow key once. An example of one trial is shown on the next screen.",,,,,,,,0,0,0,0,,,,,,,,,,,,,,,,,,,,,,,,,,,,,,,,,,,,,,,,,61.686565072355734,None,61.686565072355734,None,61.686565072355734,None,4,11.654661898934137,61.686565072355734,None,,,,,,,,,,,,,,,,,,,,,,,,,,,,,,,,,,,,,,,,,,,,,,,,,,,,,,,,,,,,,,,,,,,,,,,,,,,,,,,,,,,,,,,,,,,,,,,,,,,,,,,,,,,,,,23641,2019_Nov_20_1652,Mmi_3levels,3.1.5,59.98819498319121,
5,example_start.png,"The GAMBLING OPTION will be shown on the RIGHT SIDE. 
Select this option using the RIGHT (blue) button on your keypad.",,,,,,,,0,1,1,1,,,,,,,,,,,,,,,,,,,,,,,,,,,,,,,,,,,,,,,,,73.4076469317697,None,73.4076469317697,None,73.4076469317697,None,4,15.5396753781788,73.4076469317697,None,,,,,,,,,,,,,,,,,,,,,,,,,,,,,,,,,,,,,,,,,,,,,,,,,,,,,,,,,,,,,,,,,,,,,,,,,,,,,,,,,,,,,,,,,,,,,,,,,,,,,,,,,,,,,,23641,2019_Nov_20_1652,Mmi_3levels,3.1.5,59.98819498319121,
6,example_gamble.png,"Once you select the gambling choice, the choice you made will remain on the screen.",,,,,,,,0,2,2,2,,,,,,,,,,,,,,,,,,,,,,,,,,,,,,,,,,,,,,,,,88.98026574511823,None,88.98026574511823,None,88.98026574511823,None,4,4.1351821897951595,88.98026574511823,None,,,,,,,,,,,,,,,,,,,,,,,,,,,,,,,,,,,,,,,,,,,,,,,,,,,,,,,,,,,,,,,,,,,,,,,,,,,,,,,,,,,,,,,,,,,,,,,,,,,,,,,,,,,,,,23641,2019_Nov_20_1652,Mmi_3levels,3.1.5,59.98819498319121,
7,example_win.png,"The outcome you received will then be shown on the screen. In this example , you WON 10 points.",,,,,,,,0,3,3,3,,,,,,,,,,,,,,,,,,,,,,,,,,,,,,,,,,,,,,,,,93.14850624364772,None,93.14850624364772,None,93.14850624364772,None,4,4.718804226962675,93.14850624364772,None,,,,,,,,,,,,,,,,,,,,,,,,,,,,,,,,,,,,,,,,,,,,,,,,,,,,,,,,,,,,,,,,,,,,,,,,,,,,,,,,,,,,,,,,,,,,,,,,,,,,,,,,,,,,,,23641,2019_Nov_20_1652,Mmi_3levels,3.1.5,59.98819498319121,
8,example_start.png,"The GUARANTEED OPTION will be shown on the LEFT SIDE. You are 100% guaranteed to gain or lose this amount. In this example, you have a 100% chance of winning 1 point. Select this option using the LEFT (green) button on your keyboard.",,,,,,,,0,4,4,4,,,,,,,,,,,,,,,,,,,,,,,,,,,,,,,,,,,,,,,,,97.91692369227167,None,97.91692369227167,None,97.91692369227167,None,4,10.65408497124372,97.91692369227167,None,,,,,,,,,,,,,,,,,,,,,,,,,,,,,,,,,,,,,,,,,,,,,,,,,,,,,,,,,,,,,,,,,,,,,,,,,,,,,,,,,,,,,,,,,,,,,,,,,,,,,,,,,,,,,,23641,2019_Nov_20_1652,Mmi_3levels,3.1.5,59.98819498319121,
9,example_certain.png,"Once you select the guaranteed choice, your selection will remain on the screen.",,,,,,,,0,5,5,5,,,,,,,,,,,,,,,,,,,,,,,,,,,,,,,,,,,,,,,,,108.60431111857542,None,108.60431111857542,None,108.60431111857542,None,4,5.519116529474559,108.60431111857542,None,,,,,,,,,,,,,,,,,,,,,,,,,,,,,,,,,,,,,,,,,,,,,,,,,,,,,,,,,,,,,,,,,,,,,,,,,,,,,,,,,,,,,,,,,,,,,,,,,,,,,,,,,,,,,,23641,2019_Nov_20_1652,Mmi_3levels,3.1.5,59.98819498319121,
10,black.png,"Please make your choices as fast as possible.
You will be given a break at the end of each block.
Let's play!",,,,,,,,0,6,6,6,,,,,,,,,,,,,,,,,,,,,,,,,,,,,,,,,,,,,,,,,114.15641396081628,None,114.15641396081628,None,114.15641396081628,None,4,3.3182487380727252,114.15641396081628,None,,,,,,,,,,,,,,,,,,,,,,,,,,,,,,,,,,,,,,,,,,,,,,,,,,,,,,,,,,,,,,,,,,,,,,,,,,,,,,,,,,,,,,,,,,,,,,,,,,,,,,,,,,,,,,23641,2019_Nov_20_1652,Mmi_3levels,3.1.5,59.98819498319121,
,,,,,,,,,,,,,,,,,,,,,,,,,,,,,,,,,,,,,,,,,,,,,,,,,,,,,,,,,,,,,,,,117.49107873958928,None,space,50.60279984321096,117.49107873958928,None,,,,,,,,,,,,,,,,,,,,,,,,,,,,,,,,,,,,,,,,,,,,,,,,,,,,,,,,,,,,,,,,,,,,,,,,,,,,,,,,,,,,,,,,,,,,,,,,,,,,,,,,23641,2019_Nov_20_1652,Mmi_3levels,3.1.5,59.98819498319121,
,,,1,1,5.7,,,,,,,,,0,0,0,0,0,0,0,4,,,,,,,,,,,,,,,,,,,,,,,,,,,,,,,,,,,,,,,,,,,,,,,,,168.11021750781947,None,0.58,5.1090268544976425,171.12804754933677,None,4,2.0843203980584804,171.12804754933677,None,173.22882878558812,None,True,True,True,0.58,-0.42000000000000004,-0.42000000000000004,6.300000000000001,5.7,-0.6000000000000005,-0.30000000000000027,certain,certain,-0.30000000000000027,-0.30000000000000027,176.2633318134176,None,176.2633318134176,None,176.2633318134176,None,176.2633318134176,None,176.2633318134176,None,176.2633318134176,None,176.2633318134176,None,3,2.034328637597355,176.2633318134176,None,178.3307837161119,None,178.3307837161119,None,178.3307837161119,None,178.3307837161119,None,178.3307837161119,None,178.3307837161119,None,178.3307837161119,None,182.3155944867067,None,182.3155944867067,None,182.3155944867067,None,182.3155944867067,None,182.3155944867067,None,182.3155944867067,None,182.3155944867067,None,183.3159512667262,None,,,,,,,,,,,,,,,,,,,,,,,,,,,,,,23641,2019_Nov_20_1652,Mmi_3levels,3.1.5,59.98819498319121,
,,,1,1,2.3,,,,,,,,,0,0,0,0,0,1,1,24,,,,,,,,,,,,,,,,,,,,,,,,,,,,,,,,,,,,,,,,,,,,,,,,,,,,,,,,,,,,,True,True,False,0.58,-0.42000000000000004,-0.8400000000000001,6.720000000000001,2.3,-4.420000000000001,-1.0600000000000005,gamble,win,2.3,1.9999999999999996,185.33343924740257,None,185.33343924740257,None,185.33343924740257,None,185.33343924740257,None,185.33343924740257,None,185.33343924740257,None,185.33343924740257,None,None,,185.33343924740257,None,188.334531026263,None,188.334531026263,None,188.334531026263,None,188.334531026263,None,188.334531026263,None,188.334531026263,None,188.334531026263,None,192.3360858191918,None,192.3360858191918,None,192.3360858191918,None,192.3360858191918,None,192.3360858191918,None,192.3360858191918,None,192.3360858191918,None,193.31974369435193,None,,,,,,,,,,,,,,,,,,,,,,,,,,,,,,23641,2019_Nov_20_1652,Mmi_3levels,3.1.5,59.98819498319121,
,,,1,1,4.7,,,,,,,,,0,0,0,0,0,2,2,25,,,,,,,,,,,,,,,,,,,,,,,,,,,,,,,,,,,,,,,,,,,,,,,,,,,,,,,,,,,,,True,True,False,0.58,-0.42000000000000004,-1.2600000000000002,7.140000000000001,4.7,-2.4400000000000004,1.13,gamble,win,4.7,6.699999999999999,195.3372447942893,None,195.3372447942893,None,195.3372447942893,None,195.3372447942893,None,195.3372447942893,None,195.3372447942893,None,195.3372447942893,None,1,2.401139136210986,195.3372447942893,None,197.7714527986427,None,197.7714527986427,None,197.7714527986427,None,197.7714527986427,None,197.7714527986427,None,197.7714527986427,None,197.7714527986427,None,201.77296471397494,None,201.77296471397494,None,201.77296471397494,None,201.77296471397494,None,201.77296471397494,None,201.77296471397494,None,201.77296471397494,None,211.2599256041649,None,202.7566187493503,None,203.75702992632432,None,0.47,7.502814082410623,206.7581853816191,None,None,206.7581853816191,None,,,,,,,,,,,,,,,,,,,23641,2019_Nov_20_1652,Mmi_3levels,3.1.5,59.98819498319121,
,,,1,1,3.7,,,,,,,,,0,0,0,0,0,3,3,10,,,,,,,,,,,,,,,,,,,,,,,,,,,,,,,,,,,,,,,,,,,,,,,,,,,,,,,,,,,,,True,False,False,0.47,-0.53,-1.7900000000000003,-2.004166666666667,3.7,1.6958333333333333,0.8479166666666667,gamble,lose,1.6958333333333333,8.395833333333332,213.27727055284777,None,213.27727055284777,None,213.27727055284777,None,213.27727055284777,None,213.27727055284777,None,213.27727055284777,None,213.27727055284777,None,1,1.8343167982602608,213.27727055284777,None,215.1446469397706,None,215.1446469397706,None,215.1446469397706,None,215.1446469397706,None,215.1446469397706,None,215.1446469397706,None,215.1446469397706,None,219.14621229211116,None,219.14621229211116,None,219.14621229211116,None,219.14621229211116,None,219.14621229211116,None,219.14621229211116,None,219.14621229211116,None,220.12998888062066,None,,,,,,,,,,,,,,,,,,,,,,,,,,,,,,23641,2019_Nov_20_1652,Mmi_3levels,3.1.5,59.98819498319121,
,,,1,1,1.5,,,,,,,,,0,0,0,0,0,4,4,26,,,,,,,,,,,,,,,,,,,,,,,,,,,,,,,,,,,,,,,,,,,,,,,,,,,,,,,,,,,,,True,True,False,0.47,-0.53,-2.3200000000000003,9.74,1.5,-8.24,-3.37,gamble,win,1.5,9.895833333333332,222.14729895125856,None,222.14729895125856,None,222.14729895125856,None,222.14729895125856,None,222.14729895125856,None,222.14729895125856,None,222.14729895125856,None,None,,222.14729895125856,None,225.14848576479562,None,225.14848576479562,None,225.14848576479562,None,225.14848576479562,None,225.14848576479562,None,225.14848576479562,None,225.14848576479562,None,229.1333922100348,None,229.1333922100348,None,229.1333922100348,None,229.1333922100348,None,229.1333922100348,None,229.1333922100348,None,229.1333922100348,None,238.63692977193205,None,230.13371507195552,None,231.13406705224406,None,0.47,7.502817602213327,234.13521450798726,None,None,234.13521450798726,None,,,,,,,,,,,,,,,,,,,23641,2019_Nov_20_1652,Mmi_3levels,3.1.5,59.98819498319121,
,,,1,1,3.1,,,,,,,,,0,0,0,0,0,5,5,22,,,,,,,,,,,,,,,,,,,,,,,,,,,,,,,,,,,,,,,,,,,,,,,,,,,,,,,,,,,,,True,True,False,0.47,-0.53,-2.8500000000000005,10.27,3.1,-7.17,-2.035,gamble,win,3.1,12.995833333333332,240.65434319678025,None,240.65434319678025,None,240.65434319678025,None,240.65434319678025,None,240.65434319678025,None,240.65434319678025,None,240.65434319678025,None,1,1.2841421680386702,240.65434319678025,None,241.9715343940734,None,241.9715343940734,None,241.9715343940734,None,241.9715343940734,None,241.9715343940734,None,241.9715343940734,None,241.9715343940734,None,245.97303894981815,None,245.97303894981815,None,245.97303894981815,None,245.97303894981815,None,245.97303894981815,None,245.97303894981815,None,245.97303894981815,None,246.95671858375863,None,,,,,,,,,,,,,,,,,,,,,,,,,,,,,,23641,2019_Nov_20_1652,Mmi_3levels,3.1.5,59.98819498319121,
,,,1,1,-0.3,,,,,,,,,0,0,0,0,0,6,6,0,,,,,,,,,,,,,,,,,,,,,,,,,,,,,,,,,,,,,,,,,,,,,,,,,,,,,,,,,,,,,True,True,False,0.47,-0.53,-3.380000000000001,10.8,-0.3,-11.100000000000001,-5.700000000000001,certain,certain,-5.700000000000001,7.295833333333331,248.97417904597387,None,248.97417904597387,None,248.97417904597387,None,248.97417904597387,None,248.97417904597387,None,248.97417904597387,None,248.97417904597387,None,3,2.8513257657577924,248.97417904597387,None,251.85855320101837,None,251.85855320101837,None,251.85855320101837,None,251.85855320101837,None,251.85855320101837,None,251.85855320101837,None,251.85855320101837,None,255.8434010895362,None,255.8434010895362,None,255.8434010895362,None,255.8434010895362,None,255.8434010895362,None,255.8434010895362,None,255.8434010895362,None,256.8438234658861,None,,,,,,,,,,,,,,,,,,,,,,,,,,,,,,23641,2019_Nov_20_1652,Mmi_3levels,3.1.5,59.98819498319121,
,,,1,1,11.3,,,,,,,,,0,0,0,0,0,7,7,15,,,,,,,,,,,,,,,,,,,,,,,,,,,,,,,,,,,,,,,,,,,,,,,,,,,,,,,,,,,,,True,True,True,0.47,-0.53,-3.910000000000001,11.330000000000002,11.3,-0.030000000000001137,-0.015000000000000568,gamble,win,11.3,18.59583333333333,258.86125576967606,None,258.86125576967606,None,258.86125576967606,None,258.86125576967606,None,258.86125576967606,None,258.86125576967606,None,258.86125576967606,None,1,1.8509488268646237,258.86125576967606,None,260.7452497860104,None,260.7452497860104,None,260.7452497860104,None,260.7452497860104,None,260.7452497860104,None,260.7452497860104,None,260.7452497860104,None,264.73008935499456,None,264.73008935499456,None,264.73008935499456,None,264.73008935499456,None,264.73008935499456,None,264.73008935499456,None,264.73008935499456,None,274.2336886734338,None,265.7305200508745,None,266.7309008295524,None,0.5,7.502684809649509,269.73202460661923,None,None,269.73202460661923,None,,,,,,,,,,,,,,,,,,,23641,2019_Nov_20_1652,Mmi_3levels,3.1.5,59.98819498319121,
,,,1,1,8.7,,,,,,,,,0,0,0,0,0,8,8,21,,,,,,,,,,,,,,,,,,,,,,,,,,,,,,,,,,,,,,,,,,,,,,,,,,,,,,,,,,,,,True,False,True,0.5,-0.5,-4.410000000000001,-2.1175,8.7,6.5825,3.29125,gamble,lose,6.5825,25.17833333333333,276.251178893981,None,276.251178893981,None,276.251178893981,None,276.251178893981,None,276.251178893981,None,276.251178893981,None,276.251178893981,None,1,2.26782724167424,276.251178893981,None,278.552046845376,None,278.552046845376,None,278.552046845376,None,278.552046845376,None,278.552046845376,None,278.552046845376,None,278.552046845376,None,282.53683489724426,None,282.53683489724426,None,282.53683489724426,None,282.53683489724426,None,282.53683489724426,None,282.53683489724426,None,282.53683489724426,None,283.5372127960836,None,,,,,,,,,,,,,,,,,,,,,,,,,,,,,,23641,2019_Nov_20_1652,Mmi_3levels,3.1.5,59.98819498319121,
,,,1,1,6.1,,,,,,,,,0,0,0,0,0,9,9,13,,,,,,,,,,,,,,,,,,,,,,,,,,,,,,,,,,,,,,,,,,,,,,,,,,,,,,,,,,,,,True,True,True,0.5,-0.5,-4.910000000000001,11.91,6.1,-5.8100000000000005,0.14499999999999957,gamble,win,6.1,31.27833333333333,285.55468541761365,None,285.55468541761365,None,285.55468541761365,None,285.55468541761365,None,285.55468541761365,None,285.55468541761365,None,285.55468541761365,None,1,2.2844573503862193,285.55468541761365,None,287.87224395433805,None,287.87224395433805,None,287.87224395433805,None,287.87224395433805,None,287.87224395433805,None,287.87224395433805,None,287.87224395433805,None,291.8570265665112,None,291.8570265665112,None,291.8570265665112,None,291.8570265665112,None,291.8570265665112,None,291.8570265665112,None,291.8570265665112,None,301.3606313246455,None,292.85740734518913,None,293.85783964097936,None,0.53,7.502713928020967,296.85890774116706,None,None,296.85890774116706,None,,,,,,,,,,,,,,,,,,,23641,2019_Nov_20_1652,Mmi_3levels,3.1.5,59.98819498319121,
,,,1,1,3.5,,,,,,,,,0,0,0,0,0,10,10,11,,,,,,,,,,,,,,,,,,,,,,,,,,,,,,,,,,,,,,,,,,,,,,,,,,,,,,,,,,,,,True,True,False,0.53,-0.47,-5.380000000000001,11.96,3.5,-8.46,-2.4800000000000004,gamble,win,3.5,34.77833333333333,303.37811674546174,None,303.37811674546174,None,303.37811674546174,None,303.37811674546174,None,303.37811674546174,None,303.37811674546174,None,303.37811674546174,None,1,1.5508283536109957,303.37811674546174,None,304.9620408457122,None,304.9620408457122,None,304.9620408457122,None,304.9620408457122,None,304.9620408457122,None,304.9620408457122,None,304.9620408457122,None,308.9468327373652,None,308.9468327373652,None,308.9468327373652,None,308.9468327373652,None,308.9468327373652,None,308.9468327373652,None,308.9468327373652,None,309.9472640732092,None,,,,,,,,,,,,,,,,,,,,,,,,,,,,,,23641,2019_Nov_20_1652,Mmi_3levels,3.1.5,59.98819498319121,
,,,1,1,4.3,,,,,,,,,0,0,0,0,0,11,11,20,,,,,,,,,,,,,,,,,,,,,,,,,,,,,,,,,,,,,,,,,,,,,,,,,,,,,,,,,,,,,True,True,True,0.53,-0.47,-5.8500000000000005,12.43,4.3,-8.129999999999999,-1.9149999999999996,gamble,win,4.3,39.078333333333326,311.9646976569311,None,311.9646976569311,None,311.9646976569311,None,311.9646976569311,None,311.9646976569311,None,311.9646976569311,None,311.9646976569311,None,1,1.550621005222638,311.9646976569311,None,313.5486230371098,None,313.5486230371098,None,313.5486230371098,None,313.5486230371098,None,313.5486230371098,None,313.5486230371098,None,313.5486230371098,None,317.5500991144472,None,317.5500991144472,None,317.5500991144472,None,317.5500991144472,None,317.5500991144472,None,317.5500991144472,None,317.5500991144472,None,327.0370724839413,None,318.53380370699233,None,319.5341822457922,None,0.5,7.502809282683302,322.53530954266535,None,None,322.53530954266535,None,,,,,,,,,,,,,,,,,,,23641,2019_Nov_20_1652,Mmi_3levels,3.1.5,59.98819498319121,
,,,1,1,2.5,,,,,,,,,0,0,0,0,0,12,12,7,,,,,,,,,,,,,,,,,,,,,,,,,,,,,,,,,,,,,,,,,,,,,,,,,,,,,,,,,,,,,True,True,False,0.5,-0.5,-6.3500000000000005,13.350000000000001,2.5,-10.850000000000001,-4.175000000000001,gamble,win,2.5,41.578333333333326,329.0545108673905,None,329.0545108673905,None,329.0545108673905,None,329.0545108673905,None,329.0545108673905,None,329.0545108673905,None,329.0545108673905,None,1,1.6175081395449524,329.0545108673905,None,330.70511635348157,None,330.70511635348157,None,330.70511635348157,None,330.70511635348157,None,330.70511635348157,None,330.70511635348157,None,330.70511635348157,None,334.7066545073467,None,334.7066545073467,None,334.7066545073467,None,334.7066545073467,None,334.7066545073467,None,334.7066545073467,None,334.7066545073467,None,335.69030118313094,None,,,,,,,,,,,,,,,,,,,,,,,,,,,,,,23641,2019_Nov_20_1652,Mmi_3levels,3.1.5,59.98819498319121,
,,,1,1,10.9,,,,,,,,,0,0,0,0,0,13,13,5,,,,,,,,,,,,,,,,,,,,,,,,,,,,,,,,,,,,,,,,,,,,,,,,,,,,,,,,,,,,,True,True,True,0.5,-0.5,-6.8500000000000005,13.850000000000001,10.9,-2.950000000000001,-1.4750000000000005,gamble,win,10.9,52.478333333333325,337.7077277272474,None,337.7077277272474,None,337.7077277272474,None,337.7077277272474,None,337.7077277272474,None,337.7077277272474,None,337.7077277272474,None,1,1.0506547633340233,337.7077277272474,None,338.79147375746834,None,338.79147375746834,None,338.79147375746834,None,338.79147375746834,None,338.79147375746834,None,338.79147375746834,None,338.79147375746834,None,342.79304198964746,None,342.79304198964746,None,342.79304198964746,None,342.79304198964746,None,342.79304198964746,None,342.79304198964746,None,342.79304198964746,None,343.77669762493315,None,,,,,,,,,,,,,,,,,,,,,,,,,,,,,,23641,2019_Nov_20_1652,Mmi_3levels,3.1.5,59.98819498319121,
,,,1,1,12.1,,,,,,,,,0,0,0,0,0,14,14,3,,,,,,,,,,,,,,,,,,,,,,,,,,,,,,,,,,,,,,,,,,,,,,,,,,,,,,,,,,,,,True,True,False,0.5,-0.5,-7.3500000000000005,14.350000000000001,12.1,-2.2500000000000018,-1.1250000000000009,gamble,win,12.1,64.57833333333332,345.84415080755207,None,345.84415080755207,None,345.84415080755207,None,345.84415080755207,None,345.84415080755207,None,345.84415080755207,None,345.84415080755207,None,1,1.050708200338704,345.84415080755207,None,346.92789235802775,None,346.92789235802775,None,346.92789235802775,None,346.92789235802775,None,346.92789235802775,None,346.92789235802775,None,346.92789235802775,None,350.92940427336,None,350.92940427336,None,350.92940427336,None,350.92940427336,None,350.92940427336,None,350.92940427336,None,350.92940427336,None,360.41636132376516,None,351.91311238570415,None,352.91348836465113,None,0.5,7.502771844774543,355.91467005847517,None,None,355.91467005847517,None,,,,,,,,,,,,,,,,,,,23641,2019_Nov_20_1652,Mmi_3levels,3.1.5,59.98819498319121,
,,,1,1,5.9,,,,,,,,,0,0,0,0,0,15,15,19,,,,,,,,,,,,,,,,,,,,,,,,,,,,,,,,,,,,,,,,,,,,,,,,,,,,,,,,,,,,,True,False,False,0.5,-0.5,-7.8500000000000005,-2.404166666666667,5.9,3.4958333333333336,1.7479166666666668,gamble,lose,3.4958333333333336,68.07416666666666,362.43386946330793,None,362.43386946330793,None,362.43386946330793,None,362.43386946330793,None,362.43386946330793,None,362.43386946330793,None,362.43386946330793,None,1,1.1005444495131087,362.43386946330793,None,363.56752309870353,None,363.56752309870353,None,363.56752309870353,None,363.56752309870353,None,363.56752309870353,None,363.56752309870353,None,363.56752309870353,None,367.55241834457047,None,367.55241834457047,None,367.55241834457047,None,367.55241834457047,None,367.55241834457047,None,367.55241834457047,None,367.55241834457047,None,368.55274440631183,None,,,,,,,,,,,,,,,,,,,,,,,,,,,,,,23641,2019_Nov_20_1652,Mmi_3levels,3.1.5,59.98819498319121,
,,,1,1,8.3,,,,,,,,,0,0,0,0,0,16,16,6,,,,,,,,,,,,,,,,,,,,,,,,,,,,,,,,,,,,,,,,,,,,,,,,,,,,,,,,,,,,,True,True,False,0.5,-0.5,-8.350000000000001,15.350000000000001,8.3,-7.050000000000001,0.625,gamble,win,8.3,76.37416666666665,370.57022982712806,None,370.57022982712806,None,370.57022982712806,None,370.57022982712806,None,370.57022982712806,None,370.57022982712806,None,370.57022982712806,None,1,1.8676166934674256,370.57022982712806,None,372.4709429071954,None,372.4709429071954,None,372.4709429071954,None,372.4709429071954,None,372.4709429071954,None,372.4709429071954,None,372.4709429071954,None,376.4557367187408,None,376.4557367187408,None,376.4557367187408,None,376.4557367187408,None,376.4557367187408,None,376.4557367187408,None,376.4557367187408,None,385.9593897941704,None,377.45616389482166,None,378.45654467349596,None,0.5,7.502760325423878,381.45766621069197,None,None,381.45766621069197,None,,,,,,,,,,,,,,,,,,,23641,2019_Nov_20_1652,Mmi_3levels,3.1.5,59.98819498319121,
,,,1,1,9.9,,,,,,,,,0,0,0,0,0,17,17,9,,,,,,,,,,,,,,,,,,,,,,,,,,,,,,,,,,,,,,,,,,,,,,,,,,,,,,,,,,,,,True,True,True,0.5,-0.5,-8.850000000000001,15.850000000000001,9.9,-5.950000000000001,1.9749999999999996,gamble,win,9.9,86.27416666666666,387.97676802098795,None,387.97676802098795,None,387.97676802098795,None,387.97676802098795,None,387.97676802098795,None,387.97676802098795,None,387.97676802098795,None,1,1.5339787371885905,387.97676802098795,None,389.5440287343881,None,389.5440287343881,None,389.5440287343881,None,389.5440287343881,None,389.5440287343881,None,389.5440287343881,None,389.5440287343881,None,393.52886350364133,None,393.52886350364133,None,393.52886350364133,None,393.52886350364133,None,393.52886350364133,None,393.52886350364133,None,393.52886350364133,None,394.5292951594711,None,,,,,,,,,,,,,,,,,,,,,,,,,,,,,,23641,2019_Nov_20_1652,Mmi_3levels,3.1.5,59.98819498319121,
,,,1,1,-0.5,,,,,,,,,0,0,0,0,0,18,18,2,,,,,,,,,,,,,,,,,,,,,,,,,,,,,,,,,,,,,,,,,,,,,,,,,,,,,,,,,,,,,True,False,False,0.5,-0.5,-9.350000000000001,-2.529166666666667,-0.5,-3.029166666666667,-1.7645833333333334,gamble,lose,-3.029166666666667,83.24499999999999,396.5466813858402,None,396.5466813858402,None,396.5466813858402,None,396.5466813858402,None,396.5466813858402,None,396.5466813858402,None,396.5466813858402,None,1,2.3344587103129015,396.5466813858402,None,398.9142371227208,None,398.9142371227208,None,398.9142371227208,None,398.9142371227208,None,398.9142371227208,None,398.9142371227208,None,398.9142371227208,None,402.89907765165117,None,402.89907765165117,None,402.89907765165117,None,402.89907765165117,None,402.89907765165117,None,402.89907765165117,None,402.89907765165117,None,403.89951826697506,None,,,,,,,,,,,,,,,,,,,,,,,,,,,,,,23641,2019_Nov_20_1652,Mmi_3levels,3.1.5,59.98819498319121,
,,,1,1,9.1,,,,,,,,,0,0,0,0,0,19,19,18,,,,,,,,,,,,,,,,,,,,,,,,,,,,,,,,,,,,,,,,,,,,,,,,,,,,,,,,,,,,,True,True,True,0.5,-0.5,-9.850000000000001,16.85,9.1,-7.750000000000002,0.6749999999999989,gamble,win,9.1,92.34499999999998,405.91693265176946,None,405.91693265176946,None,405.91693265176946,None,405.91693265176946,None,405.91693265176946,None,405.91693265176946,None,405.91693265176946,None,1,1.4174758213557652,405.91693265176946,None,407.36749686017356,None,407.36749686017356,None,407.36749686017356,None,407.36749686017356,None,407.36749686017356,None,407.36749686017356,None,407.36749686017356,None,411.36895245866253,None,411.36895245866253,None,411.36895245866253,None,411.36895245866253,None,411.36895245866253,None,411.36895245866253,None,411.36895245866253,None,420.8559399073638,None,412.35268488964357,None,413.3530976665279,None,0.5,7.502773764666927,416.3542217635804,None,None,416.3542217635804,None,,,,,,,,,,,,,,,,,,,23641,2019_Nov_20_1652,Mmi_3levels,3.1.5,59.98819498319121,
,,,1,1,-1.3,,,,,,,,,0,0,0,0,0,20,20,17,,,,,,,,,,,,,,,,,,,,,,,,,,,,,,,,,,,,,,,,,,,,,,,,,,,,,,,,,,,,,True,False,True,0.5,-0.5,-10.350000000000001,-2.6125000000000003,-1.3,-3.9125000000000005,-2.60625,gamble,lose,-3.9125000000000005,88.43249999999999,422.873368371369,None,422.873368371369,None,422.873368371369,None,422.873368371369,None,422.873368371369,None,422.873368371369,None,422.873368371369,None,1,2.0009516267091385,422.873368371369,None,424.90741606469965,None,424.90741606469965,None,424.90741606469965,None,424.90741606469965,None,424.90741606469965,None,424.90741606469965,None,424.90741606469965,None,428.90899069652005,None,428.90899069652005,None,428.90899069652005,None,428.90899069652005,None,428.90899069652005,None,428.90899069652005,None,428.90899069652005,None,429.8926332125375,None,,,,,,,,,,,,,,,,,,,,,,,,,,,,,,23641,2019_Nov_20_1652,Mmi_3levels,3.1.5,59.98819498319121,
,,,1,1,-1.1,,,,,,,,,0,0,0,0,0,21,21,8,,,,,,,,,,,,,,,,,,,,,,,,,,,,,,,,,,,,,,,,,,,,,,,,,,,,,,,,,,,,,True,True,False,0.5,-0.5,-10.850000000000001,17.85,-1.1,-18.950000000000003,-10.025000000000002,gamble,win,-1.1,87.3325,431.9100690361338,None,431.9100690361338,None,431.9100690361338,None,431.9100690361338,None,431.9100690361338,None,431.9100690361338,None,431.9100690361338,None,1,1.834294399512146,431.9100690361338,None,433.77744094330774,None,433.77744094330774,None,433.77744094330774,None,433.77744094330774,None,433.77744094330774,None,433.77744094330774,None,433.77744094330774,None,437.77896277808395,None,437.77896277808395,None,437.77896277808395,None,437.77896277808395,None,437.77896277808395,None,437.77896277808395,None,437.77896277808395,None,447.2659406273233,None,438.7627160079028,None,439.76304302959034,None,0.5,7.502807042805216,442.764170966424,None,None,442.764170966424,None,,,,,,,,,,,,,,,,,,,23641,2019_Nov_20_1652,Mmi_3levels,3.1.5,59.98819498319121,
,,,1,1,7.7,,,,,,,,,0,0,0,0,0,22,22,14,,,,,,,,,,,,,,,,,,,,,,,,,,,,,,,,,,,,,,,,,,,,,,,,,,,,,,,,,,,,,True,True,True,0.5,-0.5,-11.350000000000001,18.35,7.7,-10.650000000000002,-1.475000000000001,gamble,win,7.7,95.0325,449.28331789419826,None,449.28331789419826,None,449.28331789419826,None,449.28331789419826,None,449.28331789419826,None,449.28331789419826,None,449.28331789419826,None,1,1.300737078723614,449.28331789419826,None,450.61720543649426,None,450.61720543649426,None,450.61720543649426,None,450.61720543649426,None,450.61720543649426,None,450.61720543649426,None,450.61720543649426,None,454.618729831127,None,454.618729831127,None,454.618729831127,None,454.618729831127,None,454.618729831127,None,454.618729831127,None,454.618729831127,None,455.6023790667714,None,,,,,,,,,,,,,,,,,,,,,,,,,,,,,,23641,2019_Nov_20_1652,Mmi_3levels,3.1.5,59.98819498319121,
,,,1,1,3.9,,,,,,,,,0,0,0,0,0,23,23,23,,,,,,,,,,,,,,,,,,,,,,,,,,,,,,,,,,,,,,,,,,,,,,,,,,,,,,,,,,,,,True,True,False,0.5,-0.5,-11.850000000000001,18.85,3.9,-14.950000000000001,-5.525,gamble,win,3.9,98.9325,457.61980273104564,None,457.61980273104564,None,457.61980273104564,None,457.61980273104564,None,457.61980273104564,None,457.61980273104564,None,457.61980273104564,None,1,1.3674351036352164,457.61980273104564,None,459.02033550120905,None,459.02033550120905,None,459.02033550120905,None,459.02033550120905,None,459.02033550120905,None,459.02033550120905,None,459.02033550120905,None,463.0052243474347,None,463.0052243474347,None,463.0052243474347,None,463.0052243474347,None,463.0052243474347,None,463.0052243474347,None,463.0052243474347,None,472.50877598854277,None,464.00555872870973,None,465.005991344482,None,0.5,7.502692809201108,468.0071080819471,None,None,468.0071080819471,None,,,,,,,,,,,,,,,,,,,23641,2019_Nov_20_1652,Mmi_3levels,3.1.5,59.98819498319121,
,,,1,1,0.9,,,,,,,,,0,0,0,0,0,24,24,16,,,,,,,,,,,,,,,,,,,,,,,,,,,,,,,,,,,,,,,,,,,,,,,,,,,,,,,,,,,,,True,True,False,0.5,-0.5,-12.350000000000001,19.35,0.9,-18.450000000000003,-8.775000000000002,gamble,win,0.9,99.83250000000001,474.52620541249416,None,474.52620541249416,None,474.52620541249416,None,474.52620541249416,None,474.52620541249416,None,474.52620541249416,None,474.52620541249416,None,1,1.7509489868571109,474.52620541249416,None,476.31024022654674,None,476.31024022654674,None,476.31024022654674,None,476.31024022654674,None,476.31024022654674,None,476.31024022654674,None,476.31024022654674,None,480.3117921396406,None,480.3117921396406,None,480.3117921396406,None,480.3117921396406,None,480.3117921396406,None,480.3117921396406,None,480.3117921396406,None,481.2954359355863,None,,,,,,,,,,,,,,,,,,,,,,,,,,,,,,23641,2019_Nov_20_1652,Mmi_3levels,3.1.5,59.98819498319121,
,,,1,1,13.9,,,,,,,,,0,0,0,0,0,25,25,12,,,,,,,,,,,,,,,,,,,,,,,,,,,,,,,,,,,,,,,,,,,,,,,,,,,,,,,,,,,,,True,False,True,0.5,-0.5,-12.850000000000001,-2.8208333333333337,13.9,11.079166666666666,5.539583333333333,gamble,lose,11.079166666666666,110.91166666666668,483.3129213564025,None,483.3129213564025,None,483.3129213564025,None,483.3129213564025,None,483.3129213564025,None,483.3129213564025,None,483.3129213564025,None,1,1.01732830961555,483.3129213564025,None,484.3633326133713,None,484.3633326133713,None,484.3633326133713,None,484.3633326133713,None,484.3633326133713,None,484.3633326133713,None,484.3633326133713,None,488.34816098298325,None,488.34816098298325,None,488.34816098298325,None,488.34816098298325,None,488.34816098298325,None,488.34816098298325,None,488.34816098298325,None,489.3485369619302,None,,,,,,,,,,,,,,,,,,,,,,,,,,,,,,23641,2019_Nov_20_1652,Mmi_3levels,3.1.5,59.98819498319121,
,,,1,1,7.1,,,,,,,,,0,0,0,0,0,26,26,1,,,,,,,,,,,,,,,,,,,,,,,,,,,,,,,,,,,,,,,,,,,,,,,,,,,,,,,,,,,,,True,True,False,0.5,-0.5,-13.350000000000001,20.35,7.1,-13.250000000000002,-3.075000000000001,gamble,win,7.1,118.01166666666667,491.3659676658099,None,491.3659676658099,None,491.3659676658099,None,491.3659676658099,None,491.3659676658099,None,491.3659676658099,None,491.3659676658099,None,1,1.1673295095461071,491.3659676658099,None,492.56639900165464,None,492.56639900165464,None,492.56639900165464,None,492.56639900165464,None,492.56639900165464,None,492.56639900165464,None,492.56639900165464,None,496.56791987648467,None,496.56791987648467,None,496.56791987648467,None,496.56791987648467,None,496.56791987648467,None,496.56791987648467,None,496.56791987648467,None,506.05481165054516,None,497.55167182637524,None,498.5519694097129,None,0.5,7.502766085097392,501.5531354244158,None,None,501.5531354244158,None,,,,,,,,,,,,,,,,,,,23641,2019_Nov_20_1652,Mmi_3levels,3.1.5,59.98819498319121,
,,,2,0,9.5,,,,,,,,,0,1,1,1,0,0,0,22,,,,,,,,,,,,,,,,,,,,,,,,,,,,,,,,,,,,,,,,,,,,,,,,,521.1439042613601,None,0.5,7.501578631596203,524.1616562272502,None,None,,524.1616562272502,None,528.6467330629457,None,False,True,False,0.5,0.5,0.5,-7.5,9.5,2.0,1.0,gamble,lose,2.0,120.01166666666667,531.6645090274942,None,531.6645090274942,None,531.6645090274942,None,531.6645090274942,None,531.6645090274942,None,531.6645090274942,None,531.6645090274942,None,1,1.383936259568145,531.6645090274942,None,533.0817144639877,None,533.0817144639877,None,533.0817144639877,None,533.0817144639877,None,533.0817144639877,None,533.0817144639877,None,533.0817144639877,None,537.0665565928284,None,537.0665565928284,None,537.0665565928284,None,537.0665565928284,None,537.0665565928284,None,537.0665565928284,None,537.0665565928284,None,538.0669744894258,None,,,,,,,,,,,,508.0556141656052,None,4,13.071990528529568,508.0556141656052,None,,,,,,,,,,,,,23641,2019_Nov_20_1652,Mmi_3levels,3.1.5,59.98819498319121,
,,,2,0,4.1,,,,,,,,,0,1,1,1,0,1,1,9,,,,,,,,,,,,,,,,,,,,,,,,,,,,,,,,,,,,,,,,,,,,,,,,,,,,,,,,,,,,,False,False,False,0.5,0.5,1.0,1.8333333333333333,1.025,-0.8083333333333333,0.10833333333333328,gamble,win,1.025,121.03666666666668,540.0843642356012,None,540.0843642356012,None,540.0843642356012,None,540.0843642356012,None,540.0843642356012,None,540.0843642356012,None,540.0843642356012,None,1,1.0840599326438678,540.0843642356012,None,541.2015109553868,None,541.2015109553868,None,541.2015109553868,None,541.2015109553868,None,541.2015109553868,None,541.2015109553868,None,541.2015109553868,None,545.1863732430975,None,545.1863732430975,None,545.1863732430975,None,545.1863732430975,None,545.1863732430975,None,545.1863732430975,None,545.1863732430975,None,554.6899130448692,None,546.1867313030452,None,547.1870560848583,None,0.5,7.502811522554111,550.1882294591487,None,None,550.1882294591487,None,,,,,,,,,,,,,,,,,,,23641,2019_Nov_20_1652,Mmi_3levels,3.1.5,59.98819498319121,
,,,2,0,1.3,,,,,,,,,0,1,1,1,0,2,2,26,,,,,,,,,,,,,,,,,,,,,,,,,,,,,,,,,,,,,,,,,,,,,,,,,,,,,,,,,,,,,False,True,True,0.5,0.5,1.5,-8.5,1.3,-7.2,-2.95,gamble,lose,-7.2,113.83666666666667,556.7073795867436,None,556.7073795867436,None,556.7073795867436,None,556.7073795867436,None,556.7073795867436,None,556.7073795867436,None,556.7073795867436,None,1,1.3007399585621897,556.7073795867436,None,558.0411711344168,None,558.0411711344168,None,558.0411711344168,None,558.0411711344168,None,558.0411711344168,None,558.0411711344168,None,558.0411711344168,None,562.0427368067394,None,562.0427368067394,None,562.0427368067394,None,562.0427368067394,None,562.0427368067394,None,562.0427368067394,None,562.0427368067394,None,563.0263690833308,None,,,,,,,,,,,,,,,,,,,,,,,,,,,,,,23641,2019_Nov_20_1652,Mmi_3levels,3.1.5,59.98819498319121,
,,,2,0,0.1,,,,,,,,,0,1,1,1,0,3,3,20,,,,,,,,,,,,,,,,,,,,,,,,,,,,,,,,,,,,,,,,,,,,,,,,,,,,,,,,,,,,,False,True,True,0.5,0.5,2.0,-9.0,0.1,-8.9,-4.4,gamble,lose,-8.9,104.93666666666667,565.0438189861343,None,565.0438189861343,None,565.0438189861343,None,565.0438189861343,None,565.0438189861343,None,565.0438189861343,None,565.0438189861343,None,None,,565.0438189861343,None,568.0450048397288,None,568.0450048397288,None,568.0450048397288,None,568.0450048397288,None,568.0450048397288,None,568.0450048397288,None,568.0450048397288,None,572.0464703576581,None,572.0464703576581,None,572.0464703576581,None,572.0464703576581,None,572.0464703576581,None,572.0464703576581,None,572.0464703576581,None,581.5334437271486,None,573.0301992688401,None,574.0306104458141,None,0.5,7.502735046840826,577.03167982593,None,None,577.03167982593,None,,,,,,,,,,,,,,,,,,,23641,2019_Nov_20_1652,Mmi_3levels,3.1.5,59.98819498319121,
,,,2,0,11.5,,,,,,,,,0,1,1,1,0,4,4,11,,,,,,,,,,,,,,,,,,,,,,,,,,,,,,,,,,,,,,,,,,,,,,,,,,,,,,,,,,,,,False,True,False,0.5,0.5,2.5,-9.5,11.5,2.0,1.0,gamble,lose,2.0,106.93666666666667,583.5508830705476,None,583.5508830705476,None,583.5508830705476,None,583.5508830705476,None,583.5508830705476,None,583.5508830705476,None,583.5508830705476,None,1,1.0339481789014826,583.5508830705476,None,584.6179196364974,None,584.6179196364974,None,584.6179196364974,None,584.6179196364974,None,584.6179196364974,None,584.6179196364974,None,584.6179196364974,None,588.6027944035122,None,588.6027944035122,None,588.6027944035122,None,588.6027944035122,None,588.6027944035122,None,588.6027944035122,None,588.6027944035122,None,589.6031931011858,None,,,,,,,,,,,,,,,,,,,,,,,,,,,,,,23641,2019_Nov_20_1652,Mmi_3levels,3.1.5,59.98819498319121,
,,,2,0,13.5,,,,,,,,,0,1,1,1,0,5,5,18,,,,,,,,,,,,,,,,,,,,,,,,,,,,,,,,,,,,,,,,,,,,,,,,,,,,,,,,,,,,,False,True,False,0.5,0.5,3.0,-10.0,13.5,3.5,1.75,gamble,lose,3.5,110.43666666666667,591.6205508491512,None,591.6205508491512,None,591.6205508491512,None,591.6205508491512,None,591.6205508491512,None,591.6205508491512,None,591.6205508491512,None,1,0.8172985512828745,591.6205508491512,None,592.4708459526264,None,592.4708459526264,None,592.4708459526264,None,592.4708459526264,None,592.4708459526264,None,592.4708459526264,None,592.4708459526264,None,596.455764557184,None,596.455764557184,None,596.455764557184,None,596.455764557184,None,596.455764557184,None,596.455764557184,None,596.455764557184,None,597.4561510955391,None,,,,,,,,,,,,,,,,,,,,,,,,,,,,,,23641,2019_Nov_20_1652,Mmi_3levels,3.1.5,59.98819498319121,
,,,2,0,0.7,,,,,,,,,0,1,1,1,0,6,6,7,,,,,,,,,,,,,,,,,,,,,,,,,,,,,,,,,,,,,,,,,,,,,,,,,,,,,,,,,,,,,False,True,True,0.5,0.5,3.5,-10.5,0.7,-9.8,-4.550000000000001,gamble,lose,-9.8,100.63666666666667,599.4735222827512,None,599.4735222827512,None,599.4735222827512,None,599.4735222827512,None,599.4735222827512,None,599.4735222827512,None,599.4735222827512,None,1,1.2841472877516935,599.4735222827512,None,600.79075155791,None,600.79075155791,None,600.79075155791,None,600.79075155791,None,600.79075155791,None,600.79075155791,None,600.79075155791,None,604.7921812378481,None,604.7921812378481,None,604.7921812378481,None,604.7921812378481,None,604.7921812378481,None,604.7921812378481,None,604.7921812378481,None,614.27918372571,None,605.7759063092453,None,606.776290607726,None,0.5,7.502796803379169,609.7774652619446,None,None,609.7774652619446,None,,,,,,,,,,,,,,,,,,,23641,2019_Nov_20_1652,Mmi_3levels,3.1.5,59.98819498319121,
,,,2,0,4.9,,,,,,,,,0,1,1,1,0,7,7,24,,,,,,,,,,,,,,,,,,,,,,,,,,,,,,,,,,,,,,,,,,,,,,,,,,,,,,,,,,,,,False,False,True,0.5,0.5,4.0,2.0833333333333335,1.225,-0.8583333333333334,0.18333333333333335,certain,certain,0.18333333333333335,100.82000000000001,616.2965846712577,None,616.2965846712577,None,616.2965846712577,None,616.2965846712577,None,616.2965846712577,None,616.2965846712577,None,616.2965846712577,None,3,1.917682689771027,616.2965846712577,None,618.2473640676108,None,618.2473640676108,None,618.2473640676108,None,618.2473640676108,None,618.2473640676108,None,618.2473640676108,None,618.2473640676108,None,622.2321409201068,None,622.2321409201068,None,622.2321409201068,None,622.2321409201068,None,622.2321409201068,None,622.2321409201068,None,622.2321409201068,None,623.2325616965427,None,,,,,,,,,,,,,,,,,,,,,,,,,,,,,,23641,2019_Nov_20_1652,Mmi_3levels,3.1.5,59.98819498319121,
,,,2,0,3.7,,,,,,,,,0,1,1,1,0,8,8,19,,,,,,,,,,,,,,,,,,,,,,,,,,,,,,,,,,,,,,,,,,,,,,,,,,,,,,,,,,,,,False,True,True,0.5,0.5,4.5,-11.5,3.7,-7.8,-2.05,gamble,lose,-7.8,93.02000000000001,625.2500602366272,None,625.2500602366272,None,625.2500602366272,None,625.2500602366272,None,625.2500602366272,None,625.2500602366272,None,625.2500602366272,None,1,1.1839724175442825,625.2500602366272,None,626.4671290407714,None,626.4671290407714,None,626.4671290407714,None,626.4671290407714,None,626.4671290407714,None,626.4671290407714,None,626.4671290407714,None,630.4686463958024,None,630.4686463958024,None,630.4686463958024,None,630.4686463958024,None,630.4686463958024,None,630.4686463958024,None,630.4686463958024,None,639.955573687872,None,631.4522969113714,None,632.4526796099417,None,0.5,7.502785604006931,635.4539112209713,None,None,635.4539112209713,None,,,,,,,,,,,,,,,,,,,23641,2019_Nov_20_1652,Mmi_3levels,3.1.5,59.98819498319121,
,,,2,0,6.5,,,,,,,,,0,1,1,1,0,9,9,8,,,,,,,,,,,,,,,,,,,,,,,,,,,,,,,,,,,,,,,,,,,,,,,,,,,,,,,,,,,,,False,True,True,0.5,0.5,5.0,-12.0,6.5,-5.5,0.5,certain,certain,0.5,93.52000000000001,641.9729519146931,None,641.9729519146931,None,641.9729519146931,None,641.9729519146931,None,641.9729519146931,None,641.9729519146931,None,641.9729519146931,None,3,1.5008356332036783,641.9729519146931,None,643.490218307772,None,643.490218307772,None,643.490218307772,None,643.490218307772,None,643.490218307772,None,643.490218307772,None,643.490218307772,None,647.4917491020497,None,647.4917491020497,None,647.4917491020497,None,647.4917491020497,None,647.4917491020497,None,647.4917491020497,None,647.4917491020497,None,648.4921388402254,None,,,,,,,,,,,,,,,,,,,,,,,,,,,,,,23641,2019_Nov_20_1652,Mmi_3levels,3.1.5,59.98819498319121,
,,,2,0,6.3,,,,,,,,,0,1,1,1,0,10,10,17,,,,,,,,,,,,,,,,,,,,,,,,,,,,,,,,,,,,,,,,,,,,,,,,,,,,,,,,,,,,,False,False,False,0.5,0.5,5.5,2.2083333333333335,1.575,-0.6333333333333335,0.4708333333333332,certain,certain,0.4708333333333332,93.99083333333334,650.5095669842485,None,650.5095669842485,None,650.5095669842485,None,650.5095669842485,None,650.5095669842485,None,650.5095669842485,None,650.5095669842485,None,3,1.2339977761257614,650.5095669842485,None,651.7766579471536,None,651.7766579471536,None,651.7766579471536,None,651.7766579471536,None,651.7766579471536,None,651.7766579471536,None,651.7766579471536,None,655.7615339940967,None,655.7615339940967,None,655.7615339940967,None,655.7615339940967,None,655.7615339940967,None,655.7615339940967,None,655.7615339940967,None,656.7618837345108,None,,,,,,,,,,,,,,,,,,,,,,,,,,,,,,23641,2019_Nov_20_1652,Mmi_3levels,3.1.5,59.98819498319121,
,,,2,0,2.3,,,,,,,,,0,1,1,1,0,11,11,12,,,,,,,,,,,,,,,,,,,,,,,,,,,,,,,,,,,,,,,,,,,,,,,,,,,,,,,,,,,,,False,False,True,0.5,0.5,6.0,2.25,0.575,-1.675,-0.55,gamble,win,0.575,94.56583333333334,658.7793457966327,None,658.7793457966327,None,658.7793457966327,None,658.7793457966327,None,658.7793457966327,None,658.7793457966327,None,658.7793457966327,None,1,0.9839548185300373,658.7793457966327,None,659.7963634036496,None,659.7963634036496,None,659.7963634036496,None,659.7963634036496,None,659.7963634036496,None,659.7963634036496,None,659.7963634036496,None,663.7812544897461,None,663.7812544897461,None,663.7812544897461,None,663.7812544897461,None,663.7812544897461,None,663.7812544897461,None,663.7812544897461,None,673.2848637276293,None,664.7815907909135,None,665.7819622901116,None,0.5,7.502828481603501,668.7830895869811,None,None,668.7830895869811,None,,,,,,,,,,,,,,,,,,,23641,2019_Nov_20_1652,Mmi_3levels,3.1.5,59.98819498319121,
,,,2,0,5.1,,,,,,,,,0,1,1,1,0,12,12,10,,,,,,,,,,,,,,,,,,,,,,,,,,,,,,,,,,,,,,,,,,,,,,,,,,,,,,,,,,,,,False,False,False,0.5,0.5,6.5,2.2916666666666665,1.275,-1.0166666666666666,0.12916666666666665,certain,certain,0.12916666666666665,94.69500000000001,675.3022361947733,None,675.3022361947733,None,675.3022361947733,None,675.3022361947733,None,675.3022361947733,None,675.3022361947733,None,675.3022361947733,None,3,1.0171775980525126,675.3022361947733,None,676.3526784900023,None,676.3526784900023,None,676.3526784900023,None,676.3526784900023,None,676.3526784900023,None,676.3526784900023,None,676.3526784900023,None,680.3542035246028,None,680.3542035246028,None,680.3542035246028,None,680.3542035246028,None,680.3542035246028,None,680.3542035246028,None,680.3542035246028,None,681.3379151567497,None,,,,,,,,,,,,,,,,,,,,,,,,,,,,,,23641,2019_Nov_20_1652,Mmi_3levels,3.1.5,59.98819498319121,
,,,2,0,10.1,,,,,,,,,0,1,1,1,0,13,13,25,,,,,,,,,,,,,,,,,,,,,,,,,,,,,,,,,,,,,,,,,,,,,,,,,,,,,,,,,,,,,False,True,True,0.5,0.5,7.0,-14.0,10.1,-3.9000000000000004,-1.9500000000000002,gamble,lose,-3.9000000000000004,90.795,683.3553401009522,None,683.3553401009522,None,683.3553401009522,None,683.3553401009522,None,683.3553401009522,None,683.3553401009522,None,683.3553401009522,None,1,0.9005921268435486,683.3553401009522,None,684.289035654001,None,684.289035654001,None,684.289035654001,None,684.289035654001,None,684.289035654001,None,684.289035654001,None,684.289035654001,None,688.2904890126156,None,688.2904890126156,None,688.2904890126156,None,688.2904890126156,None,688.2904890126156,None,688.2904890126156,None,688.2904890126156,None,697.7774716615859,None,689.2742524818605,None,690.2746236610728,None,0.5,7.502742086442595,693.2757496780177,None,None,693.2757496780177,None,,,,,,,,,,,,,,,,,,,23641,2019_Nov_20_1652,Mmi_3levels,3.1.5,59.98819498319121,
,,,2,0,13.3,,,,,,,,,0,1,1,1,0,14,14,15,,,,,,,,,,,,,,,,,,,,,,,,,,,,,,,,,,,,,,,,,,,,,,,,,,,,,,,,,,,,,False,True,False,0.5,0.5,7.5,-14.5,13.3,-1.1999999999999993,-0.5999999999999996,gamble,lose,-1.1999999999999993,89.595,699.7948418888518,None,699.7948418888518,None,699.7948418888518,None,699.7948418888518,None,699.7948418888518,None,699.7948418888518,None,699.7948418888518,None,1,1.6009452270664042,699.7948418888518,None,701.4289107010009,None,701.4289107010009,None,701.4289107010009,None,701.4289107010009,None,701.4289107010009,None,701.4289107010009,None,701.4289107010009,None,705.4303643795938,None,705.4303643795938,None,705.4303643795938,None,705.4303643795938,None,705.4303643795938,None,705.4303643795938,None,705.4303643795938,None,706.4140734518842,None,,,,,,,,,,,,,,,,,,,,,,,,,,,,,,23641,2019_Nov_20_1652,Mmi_3levels,3.1.5,59.98819498319121,
,,,2,0,-0.5,,,,,,,,,0,1,1,1,0,15,15,3,,,,,,,,,,,,,,,,,,,,,,,,,,,,,,,,,,,,,,,,,,,,,,,,,,,,,,,,,,,,,False,True,True,0.5,0.5,8.0,-15.0,-0.5,-15.5,-8.0,gamble,lose,-15.5,74.095,708.4315095954626,None,708.4315095954626,None,708.4315095954626,None,708.4315095954626,None,708.4315095954626,None,708.4315095954626,None,708.4315095954626,None,1,1.9174001455903635,708.4315095954626,None,710.382187557494,None,710.382187557494,None,710.382187557494,None,710.382187557494,None,710.382187557494,None,710.382187557494,None,710.382187557494,None,714.3670840832892,None,714.3670840832892,None,714.3670840832892,None,714.3670840832892,None,714.3670840832892,None,714.3670840832892,None,714.3670840832892,None,723.8706328445587,None,715.3674661418954,None,716.3677925236188,None,0.5,7.502767685007711,719.3689655779272,None,None,719.3689655779272,None,,,,,,,,,,,,,,,,,,,23641,2019_Nov_20_1652,Mmi_3levels,3.1.5,59.98819498319121,
,,,2,0,0.5,,,,,,,,,0,1,1,1,0,16,16,4,,,,,,,,,,,,,,,,,,,,,,,,,,,,,,,,,,,,,,,,,,,,,,,,,,,,,,,,,,,,,False,True,True,0.5,0.5,8.5,-15.5,0.5,-15.0,-7.25,gamble,lose,-15.0,59.095,725.8881189053391,None,725.8881189053391,None,725.8881189053391,None,725.8881189053391,None,725.8881189053391,None,725.8881189053391,None,725.8881189053391,None,1,1.0173555080946244,725.8881189053391,None,726.9384914444781,None,726.9384914444781,None,726.9384914444781,None,726.9384914444781,None,726.9384914444781,None,726.9384914444781,None,726.9384914444781,None,730.9400411176975,None,730.9400411176975,None,730.9400411176975,None,730.9400411176975,None,730.9400411176975,None,730.9400411176975,None,730.9400411176975,None,731.9237399505619,None,,,,,,,,,,,,,,,,,,,,,,,,,,,,,,23641,2019_Nov_20_1652,Mmi_3levels,3.1.5,59.98819498319121,
,,,2,0,3.3,,,,,,,,,0,1,1,1,0,17,17,2,,,,,,,,,,,,,,,,,,,,,,,,,,,,,,,,,,,,,,,,,,,,,,,,,,,,,,,,,,,,,False,False,True,0.5,0.5,9.0,2.5,0.825,-1.675,-0.42500000000000004,gamble,win,0.825,59.92,733.941111137774,None,733.941111137774,None,733.941111137774,None,733.941111137774,None,733.941111137774,None,733.941111137774,None,733.941111137774,None,1,1.3342542417631194,733.941111137774,None,735.3083926500112,None,735.3083926500112,None,735.3083926500112,None,735.3083926500112,None,735.3083926500112,None,735.3083926500112,None,735.3083926500112,None,739.3098658475101,None,739.3098658475101,None,739.3098658475101,None,739.3098658475101,None,739.3098658475101,None,739.3098658475101,None,739.3098658475101,None,740.293574599822,None,,,,,,,,,,,,,,,,,,,,,,,,,,,,,,23641,2019_Nov_20_1652,Mmi_3levels,3.1.5,59.98819498319121,
,,,2,0,3.5,,,,,,,,,0,1,1,1,0,18,18,6,,,,,,,,,,,,,,,,,,,,,,,,,,,,,,,,,,,,,,,,,,,,,,,,,,,,,,,,,,,,,False,True,True,0.5,0.5,9.5,-16.5,3.5,-13.0,-4.75,gamble,lose,-13.0,46.92,742.3109806650828,None,742.3109806650828,None,742.3109806650828,None,742.3109806650828,None,742.3109806650828,None,742.3109806650828,None,742.3109806650828,None,1,1.5007815562312317,742.3109806650828,None,743.8448867663392,None,743.8448867663392,None,743.8448867663392,None,743.8448867663392,None,743.8448867663392,None,743.8448867663392,None,743.8448867663392,None,747.8297452142651,None,747.8297452142651,None,747.8297452142651,None,747.8297452142651,None,747.8297452142651,None,747.8297452142651,None,747.8297452142651,None,757.3333038949822,None,748.8300879150738,None,749.8304661338952,None,0.5,7.502733126944804,752.8315835113208,None,None,752.8315835113208,None,,,,,,,,,,,,,,,,,,,23641,2019_Nov_20_1652,Mmi_3levels,3.1.5,59.98819498319121,
,,,2,0,5.9,,,,,,,,,0,1,1,1,0,19,19,23,,,,,,,,,,,,,,,,,,,,,,,,,,,,,,,,,,,,,,,,,,,,,,,,,,,,,,,,,,,,,False,True,True,0.5,0.5,10.0,-17.0,5.9,-11.1,-2.5999999999999996,gamble,lose,-11.1,35.82,759.3507893157985,None,759.3507893157985,None,759.3507893157985,None,759.3507893157985,None,759.3507893157985,None,759.3507893157985,None,759.3507893157985,None,1,0.93397585735147,759.3507893157985,None,760.3177956434411,None,760.3177956434411,None,760.3177956434411,None,760.3177956434411,None,760.3177956434411,None,760.3177956434411,None,760.3177956434411,None,764.319333157342,None,764.319333157342,None,764.319333157342,None,764.319333157342,None,764.319333157342,None,764.319333157342,None,764.319333157342,None,765.3030438295427,None,,,,,,,,,,,,,,,,,,,,,,,,,,,,,,23641,2019_Nov_20_1652,Mmi_3levels,3.1.5,59.98819498319121,
,,,2,0,4.7,,,,,,,,,0,1,1,1,0,20,20,0,,,,,,,,,,,,,,,,,,,,,,,,,,,,,,,,,,,,,,,,,,,,,,,,,,,,,,,,,,,,,False,False,True,0.5,0.5,10.5,2.625,1.175,-1.45,-0.13749999999999996,certain,certain,-0.13749999999999996,35.6825,767.3204790131749,None,767.3204790131749,None,767.3204790131749,None,767.3204790131749,None,767.3204790131749,None,767.3204790131749,None,767.3204790131749,None,3,1.450805474894878,767.3204790131749,None,768.8043216779843,None,768.8043216779843,None,768.8043216779843,None,768.8043216779843,None,768.8043216779843,None,768.8043216779843,None,768.8043216779843,None,772.8058847904504,None,772.8058847904504,None,772.8058847904504,None,772.8058847904504,None,772.8058847904504,None,772.8058847904504,None,772.8058847904504,None,782.2928037629863,None,773.789590022956,None,774.7899151247511,None,0.5,7.50283424128429,777.7910405017319,None,None,777.7910405017319,None,,,,,,,,,,,,,,,,,,,23641,2019_Nov_20_1652,Mmi_3levels,3.1.5,59.98819498319121,
,,,2,0,-0.1,,,,,,,,,0,1,1,1,0,21,21,1,,,,,,,,,,,,,,,,,,,,,,,,,,,,,,,,,,,,,,,,,,,,,,,,,,,,,,,,,,,,,False,False,False,0.5,0.5,11.0,2.6666666666666665,-0.025,-2.6916666666666664,-1.3583333333333332,gamble,win,-0.025,35.6575,784.3101829497537,None,784.3101829497537,None,784.3101829497537,None,784.3101829497537,None,784.3101829497537,None,784.3101829497537,None,784.3101829497537,None,1,1.4007833161340386,784.3101829497537,None,785.7441119297291,None,785.7441119297291,None,785.7441119297291,None,785.7441119297291,None,785.7441119297291,None,785.7441119297291,None,785.7441119297291,None,789.7289591782865,None,789.7289591782865,None,789.7289591782865,None,789.7289591782865,None,789.7289591782865,None,789.7289591782865,None,789.7289591782865,None,790.7293428367993,None,,,,,,,,,,,,,,,,,,,,,,,,,,,,,,23641,2019_Nov_20_1652,Mmi_3levels,3.1.5,59.98819498319121,
,,,2,0,12.7,,,,,,,,,0,1,1,1,0,22,22,16,,,,,,,,,,,,,,,,,,,,,,,,,,,,,,,,,,,,,,,,,,,,,,,,,,,,,,,,,,,,,False,True,True,0.5,0.5,11.5,-18.5,12.7,-5.800000000000001,-2.9000000000000004,gamble,lose,-5.800000000000001,29.857499999999998,792.7467156239254,None,792.7467156239254,None,792.7467156239254,None,792.7467156239254,None,792.7467156239254,None,792.7467156239254,None,792.7467156239254,None,1,0.9840207348388503,792.7467156239254,None,793.7638641036101,None,793.7638641036101,None,793.7638641036101,None,793.7638641036101,None,793.7638641036101,None,793.7638641036101,None,793.7638641036101,None,797.7652912236917,None,797.7652912236917,None,797.7652912236917,None,797.7652912236917,None,797.7652912236917,None,797.7652912236917,None,797.7652912236917,None,807.252268752949,None,798.7490454134568,None,799.7494217123822,None,0.5,7.502812162518239,802.7504946123008,None,None,802.7504946123008,None,,,,,,,,,,,,,,,,,,,23641,2019_Nov_20_1652,Mmi_3levels,3.1.5,59.98819498319121,
,,,2,0,8.3,,,,,,,,,0,1,1,1,0,23,23,5,,,,,,,,,,,,,,,,,,,,,,,,,,,,,,,,,,,,,,,,,,,,,,,,,,,,,,,,,,,,,False,True,False,0.5,0.5,12.0,-19.0,8.3,-10.7,-1.1999999999999993,gamble,lose,-10.7,19.1575,809.269638980215,None,809.269638980215,None,809.269638980215,None,809.269638980215,None,809.269638980215,None,809.269638980215,None,809.269638980215,None,1,0.9340097754538874,809.269638980215,None,810.2367297831297,None,810.2367297831297,None,810.2367297831297,None,810.2367297831297,None,810.2367297831297,None,810.2367297831297,None,810.2367297831297,None,814.2382416984619,None,814.2382416984619,None,814.2382416984619,None,814.2382416984619,None,814.2382416984619,None,814.2382416984619,None,814.2382416984619,None,815.221946291007,None,,,,,,,,,,,,,,,,,,,,,,,,,,,,,,23641,2019_Nov_20_1652,Mmi_3levels,3.1.5,59.98819498319121,
,,,2,0,10.3,,,,,,,,,0,1,1,1,0,24,24,21,,,,,,,,,,,,,,,,,,,,,,,,,,,,,,,,,,,,,,,,,,,,,,,,,,,,,,,,,,,,,False,True,True,0.5,0.5,12.5,-19.5,10.3,-9.2,0.5500000000000007,certain,certain,0.5500000000000007,19.7075,817.2393878742769,None,817.2393878742769,None,817.2393878742769,None,817.2393878742769,None,817.2393878742769,None,817.2393878742769,None,817.2393878742769,None,3,2.101019942885614,817.2393878742769,None,819.3734978041211,None,819.3734978041211,None,819.3734978041211,None,819.3734978041211,None,819.3734978041211,None,819.3734978041211,None,819.3734978041211,None,823.3583069748092,None,823.3583069748092,None,823.3583069748092,None,823.3583069748092,None,823.3583069748092,None,823.3583069748092,None,823.3583069748092,None,824.3586867935373,None,,,,,,,,,,,,,,,,,,,,,,,,,,,,,,23641,2019_Nov_20_1652,Mmi_3levels,3.1.5,59.98819498319121,
,,,2,0,1.1,,,,,,,,,0,1,1,1,0,25,25,13,,,,,,,,,,,,,,,,,,,,,,,,,,,,,,,,,,,,,,,,,,,,,,,,,,,,,,,,,,,,,False,True,False,0.5,0.5,13.0,-20.0,1.1,-18.9,-8.899999999999999,gamble,lose,-18.9,0.807500000000001,826.3761162174924,None,826.3761162174924,None,826.3761162174924,None,826.3761162174924,None,826.3761162174924,None,826.3761162174924,None,826.3761162174924,None,1,1.367459422272077,826.3761162174924,None,827.776624989001,None,827.776624989001,None,827.776624989001,None,827.776624989001,None,827.776624989001,None,827.776624989001,None,827.776624989001,None,831.7781650627549,None,831.7781650627549,None,831.7781650627549,None,831.7781650627549,None,831.7781650627549,None,831.7781650627549,None,831.7781650627549,None,841.2650728359185,None,832.7618702952641,None,833.7622552337052,None,0.5,7.502708808307943,836.7633751709909,None,None,836.7633751709909,None,,,,,,,,,,,,,,,,,,,23641,2019_Nov_20_1652,Mmi_3levels,3.1.5,59.98819498319121,
,,,2,0,3.1,,,,,,,,,0,1,1,1,0,26,26,14,,,,,,,,,,,,,,,,,,,,,,,,,,,,,,,,,,,,,,,,,,,,,,,,,,,,,,,,,,,,,False,True,True,0.5,0.5,13.5,-20.5,3.1,-17.4,-7.1499999999999995,gamble,lose,-17.4,-16.592499999999998,843.2826129736713,None,843.2826129736713,None,843.2826129736713,None,843.2826129736713,None,843.2826129736713,None,843.2826129736713,None,843.2826129736713,None,1,1.5007402785449813,843.2826129736713,None,844.8164368395373,None,844.8164368395373,None,844.8164368395373,None,844.8164368395373,None,844.8164368395373,None,844.8164368395373,None,844.8164368395373,None,848.8179538745826,None,848.8179538745826,None,848.8179538745826,None,848.8179538745826,None,848.8179538745826,None,848.8179538745826,None,848.8179538745826,None,849.801662946873,None,,,,,,,,,,,,,,,,,,,,,,,,,,,,,,23641,2019_Nov_20_1652,Mmi_3levels,3.1.5,59.98819498319121,
,,,3,1,13.1,,,,,,,,,0,2,2,2,0,0,0,2,,,,,,,,,,,,,,,,,,,,,,,,,,,,,,,,,,,,,,,,,,,,,,,,,865.7244119129318,None,0.5,7.502057004807284,868.7254768132989,None,None,,868.7254768132989,None,873.2272304750913,None,True,True,True,0.5,-0.5,-0.5,7.5,13.1,5.6,2.8,certain,certain,2.8,-13.792499999999997,876.2616781460238,None,876.2616781460238,None,876.2616781460238,None,876.2616781460238,None,876.2616781460238,None,876.2616781460238,None,876.2616781460238,None,3,1.084028894380026,876.2616781460238,None,877.3787666290664,None,877.3787666290664,None,877.3787666290664,None,877.3787666290664,None,877.3787666290664,None,877.3787666290664,None,877.3787666290664,None,881.3803345412634,None,881.3803345412634,None,881.3803345412634,None,881.3803345412634,None,881.3803345412634,None,881.3803345412634,None,881.3803345412634,None,890.867263433247,None,882.3640436135574,None,883.3644147927698,None,0.5,7.502753605796897,886.3655385698403,None,None,886.3655385698403,None,851.8024587423097,None,4,13.905479213164654,851.8024587423097,None,,,,,,,,,,,,,23641,2019_Nov_20_1652,Mmi_3levels,3.1.5,59.98819498319121,
,,,3,1,7.3,,,,,,,,,0,2,2,2,0,1,1,18,,,,,,,,,,,,,,,,,,,,,,,,,,,,,,,,,,,,,,,,,,,,,,,,,,,,,,,,,,,,,True,True,True,0.5,-0.5,-1.0,8.0,7.3,-0.7000000000000002,-0.3500000000000001,gamble,win,7.3,-6.492499999999997,892.8846387802259,None,892.8846387802259,None,892.8846387802259,None,892.8846387802259,None,892.8846387802259,None,892.8846387802259,None,892.8846387802259,None,1,1.2174054252936912,892.8846387802259,None,894.1351165934684,None,894.1351165934684,None,894.1351165934684,None,894.1351165934684,None,894.1351165934684,None,894.1351165934684,None,894.1351165934684,None,898.1200547169356,None,898.1200547169356,None,898.1200547169356,None,898.1200547169356,None,898.1200547169356,None,898.1200547169356,None,898.1200547169356,None,899.1203363011664,None,,,,,,,,,,,,,,,,,,,,,,,,,,,,,,23641,2019_Nov_20_1652,Mmi_3levels,3.1.5,59.98819498319121,
,,,3,1,11.9,,,,,,,,,0,2,2,2,0,2,2,19,,,,,,,,,,,,,,,,,,,,,,,,,,,,,,,,,,,,,,,,,,,,,,,,,,,,,,,,,,,,,True,True,False,0.5,-0.5,-1.5,8.5,11.9,3.4000000000000004,1.7000000000000002,gamble,win,11.9,5.407500000000003,901.1378194821082,None,901.1378194821082,None,901.1378194821082,None,901.1378194821082,None,901.1378194821082,None,901.1378194821082,None,901.1378194821082,None,1,1.2338272256747587,901.1378194821082,None,902.4049213244034,None,902.4049213244034,None,902.4049213244034,None,902.4049213244034,None,902.4049213244034,None,902.4049213244034,None,902.4049213244034,None,906.4064805970847,None,906.4064805970847,None,906.4064805970847,None,906.4064805970847,None,906.4064805970847,None,906.4064805970847,None,906.4064805970847,None,907.3901803898952,None,,,,,,,,,,,,,,,,,,,,,,,,,,,,,,23641,2019_Nov_20_1652,Mmi_3levels,3.1.5,59.98819498319121,
,,,3,1,8.1,,,,,,,,,0,2,2,2,0,3,3,17,,,,,,,,,,,,,,,,,,,,,,,,,,,,,,,,,,,,,,,,,,,,,,,,,,,,,,,,,,,,,True,True,False,0.5,-0.5,-2.0,9.0,8.1,-0.9000000000000004,-0.4500000000000002,gamble,win,8.1,13.507500000000004,909.4075611765729,None,909.4075611765729,None,909.4075611765729,None,909.4075611765729,None,909.4075611765729,None,909.4075611765729,None,909.4075611765729,None,1,1.934336477159377,909.4075611765729,None,911.3749713216057,None,911.3749713216057,None,911.3749713216057,None,911.3749713216057,None,911.3749713216057,None,911.3749713216057,None,911.3749713216057,None,915.3765325141794,None,915.3765325141794,None,915.3765325141794,None,915.3765325141794,None,915.3765325141794,None,915.3765325141794,None,915.3765325141794,None,924.8634716455854,None,916.3601967889772,None,917.360591966848,None,0.5,7.5027744046310545,920.3616933451704,None,None,920.3616933451704,None,,,,,,,,,,,,,,,,,,,23641,2019_Nov_20_1652,Mmi_3levels,3.1.5,59.98819498319121,
,,,3,1,5.3,,,,,,,,,0,2,2,2,0,4,4,9,,,,,,,,,,,,,,,,,,,,,,,,,,,,,,,,,,,,,,,,,,,,,,,,,,,,,,,,,,,,,True,True,True,0.5,-0.5,-2.5,9.5,5.3,-4.2,0.5499999999999998,gamble,win,5.3,18.807500000000005,926.8808482724962,None,926.8808482724962,None,926.8808482724962,None,926.8808482724962,None,926.8808482724962,None,926.8808482724962,None,926.8808482724962,None,1,1.967694289120118,926.8808482724962,None,928.8816472677536,None,928.8816472677536,None,928.8816472677536,None,928.8816472677536,None,928.8816472677536,None,928.8816472677536,None,928.8816472677536,None,932.8665037957871,None,932.8665037957871,None,932.8665037957871,None,932.8665037957871,None,932.8665037957871,None,932.8665037957871,None,932.8665037957871,None,933.8668247378118,None,,,,,,,,,,,,,,,,,,,,,,,,,,,,,,23641,2019_Nov_20_1652,Mmi_3levels,3.1.5,59.98819498319121,
,,,3,1,6.3,,,,,,,,,0,2,2,2,0,5,5,5,,,,,,,,,,,,,,,,,,,,,,,,,,,,,,,,,,,,,,,,,,,,,,,,,,,,,,,,,,,,,True,True,False,0.5,-0.5,-3.0,10.0,6.3,-3.7,1.2999999999999998,gamble,win,6.3,25.107500000000005,935.8842557616772,None,935.8842557616772,None,935.8842557616772,None,935.8842557616772,None,935.8842557616772,None,935.8842557616772,None,935.8842557616772,None,1,1.4508438727425528,935.8842557616772,None,937.3682069004135,None,937.3682069004135,None,937.3682069004135,None,937.3682069004135,None,937.3682069004135,None,937.3682069004135,None,937.3682069004135,None,941.3530506291645,None,941.3530506291645,None,941.3530506291645,None,941.3530506291645,None,941.3530506291645,None,941.3530506291645,None,941.3530506291645,None,950.8565657923136,None,942.3534259681437,None,943.3538038669831,None,0.5,7.502711368164455,946.3548796467403,None,None,946.3548796467403,None,,,,,,,,,,,,,,,,,,,23641,2019_Nov_20_1652,Mmi_3levels,3.1.5,59.98819498319121,
,,,3,1,8.5,,,,,,,,,0,2,2,2,0,6,6,8,,,,,,,,,,,,,,,,,,,,,,,,,,,,,,,,,,,,,,,,,,,,,,,,,,,,,,,,,,,,,True,True,False,0.5,-0.5,-3.5,10.5,8.5,-2.0,-1.0,gamble,win,8.5,33.6075,952.8740768116986,None,952.8740768116986,None,952.8740768116986,None,952.8740768116986,None,952.8740768116986,None,952.8740768116986,None,952.8740768116986,None,1,1.3674325437787047,952.8740768116986,None,954.2746108617903,None,954.2746108617903,None,954.2746108617903,None,954.2746108617903,None,954.2746108617903,None,954.2746108617903,None,954.2746108617903,None,958.2594494708283,None,958.2594494708283,None,958.2594494708283,None,958.2594494708283,None,958.2594494708283,None,958.2594494708283,None,958.2594494708283,None,959.2598308894703,None,,,,,,,,,,,,,,,,,,,,,,,,,,,,,,23641,2019_Nov_20_1652,Mmi_3levels,3.1.5,59.98819498319121,
,,,3,1,-0.9,,,,,,,,,0,2,2,2,0,7,7,6,,,,,,,,,,,,,,,,,,,,,,,,,,,,,,,,,,,,,,,,,,,,,,,,,,,,,,,,,,,,,True,True,True,0.5,-0.5,-4.0,11.0,-0.9,-11.9,-6.4,gamble,win,-0.9,32.7075,961.2772561536549,None,961.2772561536549,None,961.2772561536549,None,961.2772561536549,None,961.2772561536549,None,961.2772561536549,None,961.2772561536549,None,1,1.3840527330467012,961.2772561536549,None,962.6944158327133,None,962.6944158327133,None,962.6944158327133,None,962.6944158327133,None,962.6944158327133,None,962.6944158327133,None,962.6944158327133,None,966.695982145,None,966.695982145,None,966.695982145,None,966.695982145,None,966.695982145,None,966.695982145,None,966.695982145,None,976.1829068772131,None,967.6796230611071,None,968.680008639516,None,0.5,7.502815042356815,971.681127936834,None,None,971.681127936834,None,,,,,,,,,,,,,,,,,,,23641,2019_Nov_20_1652,Mmi_3levels,3.1.5,59.98819498319121,
,,,3,1,0.1,,,,,,,,,0,2,2,2,0,8,8,3,,,,,,,,,,,,,,,,,,,,,,,,,,,,,,,,,,,,,,,,,,,,,,,,,,,,,,,,,,,,,True,True,True,0.5,-0.5,-4.5,11.5,0.1,-11.4,-5.65,gamble,win,0.1,32.807500000000005,978.2003542201637,None,978.2003542201637,None,978.2003542201637,None,978.2003542201637,None,978.2003542201637,None,978.2003542201637,None,978.2003542201637,None,1,1.017491500475444,978.2003542201637,None,979.2507382786534,None,979.2507382786534,None,979.2507382786534,None,979.2507382786534,None,979.2507382786534,None,979.2507382786534,None,979.2507382786534,None,983.252248594079,None,983.252248594079,None,983.252248594079,None,983.252248594079,None,983.252248594079,None,983.252248594079,None,983.252248594079,None,984.2359010295404,None,,,,,,,,,,,,,,,,,,,,,,,,,,,,,,23641,2019_Nov_20_1652,Mmi_3levels,3.1.5,59.98819498319121,
,,,3,1,7.7,,,,,,,,,0,2,2,2,0,9,9,23,,,,,,,,,,,,,,,,,,,,,,,,,,,,,,,,,,,,,,,,,,,,,,,,,,,,,,,,,,,,,True,True,True,0.5,-0.5,-5.0,12.0,7.7,-4.3,1.7000000000000002,gamble,win,7.7,40.50750000000001,986.2533342932802,None,986.2533342932802,None,986.2533342932802,None,986.2533342932802,None,986.2533342932802,None,986.2533342932802,None,986.2533342932802,None,1,1.1840252145884733,986.2533342932802,None,987.470457814361,None,987.470457814361,None,987.470457814361,None,987.470457814361,None,987.470457814361,None,987.470457814361,None,987.470457814361,None,991.4720308462711,None,991.4720308462711,None,991.4720308462711,None,991.4720308462711,None,991.4720308462711,None,991.4720308462711,None,991.4720308462711,None,992.4556752821845,None,,,,,,,,,,,,,,,,,,,,,,,,,,,,,,23641,2019_Nov_20_1652,Mmi_3levels,3.1.5,59.98819498319121,
,,,3,1,1.9,,,,,,,,,0,2,2,2,0,10,10,15,,,,,,,,,,,,,,,,,,,,,,,,,,,,,,,,,,,,,,,,,,,,,,,,,,,,,,,,,,,,,True,False,False,0.5,-0.5,-5.5,-2.2083333333333335,1.9,-0.30833333333333357,0.7958333333333332,gamble,lose,-0.30833333333333357,40.19916666666667,994.4731610229828,None,994.4731610229828,None,994.4731610229828,None,994.4731610229828,None,994.4731610229828,None,994.4731610229828,None,994.4731610229828,None,1,1.7175143791937444,994.4731610229828,None,996.2237717887801,None,996.2237717887801,None,996.2237717887801,None,996.2237717887801,None,996.2237717887801,None,996.2237717887801,None,996.2237717887801,None,1000.2086683145717,None,1000.2086683145717,None,1000.2086683145717,None,1000.2086683145717,None,1000.2086683145717,None,1000.2086683145717,None,1000.2086683145717,None,1009.7122669930468,None,1001.2090385338415,None,1002.2094218723723,None,0.5,7.502775364577246,1005.2105475693352,None,None,1005.2105475693352,None,,,,,,,,,,,,,,,,,,,23641,2019_Nov_20_1652,Mmi_3levels,3.1.5,59.98819498319121,
,,,3,1,10.1,,,,,,,,,0,2,2,2,0,11,11,25,,,,,,,,,,,,,,,,,,,,,,,,,,,,,,,,,,,,,,,,,,,,,,,,,,,,,,,,,,,,,True,True,True,0.5,-0.5,-6.0,13.0,10.1,-2.9000000000000004,-1.4500000000000002,gamble,win,10.1,50.29916666666667,1011.7297117761409,None,1011.7297117761409,None,1011.7297117761409,None,1011.7297117761409,None,1011.7297117761409,None,1011.7297117761409,None,1011.7297117761409,None,1,1.3006833217332314,1011.7297117761409,None,1013.063497884119,None,1013.063497884119,None,1013.063497884119,None,1013.063497884119,None,1013.063497884119,None,1013.063497884119,None,1013.063497884119,None,1017.0649938003444,None,1017.0649938003444,None,1017.0649938003444,None,1017.0649938003444,None,1017.0649938003444,None,1017.0649938003444,None,1017.0649938003444,None,1018.0487038325846,None,,,,,,,,,,,,,,,,,,,,,,,,,,,,,,23641,2019_Nov_20_1652,Mmi_3levels,3.1.5,59.98819498319121,
,,,3,1,-0.5,,,,,,,,,0,2,2,2,0,12,12,11,,,,,,,,,,,,,,,,,,,,,,,,,,,,,,,,,,,,,,,,,,,,,,,,,,,,,,,,,,,,,True,True,False,0.5,-0.5,-6.5,13.5,-0.5,-14.0,-7.25,gamble,win,-0.5,49.79916666666667,1020.0661796539389,None,1020.0661796539389,None,1020.0661796539389,None,1020.0661796539389,None,1020.0661796539389,None,1020.0661796539389,None,1020.0661796539389,None,1,1.9009876246927888,1020.0661796539389,None,1022.0002979033161,None,1022.0002979033161,None,1022.0002979033161,None,1022.0002979033161,None,1022.0002979033161,None,1022.0002979033161,None,1022.0002979033161,None,1026.0017637412311,None,1026.0017637412311,None,1026.0017637412311,None,1026.0017637412311,None,1026.0017637412311,None,1026.0017637412311,None,1026.0017637412311,None,1035.4886948730855,None,1026.985460334221,None,1027.98585679202,None,0.5,7.502729287160037,1030.9869776892483,None,None,1030.9869776892483,None,,,,,,,,,,,,,,,,,,,23641,2019_Nov_20_1652,Mmi_3levels,3.1.5,59.98819498319121,
,,,3,1,4.1,,,,,,,,,0,2,2,2,0,13,13,16,,,,,,,,,,,,,,,,,,,,,,,,,,,,,,,,,,,,,,,,,,,,,,,,,,,,,,,,,,,,,True,True,True,0.5,-0.5,-7.0,14.0,4.1,-9.9,-2.9000000000000004,gamble,win,4.1,53.89916666666667,1037.50612013727,None,1037.50612013727,None,1037.50612013727,None,1037.50612013727,None,1037.50612013727,None,1037.50612013727,None,1037.50612013727,None,1,1.4841440879317815,1037.50612013727,None,1039.023316774259,None,1039.023316774259,None,1039.023316774259,None,1039.023316774259,None,1039.023316774259,None,1039.023316774259,None,1039.023316774259,None,1043.0248258097527,None,1043.0248258097527,None,1043.0248258097527,None,1043.0248258097527,None,1043.0248258097527,None,1043.0248258097527,None,1043.0248258097527,None,1044.0085339221005,None,,,,,,,,,,,,,,,,,,,,,,,,,,,,,,23641,2019_Nov_20_1652,Mmi_3levels,3.1.5,59.98819498319121,
,,,3,1,3.9,,,,,,,,,0,2,2,2,0,14,14,13,,,,,,,,,,,,,,,,,,,,,,,,,,,,,,,,,,,,,,,,,,,,,,,,,,,,,,,,,,,,,True,True,False,0.5,-0.5,-7.5,14.5,3.9,-10.6,-3.3499999999999996,gamble,win,3.9,57.79916666666667,1046.0259601462312,None,1046.0259601462312,None,1046.0259601462312,None,1046.0259601462312,None,1046.0259601462312,None,1046.0259601462312,None,1046.0259601462312,None,1,1.4341846456591156,1046.0259601462312,None,1047.493241498476,None,1047.493241498476,None,1047.493241498476,None,1047.493241498476,None,1047.493241498476,None,1047.493241498476,None,1047.493241498476,None,1051.4780305102904,None,1051.4780305102904,None,1051.4780305102904,None,1051.4780305102904,None,1051.4780305102904,None,1051.4780305102904,None,1051.4780305102904,None,1052.4784660059013,None,,,,,,,,,,,,,,,,,,,,,,,,,,,,,,23641,2019_Nov_20_1652,Mmi_3levels,3.1.5,59.98819498319121,
,,,3,1,9.5,,,,,,,,,0,2,2,2,0,15,15,7,,,,,,,,,,,,,,,,,,,,,,,,,,,,,,,,,,,,,,,,,,,,,,,,,,,,,,,,,,,,,True,True,True,0.5,-0.5,-8.0,15.0,9.5,-5.5,2.0,gamble,win,9.5,67.29916666666668,1054.4958909501074,None,1054.4958909501074,None,1054.4958909501074,None,1054.4958909501074,None,1054.4958909501074,None,1054.4958909501074,None,1054.4958909501074,None,1,1.3174299039237667,1054.4958909501074,None,1055.8297304950902,None,1055.8297304950902,None,1055.8297304950902,None,1055.8297304950902,None,1055.8297304950902,None,1055.8297304950902,None,1055.8297304950902,None,1059.8312459302251,None,1059.8312459302251,None,1059.8312459302251,None,1059.8312459302251,None,1059.8312459302251,None,1059.8312459302251,None,1059.8312459302251,None,1069.3348577279648,None,1060.8316078299613,None,1061.8320036477962,None,0.5,7.502787843881379,1064.8331290247734,None,None,1064.8331290247734,None,,,,,,,,,,,,,,,,,,,23641,2019_Nov_20_1652,Mmi_3levels,3.1.5,59.98819498319121,
,,,3,1,6.1,,,,,,,,,0,2,2,2,0,16,16,12,,,,,,,,,,,,,,,,,,,,,,,,,,,,,,,,,,,,,,,,,,,,,,,,,,,,,,,,,,,,,True,False,False,0.5,-0.5,-8.5,-2.4583333333333335,6.1,3.641666666666666,1.820833333333333,gamble,lose,3.641666666666666,70.94083333333334,1071.352221235611,None,1071.352221235611,None,1071.352221235611,None,1071.352221235611,None,1071.352221235611,None,1071.352221235611,None,1071.352221235611,None,1,1.1840997704130132,1071.352221235611,None,1072.5693482764946,None,1072.5693482764946,None,1072.5693482764946,None,1072.5693482764946,None,1072.5693482764946,None,1072.5693482764946,None,1072.5693482764946,None,1076.554189445389,None,1076.554189445389,None,1076.554189445389,None,1076.554189445389,None,1076.554189445389,None,1076.554189445389,None,1076.554189445389,None,1077.5546204612547,None,,,,,,,,,,,,,,,,,,,,,,,,,,,,,,23641,2019_Nov_20_1652,Mmi_3levels,3.1.5,59.98819498319121,
,,,3,1,6.5,,,,,,,,,0,2,2,2,0,17,17,0,,,,,,,,,,,,,,,,,,,,,,,,,,,,,,,,,,,,,,,,,,,,,,,,,,,,,,,,,,,,,True,True,True,0.5,-0.5,-9.0,16.0,6.5,-9.5,-1.5,gamble,win,6.5,77.44083333333334,1079.5720258865476,None,1079.5720258865476,None,1079.5720258865476,None,1079.5720258865476,None,1079.5720258865476,None,1079.5720258865476,None,1079.5720258865476,None,1,1.2673978257189447,1079.5720258865476,None,1080.872530658282,None,1080.872530658282,None,1080.872530658282,None,1080.872530658282,None,1080.872530658282,None,1080.872530658282,None,1080.872530658282,None,1084.8573347092533,None,1084.8573347092533,None,1084.8573347092533,None,1084.8573347092533,None,1084.8573347092533,None,1084.8573347092533,None,1084.8573347092533,None,1094.3609839448982,None,1085.8577148479671,None,1086.858144903883,None,0.5,7.502786883935187,1089.8592648411686,None,None,1089.8592648411686,None,,,,,,,,,,,,,,,,,,,23641,2019_Nov_20_1652,Mmi_3levels,3.1.5,59.98819498319121,
,,,3,1,1.1,,,,,,,,,0,2,2,2,0,18,18,26,,,,,,,,,,,,,,,,,,,,,,,,,,,,,,,,,,,,,,,,,,,,,,,,,,,,,,,,,,,,,True,False,False,0.5,-0.5,-9.5,-2.5416666666666665,1.1,-1.4416666666666664,-0.17083333333333317,gamble,lose,-1.4416666666666664,75.99916666666668,1096.3783698512889,None,1096.3783698512889,None,1096.3783698512889,None,1096.3783698512889,None,1096.3783698512889,None,1096.3783698512889,None,1096.3783698512889,None,1,2.4178629996713425,1096.3783698512889,None,1098.8293772348734,None,1098.8293772348734,None,1098.8293772348734,None,1098.8293772348734,None,1098.8293772348734,None,1098.8293772348734,None,1098.8293772348734,None,1102.8308056348833,None,1102.8308056348833,None,1102.8308056348833,None,1102.8308056348833,None,1102.8308056348833,None,1102.8308056348833,None,1102.8308056348833,None,1103.8145086275144,None,,,,,,,,,,,,,,,,,,,,,,,,,,,,,,23641,2019_Nov_20_1652,Mmi_3levels,3.1.5,59.98819498319121,
,,,3,1,9.9,,,,,,,,,0,2,2,2,0,19,19,20,,,,,,,,,,,,,,,,,,,,,,,,,,,,,,,,,,,,,,,,,,,,,,,,,,,,,,,,,,,,,True,False,True,0.5,-0.5,-10.0,-2.5833333333333335,9.9,7.316666666666666,3.658333333333333,gamble,lose,7.316666666666666,83.31583333333334,1105.8319390114157,None,1105.8319390114157,None,1105.8319390114157,None,1105.8319390114157,None,1105.8319390114157,None,1105.8319390114157,None,1105.8319390114157,None,1,1.100741238489718,1105.8319390114157,None,1106.9657113601643,None,1106.9657113601643,None,1106.9657113601643,None,1106.9657113601643,None,1106.9657113601643,None,1106.9657113601643,None,1106.9657113601643,None,1110.9506018062966,None,1110.9506018062966,None,1110.9506018062966,None,1110.9506018062966,None,1110.9506018062966,None,1110.9506018062966,None,1110.9506018062966,None,1120.4541979249152,None,1111.9509304278945,None,1112.9513598438461,None,0.5,7.502814402392687,1115.9524797811318,None,None,1115.9524797811318,None,,,,,,,,,,,,,,,,,,,23641,2019_Nov_20_1652,Mmi_3levels,3.1.5,59.98819498319121,
,,,3,1,2.3,,,,,,,,,0,2,2,2,0,20,20,4,,,,,,,,,,,,,,,,,,,,,,,,,,,,,,,,,,,,,,,,,,,,,,,,,,,,,,,,,,,,,True,False,False,0.5,-0.5,-10.5,-2.625,2.3,-0.3250000000000002,0.9874999999999998,certain,certain,0.9874999999999998,84.30333333333334,1122.4716299087231,None,1122.4716299087231,None,1122.4716299087231,None,1122.4716299087231,None,1122.4716299087231,None,1122.4716299087231,None,1122.4716299087231,None,3,1.1506325245791231,1122.4716299087231,None,1123.638687753486,None,1123.638687753486,None,1123.638687753486,None,1123.638687753486,None,1123.638687753486,None,1123.638687753486,None,1123.638687753486,None,1127.6402588655037,None,1127.6402588655037,None,1127.6402588655037,None,1127.6402588655037,None,1127.6402588655037,None,1127.6402588655037,None,1127.6402588655037,None,1128.6405855672056,None,,,,,,,,,,,,,,,,,,,,,,,,,,,,,,23641,2019_Nov_20_1652,Mmi_3levels,3.1.5,59.98819498319121,
,,,3,1,11.3,,,,,,,,,0,2,2,2,0,21,21,24,,,,,,,,,,,,,,,,,,,,,,,,,,,,,,,,,,,,,,,,,,,,,,,,,,,,,,,,,,,,,True,True,True,0.5,-0.5,-11.0,18.0,11.3,-6.699999999999999,-3.3499999999999996,gamble,win,11.3,95.60333333333334,1130.6581199452812,None,1130.6581199452812,None,1130.6581199452812,None,1130.6581199452812,None,1130.6581199452812,None,1130.6581199452812,None,1130.6581199452812,None,1,1.4173359891865402,1130.6581199452812,None,1132.1085609605834,None,1132.1085609605834,None,1132.1085609605834,None,1132.1085609605834,None,1132.1085609605834,None,1132.1085609605834,None,1132.1085609605834,None,1136.0934526866477,None,1136.0934526866477,None,1136.0934526866477,None,1136.0934526866477,None,1136.0934526866477,None,1136.0934526866477,None,1136.0934526866477,None,1137.0937806682814,None,,,,,,,,,,,,,,,,,,,,,,,,,,,,,,23641,2019_Nov_20_1652,Mmi_3levels,3.1.5,59.98819498319121,
,,,3,1,12.9,,,,,,,,,0,2,2,2,0,22,22,14,,,,,,,,,,,,,,,,,,,,,,,,,,,,,,,,,,,,,,,,,,,,,,,,,,,,,,,,,,,,,True,True,False,0.5,-0.5,-11.5,18.5,12.9,-5.6,-2.8,gamble,win,12.9,108.50333333333334,1139.1112635292411,None,1139.1112635292411,None,1139.1112635292411,None,1139.1112635292411,None,1139.1112635292411,None,1139.1112635292411,None,1139.1112635292411,None,1,1.3340280144329881,1139.1112635292411,None,1140.478397529736,None,1140.478397529736,None,1140.478397529736,None,1140.478397529736,None,1140.478397529736,None,1140.478397529736,None,1140.478397529736,None,1144.4799177646055,None,1144.4799177646055,None,1144.4799177646055,None,1144.4799177646055,None,1144.4799177646055,None,1144.4799177646055,None,1144.4799177646055,None,1153.966886974329,None,1145.4636162774877,None,1146.4640549729193,None,0.5,7.50277984432978,1149.4651841896848,None,None,1149.4651841896848,None,,,,,,,,,,,,,,,,,,,23641,2019_Nov_20_1652,Mmi_3levels,3.1.5,59.98819498319121,
,,,3,1,8.9,,,,,,,,,0,2,2,2,0,23,23,21,,,,,,,,,,,,,,,,,,,,,,,,,,,,,,,,,,,,,,,,,,,,,,,,,,,,,,,,,,,,,True,False,True,0.5,-0.5,-12.0,-2.75,8.9,6.15,3.075,gamble,lose,6.15,114.65333333333335,1155.9843227979218,None,1155.9843227979218,None,1155.9843227979218,None,1155.9843227979218,None,1155.9843227979218,None,1155.9843227979218,None,1155.9843227979218,None,1,1.7342091242899187,1155.9843227979218,None,1157.7516343884745,None,1157.7516343884745,None,1157.7516343884745,None,1157.7516343884745,None,1157.7516343884745,None,1157.7516343884745,None,1157.7516343884745,None,1161.753095426655,None,1161.753095426655,None,1161.753095426655,None,1161.753095426655,None,1161.753095426655,None,1161.753095426655,None,1161.753095426655,None,1162.7368288175858,None,,,,,,,,,,,,,,,,,,,,,,,,,,,,,,23641,2019_Nov_20_1652,Mmi_3levels,3.1.5,59.98819498319121,
,,,3,1,2.5,,,,,,,,,0,2,2,2,0,24,24,1,,,,,,,,,,,,,,,,,,,,,,,,,,,,,,,,,,,,,,,,,,,,,,,,,,,,,,,,,,,,,True,True,True,0.5,-0.5,-12.5,19.5,2.5,-17.0,-7.25,gamble,win,2.5,117.15333333333335,1164.7542758405507,None,1164.7542758405507,None,1164.7542758405507,None,1164.7542758405507,None,1164.7542758405507,None,1164.7542758405507,None,1164.7542758405507,None,1,1.350792195637041,1164.7542758405507,None,1166.1381020262852,None,1166.1381020262852,None,1166.1381020262852,None,1166.1381020262852,None,1166.1381020262852,None,1166.1381020262852,None,1166.1381020262852,None,1170.1396341004875,None,1170.1396341004875,None,1170.1396341004875,None,1170.1396341004875,None,1170.1396341004875,None,1170.1396341004875,None,1170.1396341004875,None,1179.6266090698919,None,1171.1233390130146,None,1172.1237137120297,None,0.5,7.502888958220865,1175.1248909261085,None,None,1175.1248909261085,None,,,,,,,,,,,,,,,,,,,23641,2019_Nov_20_1652,Mmi_3levels,3.1.5,59.98819498319121,
,,,3,1,6.7,,,,,,,,,0,2,2,2,0,25,25,22,,,,,,,,,,,,,,,,,,,,,,,,,,,,,,,,,,,,,,,,,,,,,,,,,,,,,,,,,,,,,True,True,False,0.5,-0.5,-13.0,20.0,6.7,-13.3,-3.3000000000000003,gamble,win,6.7,123.85333333333335,1181.6439869767273,None,1181.6439869767273,None,1181.6439869767273,None,1181.6439869767273,None,1181.6439869767273,None,1181.6439869767273,None,1181.6439869767273,None,1,1.2674499828026455,1181.6439869767273,None,1182.9445691841247,None,1182.9445691841247,None,1182.9445691841247,None,1182.9445691841247,None,1182.9445691841247,None,1182.9445691841247,None,1182.9445691841247,None,1186.9293364371588,None,1186.9293364371588,None,1186.9293364371588,None,1186.9293364371588,None,1186.9293364371588,None,1186.9293364371588,None,1186.9293364371588,None,1187.9297613733615,None,,,,,,,,,,,,,,,,,,,,,,,,,,,,,,23641,2019_Nov_20_1652,Mmi_3levels,3.1.5,59.98819498319121,
,,,3,1,11.1,,,,,,,,,0,2,2,2,0,26,26,10,,,,,,,,,,,,,,,,,,,,,,,,,,,,,,,,,,,,,,,,,,,,,,,,,,,,,,,,,,,,,True,False,True,0.5,-0.5,-13.5,-2.875,11.1,8.225,4.1125,gamble,lose,8.225,132.07833333333335,1189.947123921058,None,1189.947123921058,None,1189.947123921058,None,1189.947123921058,None,1189.947123921058,None,1189.947123921058,None,1189.947123921058,None,1,1.0173558280730504,1189.947123921058,None,1190.9975649363623,None,1190.9975649363623,None,1190.9975649363623,None,1190.9975649363623,None,1190.9975649363623,None,1190.9975649363623,None,1190.9975649363623,None,1194.9990963706005,None,1194.9990963706005,None,1194.9990963706005,None,1194.9990963706005,None,1194.9990963706005,None,1194.9990963706005,None,1194.9990963706005,None,1204.4860243026378,None,1195.9827484860834,None,1196.9831267049049,None,0.5,7.502818882141582,1199.9842530418282,None,None,1199.9842530418282,None,,,,,,,,,,,,,,,,,,,23641,2019_Nov_20_1652,Mmi_3levels,3.1.5,59.98819498319121,
,,,,,,,,,,,,,,,,,,,,,,,,,,,,,,0,0,0,0,,,,,,,,,,,,,,,,,,,,,,,,,,,,,,,,,,,,,,,,,,,,,,,,,,,,,,,,,,,,,,,,,,,,,,,,,,,,,,,,,,,,,,,,,,,,,,,,,,,,,,,,,,,,,,,,,,,,,,,,,,1206.4867177038068,None,4,17.890317822202633,1206.4867177038068,None,132.07833333333335,4,1224.4101757501558,None,1224.4101757501558,None,1224.4101757501558,None,space,39.26511219371969,1224.4101757501558,None,23641,2019_Nov_20_1652,Mmi_3levels,3.1.5,59.98819498319121,
