currSlide,currImage,currText,blockNum,targetHappiness,highAmount,instructionLoop1.thisRepN,instructionLoop1.thisTrialN,instructionLoop1.thisN,instructionLoop1.thisIndex,instructionLoop2.thisRepN,instructionLoop2.thisTrialN,instructionLoop2.thisN,instructionLoop2.thisIndex,blockLoop.thisRepN,blockLoop.thisTrialN,blockLoop.thisN,blockLoop.thisIndex,trialLoop.thisRepN,trialLoop.thisTrialN,trialLoop.thisN,trialLoop.thisIndex,doRatingLoop.thisRepN,doRatingLoop.thisTrialN,doRatingLoop.thisN,doRatingLoop.thisIndex,trialHappyLoop.thisRepN,trialHappyLoop.thisTrialN,trialHappyLoop.thisN,trialHappyLoop.thisIndex,logWinningsLoop.thisRepN,logWinningsLoop.thisTrialN,logWinningsLoop.thisN,logWinningsLoop.thisIndex,instrImage.started,instrImage.stopped,instrText.started,instrText.stopped,instrContinueText.started,instrContinueText.stopped,instrKeyResp.keys,instrKeyResp.rt,instrKeyResp.started,instrKeyResp.stopped,lifeHappyText.started,lifeHappyText.stopped,lifeHappySlider.response,lifeHappySlider.rt,lifeHappySlider.started,lifeHappySlider.stopped,lifeHappyResp.keys,lifeHappyResp.started,lifeHappyResp.stopped,instrImage_2.started,instrImage_2.stopped,instrText_2.started,instrText_2.stopped,instrContinueText_2.started,instrContinueText_2.stopped,instrKeyResp_2.keys,instrKeyResp_2.rt,instrKeyResp_2.started,instrKeyResp_2.stopped,localizing.started,localizing.stopped,start_exp.keys,start_exp.rt,start_exp.started,start_exp.stopped,blockHappyText.started,blockHappyText.stopped,blockHappySlider.response,blockHappySlider.rt,blockHappySlider.started,blockHappySlider.stopped,blockHappyResp.keys,blockHappyResp.rt,blockHappyResp.started,blockHappyResp.stopped,blankText.started,blankText.stopped,isHappyBlock,isCongruent,isWinOnTop,lastHappyRating,diff,sumDiff,RPE,winAmount,loseAmount,certainAmount,choice,outcome,outcomeAmount,currentWinnings,fixCross.started,fixCross.stopped,certainBox.started,certainBox.stopped,outcome1Box.started,outcome1Box.stopped,outcome2Box.started,outcome2Box.stopped,certainText.started,certainText.stopped,outcome1Text.started,outcome1Text.stopped,outcome2Text.started,outcome2Text.stopped,choiceKey.keys,choiceKey.started,choiceKey.stopped,fixCross_2.started,fixCross_2.stopped,certainBox_2.started,certainBox_2.stopped,outcome1Box_2.started,outcome1Box_2.stopped,outcome2Box_2.started,outcome2Box_2.stopped,certainText_2.started,certainText_2.stopped,outcome1Text_2.started,outcome1Text_2.stopped,outcome2Text_2.started,outcome2Text_2.stopped,fixCross_3.started,fixCross_3.stopped,certainBox_3.started,certainBox_3.stopped,outcome1Box_3.started,outcome1Box_3.stopped,outcome2Box_3.started,outcome2Box_3.stopped,certainText_3.started,certainText_3.stopped,outcome1Text_3.started,outcome1Text_3.stopped,outcome2Text_3.started,outcome2Text_3.stopped,fixCross_ITI.started,fixCross_ITI.stopped,choiceKey.rt,fixCross_ISI.started,fixCross_ISI.stopped,happyText.started,happyText.stopped,happySlider.response,happySlider.rt,happySlider.started,happySlider.stopped,happyResp.keys,happyResp.started,happyResp.stopped,endOfBlockText.started,endOfBlockText.stopped,restKeyResp.keys,restKeyResp.rt,restKeyResp.started,restKeyResp.stopped,finalWinnings,cashBonus,goodbyeText.started,goodbyeText.stopped,finalWinningsText.started,finalWinningsText.stopped,spaceToContinue.started,spaceToContinue.stopped,goodbyeKeyResp_2.keys,goodbyeKeyResp_2.rt,goodbyeKeyResp_2.started,goodbyeKeyResp_2.stopped,participant,date,expName,psychopyVersion,frameRate,
1,black.png,"Welcome! You are about to play our gambling task.
This task has 3 blocks and takes about 15 minutes.",,,,0,0,0,0,,,,,,,,,,,,,,,,,,,,,,,,,19.931499419548345,None,19.931499419548345,None,19.931499419548345,None,4,80.86012410260446,19.931499419548345,None,,,,,,,,,,,,,,,,,,,,,,,,,,,,,,,,,,,,,,,,,,,,,,,,,,,,,,,,,,,,,,,,,,,,,,,,,,,,,,,,,,,,,,,,,,,,,,,,,,,,,,,,,,,,,,,,,,,,,,,,,,,,,,,,,24172,2019_Aug_19_1725,Mmi_3levels,3.1.5,59.9748214278281,
2,black.png,"In this game, you may win or lose points. Your goal is to get as many points as possible. These points will be converted to a cash bonus at the end.
Sometimes we will ask you to rate your mood.",,,,0,1,1,1,,,,,,,,,,,,,,,,,,,,,,,,,100.8414693538507,None,100.8414693538507,None,100.8414693538507,None,4,3.351522931974614,100.8414693538507,None,,,,,,,,,,,,,,,,,,,,,,,,,,,,,,,,,,,,,,,,,,,,,,,,,,,,,,,,,,,,,,,,,,,,,,,,,,,,,,,,,,,,,,,,,,,,,,,,,,,,,,,,,,,,,,,,,,,,,,,,,,,,,,,,,24172,2019_Aug_19_1725,Mmi_3levels,3.1.5,59.9748214278281,
3,black.png,"On the next screen, please rate how you feel about your life these days. Use the LEFT (green) and RIGHT (blue) buttons to move the slider (you can press and hold them to slide gradually) and the TOP (red) button to lock in your response.
Make your rating as accurately and quickly as you can!",,,,0,2,2,2,,,,,,,,,,,,,,,,,,,,,,,,,104.24270340424482,None,104.24270340424482,None,104.24270340424482,None,4,7.886716695102223,104.24270340424482,None,,,,,,,,,,,,,,,,,,,,,,,,,,,,,,,,,,,,,,,,,,,,,,,,,,,,,,,,,,,,,,,,,,,,,,,,,,,,,,,,,,,,,,,,,,,,,,,,,,,,,,,,,,,,,,,,,,,,,,,,,,,,,,,,,24172,2019_Aug_19_1725,Mmi_3levels,3.1.5,59.9748214278281,
,,,,,,,,,,,,,,,,,,,,,,,,,,,,,,,,,,,,,,,,,,,,112.14577000316058,None,0.5,10.502844977978384,116.14736096373963,None,None,116.14736096373963,None,,,,,,,,,,,,,,,,,,,,,,,,,,,,,,,,,,,,,,,,,,,,,,,,,,,,,,,,,,,,,,,,,,,,,,,,,,,,,,,,,,,,,,,,,,,,,,,,,,,,,,,,,,,,,,,,,,,,,,,,24172,2019_Aug_19_1725,Mmi_3levels,3.1.5,59.9748214278281,
4,black.png,"In this game you can win money by earning points according to your choices. You will decide whether to gamble a number of points or stick with a guaranteed number of points. 
Make your choice by pressing the left or right arrow key once. An example of one trial is shown on the next screen.",,,,,,,,0,0,0,0,,,,,,,,,,,,,,,,,,,,,,,,,,,,,,,,,,,,,,,,122.68315917669315,None,122.68315917669315,None,122.68315917669315,None,4,26.627238768240204,122.68315917669315,None,,,,,,,,,,,,,,,,,,,,,,,,,,,,,,,,,,,,,,,,,,,,,,,,,,,,,,,,,,,,,,,,,,,,,,,,,,,,,,,,,,,,,,,,,,,,,,,,,,,,,,,,,,,,,,24172,2019_Aug_19_1725,Mmi_3levels,3.1.5,59.9748214278281,
5,example_start.png,"The GAMBLING OPTION will be shown on the RIGHT SIDE. 
Select this option using the RIGHT (blue) button on your keypad.",,,,,,,,0,1,1,1,,,,,,,,,,,,,,,,,,,,,,,,,,,,,,,,,,,,,,,,149.3767927105073,None,149.3767927105073,None,149.3767927105073,None,4,2.134493126104644,149.3767927105073,None,,,,,,,,,,,,,,,,,,,,,,,,,,,,,,,,,,,,,,,,,,,,,,,,,,,,,,,,,,,,,,,,,,,,,,,,,,,,,,,,,,,,,,,,,,,,,,,,,,,,,,,,,,,,,,24172,2019_Aug_19_1725,Mmi_3levels,3.1.5,59.9748214278281,
6,example_gamble.png,"Once you select the gambling choice, the choice you made will remain on the screen.",,,,,,,,0,2,2,2,,,,,,,,,,,,,,,,,,,,,,,,,,,,,,,,,,,,,,,,151.54434370636227,None,151.54434370636227,None,151.54434370636227,None,4,1.8509197620842315,151.54434370636227,None,,,,,,,,,,,,,,,,,,,,,,,,,,,,,,,,,,,,,,,,,,,,,,,,,,,,,,,,,,,,,,,,,,,,,,,,,,,,,,,,,,,,,,,,,,,,,,,,,,,,,,,,,,,,,,24172,2019_Aug_19_1725,Mmi_3levels,3.1.5,59.9748214278281,
7,example_win.png,"The outcome you received will then be shown on the screen. In this example , you WON 10 points.",,,,,,,,0,3,3,3,,,,,,,,,,,,,,,,,,,,,,,,,,,,,,,,,,,,,,,,153.42835333660332,None,153.42835333660332,None,153.42835333660332,None,4,1.4172578904872353,153.42835333660332,None,,,,,,,,,,,,,,,,,,,,,,,,,,,,,,,,,,,,,,,,,,,,,,,,,,,,,,,,,,,,,,,,,,,,,,,,,,,,,,,,,,,,,,,,,,,,,,,,,,,,,,,,,,,,,,24172,2019_Aug_19_1725,Mmi_3levels,3.1.5,59.9748214278281,
8,example_start.png,"The GUARANTEED OPTION will be shown on the LEFT SIDE. You are 100% guaranteed to gain or lose this amount. In this example, you have a 100% chance of winning 1 point. Select this option using the LEFT (green) button on your keyboard.",,,,,,,,0,4,4,4,,,,,,,,,,,,,,,,,,,,,,,,,,,,,,,,,,,,,,,,154.89558313248926,None,154.89558313248926,None,154.89558313248926,None,4,1.2340871943670209,154.89558313248926,None,,,,,,,,,,,,,,,,,,,,,,,,,,,,,,,,,,,,,,,,,,,,,,,,,,,,,,,,,,,,,,,,,,,,,,,,,,,,,,,,,,,,,,,,,,,,,,,,,,,,,,,,,,,,,,24172,2019_Aug_19_1725,Mmi_3levels,3.1.5,59.9748214278281,
9,example_certain.png,"Once you select the guaranteed choice, your selection will remain on the screen.",,,,,,,,0,5,5,5,,,,,,,,,,,,,,,,,,,,,,,,,,,,,,,,,,,,,,,,156.1627275566425,None,156.1627275566425,None,156.1627275566425,None,4,1.4675616193235328,156.1627275566425,None,,,,,,,,,,,,,,,,,,,,,,,,,,,,,,,,,,,,,,,,,,,,,,,,,,,,,,,,,,,,,,,,,,,,,,,,,,,,,,,,,,,,,,,,,,,,,,,,,,,,,,,,,,,,,,24172,2019_Aug_19_1725,Mmi_3levels,3.1.5,59.9748214278281,
10,black.png,"Please make your choices as fast as possible.
You will be given a break at the end of each block.
Let's play!",,,,,,,,0,6,6,6,,,,,,,,,,,,,,,,,,,,,,,,,,,,,,,,,,,,,,,,157.66329584827326,None,157.66329584827326,None,157.66329584827326,None,4,1.3508394460950512,157.66329584827326,None,,,,,,,,,,,,,,,,,,,,,,,,,,,,,,,,,,,,,,,,,,,,,,,,,,,,,,,,,,,,,,,,,,,,,,,,,,,,,,,,,,,,,,,,,,,,,,,,,,,,,,,,,,,,,,24172,2019_Aug_19_1725,Mmi_3levels,3.1.5,59.9748214278281,
,,,,,,,,,,,,,,,,,,,,,,,,,,,,,,,,,,,,,,,,,,,,,,,,,,,,,,,,,,,,,,,159.03049127787745,None,space,21.341873173689237,159.03049127787745,None,,,,,,,,,,,,,,,,,,,,,,,,,,,,,,,,,,,,,,,,,,,,,,,,,,,,,,,,,,,,,,,,,,,,,,,,,,,,,,,,,,,,,,,,,,,,,,,,,,,,,,,,24172,2019_Aug_19_1725,Mmi_3levels,3.1.5,59.9748214278281,
,,,1,1,-0.5,,,,,,,,,0,0,0,0,0,0,0,8,,,,,,,,,,,,,,,,,,,,,,,,,,,,,,,,,,,,,,,,,,,,,,,,180.38874635378306,None,0.59,6.262142113868322,183.40657906357228,None,4,3.234851316225104,183.40657906357228,None,186.65786987913452,None,True,True,False,0.59,-0.41000000000000003,-0.41000000000000003,6.15,-0.5,-6.65,-3.575,gamble,win,-0.5,-0.5,189.6923382384739,None,189.6923382384739,None,189.6923382384739,None,189.6923382384739,None,189.6923382384739,None,189.6923382384739,None,189.6923382384739,None,None,189.6923382384739,None,192.69347834155997,None,192.69347834155997,None,192.69347834155997,None,192.69347834155997,None,192.69347834155997,None,192.69347834155997,None,192.69347834155997,None,196.69505106305223,None,196.69505106305223,None,196.69505106305223,None,196.69505106305223,None,196.69505106305223,None,196.69505106305223,None,196.69505106305223,None,197.6787504367785,None,,,,,,,,,,,,,,,,,,,,,,,,,,,,,,,24172,2019_Aug_19_1725,Mmi_3levels,3.1.5,59.9748214278281,
,,,1,1,13.1,,,,,,,,,0,0,0,0,0,1,1,2,,,,,,,,,,,,,,,,,,,,,,,,,,,,,,,,,,,,,,,,,,,,,,,,,,,,,,,,,,,,True,True,True,0.59,-0.41000000000000003,-0.8200000000000001,6.5600000000000005,13.1,6.539999999999999,3.2699999999999996,gamble,win,13.1,12.6,199.6962343639825,None,199.6962343639825,None,199.6962343639825,None,199.6962343639825,None,199.6962343639825,None,199.6962343639825,None,199.6962343639825,None,1,199.6962343639825,None,201.5302756086421,None,201.5302756086421,None,201.5302756086421,None,201.5302756086421,None,201.5302756086421,None,201.5302756086421,None,201.5302756086421,None,205.515142924065,None,205.515142924065,None,205.515142924065,None,205.515142924065,None,205.515142924065,None,205.515142924065,None,205.515142924065,None,206.51549170665385,None,1.8009030589164468,,,,,,,,,,,,,,,,,,,,,,,,,,,,,,24172,2019_Aug_19_1725,Mmi_3levels,3.1.5,59.9748214278281,
,,,1,1,4.1,,,,,,,,,0,0,0,0,0,2,2,25,,,,,,,,,,,,,,,,,,,,,,,,,,,,,,,,,,,,,,,,,,,,,,,,,,,,,,,,,,,,True,False,True,0.59,-0.41000000000000003,-1.23,-1.5375,4.1,2.5624999999999996,1.2812499999999998,gamble,lose,2.5624999999999996,15.1625,208.5329340359349,None,208.5329340359349,None,208.5329340359349,None,208.5329340359349,None,208.5329340359349,None,208.5329340359349,None,208.5329340359349,None,1,208.5329340359349,None,209.98354578139333,None,209.98354578139333,None,209.98354578139333,None,209.98354578139333,None,209.98354578139333,None,209.98354578139333,None,209.98354578139333,None,213.96836349929436,None,213.96836349929436,None,213.96836349929436,None,213.96836349929436,None,213.96836349929436,None,213.96836349929436,None,213.96836349929436,None,223.47203563598305,None,1.4175193174378364,214.96875195990287,None,215.96912314137444,None,0.59,7.502865136972105,218.97033844070393,None,None,218.97033844070393,None,,,,,,,,,,,,,,,,,,,24172,2019_Aug_19_1725,Mmi_3levels,3.1.5,59.9748214278281,
,,,1,1,3.1,,,,,,,,,0,0,0,0,0,3,3,11,,,,,,,,,,,,,,,,,,,,,,,,,,,,,,,,,,,,,,,,,,,,,,,,,,,,,,,,,,,,True,True,True,0.59,-0.41000000000000003,-1.6400000000000001,7.380000000000001,3.1,-4.280000000000001,-0.5900000000000005,certain,certain,-0.5900000000000005,14.5725,225.51076138279313,None,225.51076138279313,None,225.51076138279313,None,225.51076138279313,None,225.51076138279313,None,225.51076138279313,None,225.51076138279313,None,3,225.51076138279313,None,228.4406087248135,None,228.4406087248135,None,228.4406087248135,None,228.4406087248135,None,228.4406087248135,None,228.4406087248135,None,228.4406087248135,None,232.44219520561455,None,232.44219520561455,None,232.44219520561455,None,232.44219520561455,None,232.44219520561455,None,232.44219520561455,None,232.44219520561455,None,233.425913458399,None,2.8967465944078867,,,,,,,,,,,,,,,,,,,,,,,,,,,,,,24172,2019_Aug_19_1725,Mmi_3levels,3.1.5,59.9748214278281,
,,,1,1,0.5,,,,,,,,,0,0,0,0,0,4,4,7,,,,,,,,,,,,,,,,,,,,,,,,,,,,,,,,,,,,,,,,,,,,,,,,,,,,,,,,,,,,True,True,False,0.59,-0.41000000000000003,-2.0500000000000003,7.790000000000001,0.5,-7.290000000000001,-3.3950000000000005,gamble,win,0.5,15.0725,235.44331290982154,None,235.44331290982154,None,235.44331290982154,None,235.44331290982154,None,235.44331290982154,None,235.44331290982154,None,235.44331290982154,None,None,235.44331290982154,None,238.44446901210904,None,238.44446901210904,None,238.44446901210904,None,238.44446901210904,None,238.44446901210904,None,238.44446901210904,None,238.44446901210904,None,242.42933408764293,None,242.42933408764293,None,242.42933408764293,None,242.42933408764293,None,242.42933408764293,None,242.42933408764293,None,242.42933408764293,None,251.9330068642994,None,,243.4297254281082,None,244.43011292876326,None,0.64,7.502811379657942,247.431266151194,None,None,247.431266151194,None,,,,,,,,,,,,,,,,,,,24172,2019_Aug_19_1725,Mmi_3levels,3.1.5,59.9748214278281,
,,,1,1,7.1,,,,,,,,,0,0,0,0,0,5,5,20,,,,,,,,,,,,,,,,,,,,,,,,,,,,,,,,,,,,,,,,,,,,,,,,,,,,,,,,,,,,True,False,False,0.64,-0.36,-2.41,-1.4608333333333334,7.1,5.639166666666666,2.819583333333333,gamble,lose,5.639166666666666,20.711666666666666,253.95043383434313,None,253.95043383434313,None,253.95043383434313,None,253.95043383434313,None,253.95043383434313,None,253.95043383434313,None,253.95043383434313,None,1,253.95043383434313,None,255.71785440470921,None,255.71785440470921,None,255.71785440470921,None,255.71785440470921,None,255.71785440470921,None,255.71785440470921,None,255.71785440470921,None,259.70266444298977,None,259.70266444298977,None,259.70266444298977,None,259.70266444298977,None,259.70266444298977,None,259.70266444298977,None,259.70266444298977,None,260.7030669828964,None,1.7343028636023519,,,,,,,,,,,,,,,,,,,,,,,,,,,,,,24172,2019_Aug_19_1725,Mmi_3levels,3.1.5,59.9748214278281,
,,,1,1,7.5,,,,,,,,,0,0,0,0,0,6,6,26,,,,,,,,,,,,,,,,,,,,,,,,,,,,,,,,,,,,,,,,,,,,,,,,,,,,,,,,,,,,True,False,False,0.64,-0.36,-2.77,-1.4908333333333332,7.5,6.009166666666667,3.0045833333333336,gamble,lose,6.009166666666667,26.72083333333333,262.7204821135347,None,262.7204821135347,None,262.7204821135347,None,262.7204821135347,None,262.7204821135347,None,262.7204821135347,None,262.7204821135347,None,1,262.7204821135347,None,264.0710630125359,None,264.0710630125359,None,264.0710630125359,None,264.0710630125359,None,264.0710630125359,None,264.0710630125359,None,264.0710630125359,None,268.05588393027574,None,268.05588393027574,None,268.05588393027574,None,268.05588393027574,None,268.05588393027574,None,268.05588393027574,None,268.05588393027574,None,269.05626663117073,None,1.3174823912777356,,,,,,,,,,,,,,,,,,,,,,,,,,,,,,24172,2019_Aug_19_1725,Mmi_3levels,3.1.5,59.9748214278281,
,,,1,1,6.5,,,,,,,,,0,0,0,0,0,7,7,0,,,,,,,,,,,,,,,,,,,,,,,,,,,,,,,,,,,,,,,,,,,,,,,,,,,,,,,,,,,,True,True,False,0.64,-0.36,-3.13,8.17,6.5,-1.67,-0.835,gamble,win,6.5,33.22083333333333,271.07373999890115,None,271.07373999890115,None,271.07373999890115,None,271.07373999890115,None,271.07373999890115,None,271.07373999890115,None,271.07373999890115,None,1,271.07373999890115,None,272.6576622095017,None,272.6576622095017,None,272.6576622095017,None,272.6576622095017,None,272.6576622095017,None,272.6576622095017,None,272.6576622095017,None,276.64253336473485,None,276.64253336473485,None,276.64253336473485,None,276.64253336473485,None,276.64253336473485,None,276.64253336473485,None,276.64253336473485,None,286.14624613939304,None,1.5508150633140758,277.6429640632341,None,278.6433502839536,None,0.6,7.502781621140457,281.6444657482716,None,None,281.6444657482716,None,,,,,,,,,,,,,,,,,,,24172,2019_Aug_19_1725,Mmi_3levels,3.1.5,59.9748214278281,
,,,1,1,12.3,,,,,,,,,0,0,0,0,0,8,8,4,,,,,,,,,,,,,,,,,,,,,,,,,,,,,,,,,,,,,,,,,,,,,,,,,,,,,,,,,,,,True,True,True,0.6,-0.4,-3.53,9.13,12.3,3.17,1.585,gamble,win,12.3,45.52083333333333,288.1849853255335,None,288.1849853255335,None,288.1849853255335,None,288.1849853255335,None,288.1849853255335,None,288.1849853255335,None,288.1849853255335,None,1,288.1849853255335,None,289.68089880953266,None,289.68089880953266,None,289.68089880953266,None,289.68089880953266,None,289.68089880953266,None,289.68089880953266,None,289.68089880953266,None,293.6657667649233,None,293.6657667649233,None,293.6657667649233,None,293.6657667649233,None,293.6657667649233,None,293.6657667649233,None,293.6657667649233,None,294.66614914583624,None,1.4628037768343347,,,,,,,,,,,,,,,,,,,,,,,,,,,,,,24172,2019_Aug_19_1725,Mmi_3levels,3.1.5,59.9748214278281,
,,,1,1,8.5,,,,,,,,,0,0,0,0,0,9,9,19,,,,,,,,,,,,,,,,,,,,,,,,,,,,,,,,,,,,,,,,,,,,,,,,,,,,,,,,,,,,True,True,True,0.6,-0.4,-3.9299999999999997,9.530000000000001,8.5,-1.0300000000000011,-0.5150000000000006,gamble,win,8.5,54.02083333333333,296.68359179509935,None,296.68359179509935,None,296.68359179509935,None,296.68359179509935,None,296.68359179509935,None,296.68359179509935,None,296.68359179509935,None,1,296.68359179509935,None,298.2175238612108,None,298.2175238612108,None,298.2175238612108,None,298.2175238612108,None,298.2175238612108,None,298.2175238612108,None,298.2175238612108,None,302.2190639443288,None,302.2190639443288,None,302.2190639443288,None,302.2190639443288,None,302.2190639443288,None,302.2190639443288,None,302.2190639443288,None,311.7061010714351,None,1.5008185191400116,303.20277067768984,None,304.2031636180727,None,0.6,7.502860657197743,307.20429892139873,None,None,307.20429892139873,None,,,,,,,,,,,,,,,,,,,24172,2019_Aug_19_1725,Mmi_3levels,3.1.5,59.9748214278281,
,,,1,1,12.1,,,,,,,,,0,0,0,0,0,10,10,21,,,,,,,,,,,,,,,,,,,,,,,,,,,,,,,,,,,,,,,,,,,,,,,,,,,,,,,,,,,,True,True,True,0.6,-0.4,-4.33,9.93,12.1,2.17,1.085,gamble,win,12.1,66.12083333333332,313.7235024427573,None,313.7235024427573,None,313.7235024427573,None,313.7235024427573,None,313.7235024427573,None,313.7235024427573,None,313.7235024427573,None,1,313.7235024427573,None,315.2074485241719,None,315.2074485241719,None,315.2074485241719,None,315.2074485241719,None,315.2074485241719,None,315.2074485241719,None,315.2074485241719,None,319.2089514891413,None,319.2089514891413,None,319.2089514891413,None,319.2089514891413,None,319.2089514891413,None,319.2089514891413,None,319.2089514891413,None,320.1927046201854,None,1.4508373341996048,,,,,,,,,,,,,,,,,,,,,,,,,,,,,,24172,2019_Aug_19_1725,Mmi_3levels,3.1.5,59.9748214278281,
,,,1,1,9.7,,,,,,,,,0,0,0,0,0,11,11,13,,,,,,,,,,,,,,,,,,,,,,,,,,,,,,,,,,,,,,,,,,,,,,,,,,,,,,,,,,,,True,True,False,0.6,-0.4,-4.73,10.330000000000002,9.7,-0.6300000000000026,-0.3150000000000013,gamble,win,9.7,75.82083333333333,322.2101056715255,None,322.2101056715255,None,322.2101056715255,None,322.2101056715255,None,322.2101056715255,None,322.2101056715255,None,322.2101056715255,None,1,322.2101056715255,None,324.3109182389635,None,324.3109182389635,None,324.3109182389635,None,324.3109182389635,None,324.3109182389635,None,324.3109182389635,None,324.3109182389635,None,328.312457042146,None,328.312457042146,None,328.312457042146,None,328.312457042146,None,328.312457042146,None,328.312457042146,None,328.312457042146,None,337.7994628108172,None,2.0675223892831127,329.2961698552026,None,330.2965563959042,None,0.61,7.502853937530745,333.2977182579052,None,None,333.2977182579052,None,,,,,,,,,,,,,,,,,,,24172,2019_Aug_19_1725,Mmi_3levels,3.1.5,59.9748214278281,
,,,1,1,8.3,,,,,,,,,0,0,0,0,0,12,12,15,,,,,,,,,,,,,,,,,,,,,,,,,,,,,,,,,,,,,,,,,,,,,,,,,,,,,,,,,,,,True,True,True,0.61,-0.39,-5.12,10.58,8.3,-2.2799999999999994,-1.1399999999999997,gamble,win,8.3,84.12083333333332,339.8168913807822,None,339.8168913807822,None,339.8168913807822,None,339.8168913807822,None,339.8168913807822,None,339.8168913807822,None,339.8168913807822,None,1,339.8168913807822,None,341.8177140597145,None,341.8177140597145,None,341.8177140597145,None,341.8177140597145,None,341.8177140597145,None,341.8177140597145,None,341.8177140597145,None,345.81921702468753,None,345.81921702468753,None,345.81921702468753,None,345.81921702468753,None,345.81921702468753,None,345.81921702468753,None,345.81921702468753,None,346.80292535796616,None,1.9677840082222247,,,,,,,,,,,,,,,,,,,,,,,,,,,,,,24172,2019_Aug_19_1725,Mmi_3levels,3.1.5,59.9748214278281,
,,,1,1,10.7,,,,,,,,,0,0,0,0,0,13,13,10,,,,,,,,,,,,,,,,,,,,,,,,,,,,,,,,,,,,,,,,,,,,,,,,,,,,,,,,,,,,True,True,True,0.61,-0.39,-5.51,10.969999999999999,10.7,-0.2699999999999996,-0.1349999999999998,gamble,win,10.7,94.82083333333333,348.8203590476769,None,348.8203590476769,None,348.8203590476769,None,348.8203590476769,None,348.8203590476769,None,348.8203590476769,None,348.8203590476769,None,1,348.8203590476769,None,350.38768560673634,None,350.38768560673634,None,350.38768560673634,None,350.38768560673634,None,350.38768560673634,None,350.38768560673634,None,350.38768560673634,None,354.3891780122358,None,354.3891780122358,None,354.3891780122358,None,354.3891780122358,None,354.3891780122358,None,354.3891780122358,None,354.3891780122358,None,355.3729317832476,None,1.5342990877907141,,,,,,,,,,,,,,,,,,,,,,,,,,,,,,24172,2019_Aug_19_1725,Mmi_3levels,3.1.5,59.9748214278281,
,,,1,1,7.9,,,,,,,,,0,0,0,0,0,14,14,12,,,,,,,,,,,,,,,,,,,,,,,,,,,,,,,,,,,,,,,,,,,,,,,,,,,,,,,,,,,,True,False,False,0.61,-0.39,-5.8999999999999995,-1.8566666666666667,7.9,6.043333333333334,3.021666666666667,gamble,lose,6.043333333333334,100.86416666666666,357.3903024361025,None,357.3903024361025,None,357.3903024361025,None,357.3903024361025,None,357.3903024361025,None,357.3903024361025,None,357.3903024361025,None,1,357.3903024361025,None,358.6908861509655,None,358.6908861509655,None,358.6908861509655,None,358.6908861509655,None,358.6908861509655,None,358.6908861509655,None,358.6908861509655,None,362.6757048288164,None,362.6757048288164,None,362.6757048288164,None,362.6757048288164,None,362.6757048288164,None,362.6757048288164,None,362.6757048288164,None,372.17939552457756,None,1.2674781674868427,363.67610416888056,None,364.67645359143717,None,0.6,7.502863537050871,367.6776864898893,None,None,367.6776864898893,None,,,,,,,,,,,,,,,,,,,24172,2019_Aug_19_1725,Mmi_3levels,3.1.5,59.9748214278281,
,,,1,1,-0.9,,,,,,,,,0,0,0,0,0,15,15,23,,,,,,,,,,,,,,,,,,,,,,,,,,,,,,,,,,,,,,,,,,,,,,,,,,,,,,,,,,,,True,True,True,0.6,-0.4,-6.3,11.9,-0.9,-12.8,-6.8500000000000005,gamble,win,-0.9,99.96416666666666,374.196794016043,None,374.196794016043,None,374.196794016043,None,374.196794016043,None,374.196794016043,None,374.196794016043,None,374.196794016043,None,None,374.196794016043,None,377.1979971559813,None,377.1979971559813,None,377.1979971559813,None,377.1979971559813,None,377.1979971559813,None,377.1979971559813,None,377.1979971559813,None,381.19949340129097,None,381.19949340129097,None,381.19949340129097,None,381.19949340129097,None,381.19949340129097,None,381.19949340129097,None,381.19949340129097,None,382.1832030145051,None,,,,,,,,,,,,,,,,,,,,,,,,,,,,,,,24172,2019_Aug_19_1725,Mmi_3levels,3.1.5,59.9748214278281,
,,,1,1,11.5,,,,,,,,,0,0,0,0,0,16,16,16,,,,,,,,,,,,,,,,,,,,,,,,,,,,,,,,,,,,,,,,,,,,,,,,,,,,,,,,,,,,True,True,True,0.6,-0.4,-6.7,12.3,11.5,-0.8000000000000007,-0.40000000000000036,gamble,win,11.5,111.46416666666666,384.2006754222821,None,384.2006754222821,None,384.2006754222821,None,384.2006754222821,None,384.2006754222821,None,384.2006754222821,None,384.2006754222821,None,1,384.2006754222821,None,386.3347896872983,None,386.3347896872983,None,386.3347896872983,None,386.3347896872983,None,386.3347896872983,None,386.3347896872983,None,386.3347896872983,None,390.3363947271755,None,390.3363947271755,None,390.3363947271755,None,390.3363947271755,None,390.3363947271755,None,390.3363947271755,None,390.3363947271755,None,399.823362737734,None,2.1011056728057156,391.3200611425491,None,392.32047296199016,None,0.6,7.502728823776124,395.3216015456528,None,None,395.3216015456528,None,,,,,,,,,,,,,,,,,,,24172,2019_Aug_19_1725,Mmi_3levels,3.1.5,59.9748214278281,
,,,1,1,1.1,,,,,,,,,0,0,0,0,0,17,17,6,,,,,,,,,,,,,,,,,,,,,,,,,,,,,,,,,,,,,,,,,,,,,,,,,,,,,,,,,,,,True,False,True,0.6,-0.4,-7.1000000000000005,-1.9916666666666667,1.1,-0.8916666666666666,0.10416666666666674,certain,certain,0.10416666666666674,111.56833333333333,401.8620670456148,None,401.8620670456148,None,401.8620670456148,None,401.8620670456148,None,401.8620670456148,None,401.8620670456148,None,401.8620670456148,None,3,401.8620670456148,None,404.5752237648303,None,404.5752237648303,None,404.5752237648303,None,404.5752237648303,None,404.5752237648303,None,404.5752237648303,None,404.5752237648303,None,408.57671585034404,None,408.57671585034404,None,408.57671585034404,None,408.57671585034404,None,408.57671585034404,None,408.57671585034404,None,408.57671585034404,None,409.5604238636406,None,2.6800511718465714,,,,,,,,,,,,,,,,,,,,,,,,,,,,,,24172,2019_Aug_19_1725,Mmi_3levels,3.1.5,59.9748214278281,
,,,1,1,10.5,,,,,,,,,0,0,0,0,0,18,18,5,,,,,,,,,,,,,,,,,,,,,,,,,,,,,,,,,,,,,,,,,,,,,,,,,,,,,,,,,,,,True,True,False,0.6,-0.4,-7.500000000000001,13.100000000000001,10.5,-2.6000000000000014,-1.3000000000000007,gamble,win,10.5,122.06833333333333,411.577941069183,None,411.577941069183,None,411.577941069183,None,411.577941069183,None,411.577941069183,None,411.577941069183,None,411.577941069183,None,1,411.577941069183,None,413.79539325396763,None,413.79539325396763,None,413.79539325396763,None,413.79539325396763,None,413.79539325396763,None,413.79539325396763,None,413.79539325396763,None,417.7969326971215,None,417.7969326971215,None,417.7969326971215,None,417.7969326971215,None,417.7969326971215,None,417.7969326971215,None,417.7969326971215,None,418.78069894751025,None,2.1843971948947,,,,,,,,,,,,,,,,,,,,,,,,,,,,,,24172,2019_Aug_19_1725,Mmi_3levels,3.1.5,59.9748214278281,
,,,1,1,8.7,,,,,,,,,0,0,0,0,0,19,19,9,,,,,,,,,,,,,,,,,,,,,,,,,,,,,,,,,,,,,,,,,,,,,,,,,,,,,,,,,,,,True,True,False,0.6,-0.4,-7.900000000000001,13.500000000000002,8.7,-4.8000000000000025,1.9499999999999984,gamble,win,8.7,130.76833333333332,420.7981819147608,None,420.7981819147608,None,420.7981819147608,None,420.7981819147608,None,420.7981819147608,None,420.7981819147608,None,420.7981819147608,None,None,420.7981819147608,None,423.79929545917184,None,423.79929545917184,None,423.79929545917184,None,423.79929545917184,None,423.79929545917184,None,423.79929545917184,None,423.79929545917184,None,427.80080066403025,None,427.80080066403025,None,427.80080066403025,None,427.80080066403025,None,427.80080066403025,None,427.80080066403025,None,427.80080066403025,None,437.2877840338224,None,,428.7845745940358,None,429.78490257766316,None,0.6,7.502771381652565,432.7860781989766,None,None,432.7860781989766,None,,,,,,,,,,,,,,,,,,,24172,2019_Aug_19_1725,Mmi_3levels,3.1.5,59.9748214278281,
,,,1,1,6.9,,,,,,,,,0,0,0,0,0,20,20,1,,,,,,,,,,,,,,,,,,,,,,,,,,,,,,,,,,,,,,,,,,,,,,,,,,,,,,,,,,,,True,True,True,0.6,-0.4,-8.3,13.900000000000002,6.9,-7.000000000000002,-0.05000000000000071,certain,certain,-0.05000000000000071,130.7183333333333,439.3052836402421,None,439.3052836402421,None,439.3052836402421,None,439.3052836402421,None,439.3052836402421,None,439.3052836402421,None,439.3052836402421,None,3,439.3052836402421,None,441.4393870257991,None,441.4393870257991,None,441.4393870257991,None,441.4393870257991,None,441.4393870257991,None,441.4393870257991,None,441.4393870257991,None,445.44095974729134,None,445.44095974729134,None,445.44095974729134,None,445.44095974729134,None,445.44095974729134,None,445.44095974729134,None,445.44095974729134,None,446.42466680063444,None,2.1009952783169865,,,,,,,,,,,,,,,,,,,,,,,,,,,,,,24172,2019_Aug_19_1725,Mmi_3levels,3.1.5,59.9748214278281,
,,,1,1,-1.3,,,,,,,,,0,0,0,0,0,21,21,17,,,,,,,,,,,,,,,,,,,,,,,,,,,,,,,,,,,,,,,,,,,,,,,,,,,,,,,,,,,,True,True,True,0.6,-0.4,-8.700000000000001,14.3,-1.3,-15.600000000000001,-8.450000000000001,gamble,win,-1.3,129.4183333333333,448.44209665053495,None,448.44209665053495,None,448.44209665053495,None,448.44209665053495,None,448.44209665053495,None,448.44209665053495,None,448.44209665053495,None,None,448.44209665053495,None,451.4432393134957,None,451.4432393134957,None,451.4432393134957,None,451.4432393134957,None,451.4432393134957,None,451.4432393134957,None,451.4432393134957,None,455.44478963610163,None,455.44478963610163,None,455.44478963610163,None,455.44478963610163,None,455.44478963610163,None,455.44478963610163,None,455.44478963610163,None,464.9317762057326,None,,456.428544687049,None,457.42895234669777,None,0.59,7.502747702834313,460.4300354926272,None,None,460.4300354926272,None,,,,,,,,,,,,,,,,,,,24172,2019_Aug_19_1725,Mmi_3levels,3.1.5,59.9748214278281,
,,,1,1,3.5,,,,,,,,,0,0,0,0,0,22,22,3,,,,,,,,,,,,,,,,,,,,,,,,,,,,,,,,,,,,,,,,,,,,,,,,,,,,,,,,,,,,True,True,True,0.59,-0.41000000000000003,-9.110000000000001,14.850000000000001,3.5,-11.350000000000001,-3.9250000000000007,gamble,win,3.5,132.9183333333333,466.97056018963485,None,466.97056018963485,None,466.97056018963485,None,466.97056018963485,None,466.97056018963485,None,466.97056018963485,None,466.97056018963485,None,None,466.97056018963485,None,469.96715075983593,None,469.96715075983593,None,469.96715075983593,None,469.96715075983593,None,469.96715075983593,None,469.96715075983593,None,469.96715075983593,None,473.951922400036,None,473.951922400036,None,473.951922400036,None,473.951922400036,None,473.951922400036,None,473.951922400036,None,473.951922400036,None,474.9523060608808,None,,,,,,,,,,,,,,,,,,,,,,,,,,,,,,,24172,2019_Aug_19_1725,Mmi_3levels,3.1.5,59.9748214278281,
,,,1,1,11.7,,,,,,,,,0,0,0,0,0,23,23,14,,,,,,,,,,,,,,,,,,,,,,,,,,,,,,,,,,,,,,,,,,,,,,,,,,,,,,,,,,,,True,True,False,0.59,-0.41000000000000003,-9.520000000000001,15.260000000000002,11.7,-3.5600000000000023,-1.7800000000000011,gamble,win,11.7,144.61833333333328,476.9698005475584,None,476.9698005475584,None,476.9698005475584,None,476.9698005475584,None,476.9698005475584,None,476.9698005475584,None,476.9698005475584,None,1,476.9698005475584,None,478.5036778963986,None,478.5036778963986,None,478.5036778963986,None,478.5036778963986,None,478.5036778963986,None,478.5036778963986,None,478.5036778963986,None,482.50521797952024,None,482.50521797952024,None,482.50521797952024,None,482.50521797952024,None,482.50521797952024,None,482.50521797952024,None,482.50521797952024,None,491.9922093489113,None,1.500769561582274,483.4889768702742,None,484.4893640509472,None,0.58,7.50279986023088,487.49051695339585,None,None,487.49051695339585,None,,,,,,,,,,,,,,,,,,,24172,2019_Aug_19_1725,Mmi_3levels,3.1.5,59.9748214278281,
,,,1,1,9.9,,,,,,,,,0,0,0,0,0,24,24,18,,,,,,,,,,,,,,,,,,,,,,,,,,,,,,,,,,,,,,,,,,,,,,,,,,,,,,,,,,,,True,False,True,0.58,-0.42000000000000004,-9.940000000000001,-2.298333333333334,9.9,7.601666666666667,3.8008333333333333,gamble,lose,7.601666666666667,152.21999999999994,494.0096532781099,None,494.0096532781099,None,494.0096532781099,None,494.0096532781099,None,494.0096532781099,None,494.0096532781099,None,494.0096532781099,None,1,494.0096532781099,None,495.61027225520957,None,495.61027225520957,None,495.61027225520957,None,495.61027225520957,None,495.61027225520957,None,495.61027225520957,None,495.61027225520957,None,499.5951379707112,None,499.5951379707112,None,499.5951379707112,None,499.5951379707112,None,499.5951379707112,None,499.5951379707112,None,499.5951379707112,None,500.59557378895624,None,1.567684621182707,,,,,,,,,,,,,,,,,,,,,,,,,,,,,,24172,2019_Aug_19_1725,Mmi_3levels,3.1.5,59.9748214278281,
,,,1,1,8.9,,,,,,,,,0,0,0,0,0,25,25,24,,,,,,,,,,,,,,,,,,,,,,,,,,,,,,,,,,,,,,,,,,,,,,,,,,,,,,,,,,,,True,True,True,0.58,-0.42000000000000004,-10.360000000000001,16.240000000000002,8.9,-7.340000000000002,0.7799999999999994,certain,certain,0.7799999999999994,152.99999999999994,502.6130586761101,None,502.6130586761101,None,502.6130586761101,None,502.6130586761101,None,502.6130586761101,None,502.6130586761101,None,502.6130586761101,None,3,502.6130586761101,None,504.5970741940582,None,504.5970741940582,None,504.5970741940582,None,504.5970741940582,None,504.5970741940582,None,504.5970741940582,None,504.5970741940582,None,508.58197734769055,None,508.58197734769055,None,508.58197734769055,None,508.58197734769055,None,508.58197734769055,None,508.58197734769055,None,508.58197734769055,None,509.58232293044057,None,1.950964047875459,,,,,,,,,,,,,,,,,,,,,,,,,,,,,,24172,2019_Aug_19_1725,Mmi_3levels,3.1.5,59.9748214278281,
,,,1,1,5.1,,,,,,,,,0,0,0,0,0,26,26,22,,,,,,,,,,,,,,,,,,,,,,,,,,,,,,,,,,,,,,,,,,,,,,,,,,,,,,,,,,,,True,True,True,0.58,-0.42000000000000004,-10.780000000000001,16.660000000000004,5.1,-11.560000000000004,-3.230000000000002,gamble,win,5.1,158.09999999999994,511.5998180570823,None,511.5998180570823,None,511.5998180570823,None,511.5998180570823,None,511.5998180570823,None,511.5998180570823,None,511.5998180570823,None,None,511.5998180570823,None,514.6009274417011,None,514.6009274417011,None,514.6009274417011,None,514.6009274417011,None,514.6009274417011,None,514.6009274417011,None,514.6009274417011,None,518.5858376349861,None,518.5858376349861,None,518.5858376349861,None,518.5858376349861,None,518.5858376349861,None,518.5858376349861,None,518.5858376349861,None,528.0895049719111,None,,519.5861835377182,None,520.5865671985666,None,0.66,7.502824179016898,523.5877277806285,None,None,523.5877277806285,None,,,,,,,,,,,,,,,,,,,24172,2019_Aug_19_1725,Mmi_3levels,3.1.5,59.9748214278281,
,,,2,0,7.1,,,,,,,,,0,1,1,1,0,0,0,21,,,,,,,,,,,,,,,,,,,,,,,,,,,,,,,,,,,,,,,,,,,,,,,,534.0417559955422,None,0.59,4.800619553072465,537.0595938250772,None,4,1.7676237602245237,537.0595938250772,None,538.8436465251652,None,False,True,True,0.59,0.59,0.59,-8.85,1.775,-7.074999999999999,-2.6499999999999995,certain,certain,-2.6499999999999995,155.44999999999993,541.8781097647625,None,541.8781097647625,None,541.8781097647625,None,541.8781097647625,None,541.8781097647625,None,541.8781097647625,None,541.8781097647625,None,3,541.8781097647625,None,544.6126113384416,None,544.6126113384416,None,544.6126113384416,None,544.6126113384416,None,544.6126113384416,None,544.6126113384416,None,544.6126113384416,None,548.6140765452983,None,548.6140765452983,None,548.6140765452983,None,548.6140765452983,None,548.6140765452983,None,548.6140765452983,None,548.6140765452983,None,549.5977394408474,None,2.701366267796402,,,,,,,,,,,,530.0948394256156,None,4,3.9306904999284598,530.0948394256156,None,,,,,,,,,,,,,24172,2019_Aug_19_1725,Mmi_3levels,3.1.5,59.9748214278281,
,,,2,0,-0.1,,,,,,,,,0,1,1,1,0,1,1,20,,,,,,,,,,,,,,,,,,,,,,,,,,,,,,,,,,,,,,,,,,,,,,,,,,,,,,,,,,,,False,True,True,0.59,0.59,1.18,-9.44,-0.025,-9.465,-4.745,gamble,lose,-9.465,145.98499999999993,551.6152022491042,None,551.6152022491042,None,551.6152022491042,None,551.6152022491042,None,551.6152022491042,None,551.6152022491042,None,551.6152022491042,None,None,551.6152022491042,None,554.6163577114239,None,554.6163577114239,None,554.6163577114239,None,554.6163577114239,None,554.6163577114239,None,554.6163577114239,None,554.6163577114239,None,558.617950911892,None,558.617950911892,None,558.617950911892,None,558.617950911892,None,558.617950911892,None,558.617950911892,None,558.617950911892,None,568.1049307618559,None,,559.6016083677096,None,560.602042906019,None,0.59,7.502826738887961,563.6031974083853,None,None,563.6031974083853,None,,,,,,,,,,,,,,,,,,,24172,2019_Aug_19_1725,Mmi_3levels,3.1.5,59.9748214278281,
,,,2,0,6.3,,,,,,,,,0,1,1,1,0,2,2,7,,,,,,,,,,,,,,,,,,,,,,,,,,,,,,,,,,,,,,,,,,,,,,,,,,,,,,,,,,,,False,True,False,0.59,0.59,1.77,-10.03,1.575,-8.455,-3.44,certain,certain,-3.44,142.54499999999993,570.1223785308648,None,570.1223785308648,None,570.1223785308648,None,570.1223785308648,None,570.1223785308648,None,570.1223785308648,None,570.1223785308648,None,3,570.1223785308648,None,571.8230443536268,None,571.8230443536268,None,571.8230443536268,None,571.8230443536268,None,571.8230443536268,None,571.8230443536268,None,571.8230443536268,None,575.8079059093361,None,575.8079059093361,None,575.8079059093361,None,575.8079059093361,None,575.8079059093361,None,575.8079059093361,None,575.8079059093361,None,576.8082447724228,None,1.6675589954575116,,,,,,,,,,,,,,,,,,,,,,,,,,,,,,24172,2019_Aug_19_1725,Mmi_3levels,3.1.5,59.9748214278281,
,,,2,0,-1.1,,,,,,,,,0,1,1,1,0,3,3,3,,,,,,,,,,,,,,,,,,,,,,,,,,,,,,,,,,,,,,,,,,,,,,,,,,,,,,,,,,,,False,False,True,0.59,0.59,2.36,2.2616666666666667,-0.275,-2.5366666666666666,-1.4058333333333333,gamble,win,-0.275,142.26999999999992,578.8256906215247,None,578.8256906215247,None,578.8256906215247,None,578.8256906215247,None,578.8256906215247,None,578.8256906215247,None,578.8256906215247,None,None,578.8256906215247,None,581.8268678427594,None,581.8268678427594,None,581.8268678427594,None,581.8268678427594,None,581.8268678427594,None,581.8268678427594,None,581.8268678427594,None,585.8283948065327,None,585.8283948065327,None,585.8283948065327,None,585.8283948065327,None,585.8283948065327,None,585.8283948065327,None,585.8283948065327,None,595.3154335335603,None,,586.8121018598758,None,587.8124980001012,None,0.69,7.502775541444862,590.8136752213322,None,None,590.8136752213322,None,,,,,,,,,,,,,,,,,,,24172,2019_Aug_19_1725,Mmi_3levels,3.1.5,59.9748214278281,
,,,2,0,12.1,,,,,,,,,0,1,1,1,0,4,4,2,,,,,,,,,,,,,,,,,,,,,,,,,,,,,,,,,,,,,,,,,,,,,,,,,,,,,,,,,,,,False,True,False,0.69,0.69,3.05,-12.71,3.025,-9.685,-3.33,gamble,lose,-9.685,132.58499999999992,597.3541640801304,None,597.3541640801304,None,597.3541640801304,None,597.3541640801304,None,597.3541640801304,None,597.3541640801304,None,597.3541640801304,None,None,597.3541640801304,None,600.350656415234,None,600.350656415234,None,600.350656415234,None,600.350656415234,None,600.350656415234,None,600.350656415234,None,600.350656415234,None,604.3355189308968,None,604.3355189308968,None,604.3355189308968,None,604.3355189308968,None,604.3355189308968,None,604.3355189308968,None,604.3355189308968,None,605.3359115512976,None,,,,,,,,,,,,,,,,,,,,,,,,,,,,,,,24172,2019_Aug_19_1725,Mmi_3levels,3.1.5,59.9748214278281,
,,,2,0,12.5,,,,,,,,,0,1,1,1,0,5,5,11,,,,,,,,,,,,,,,,,,,,,,,,,,,,,,,,,,,,,,,,,,,,,,,,,,,,,,,,,,,,False,True,True,0.69,0.69,3.7399999999999998,-13.4,3.125,-10.275,-3.575,certain,certain,-3.575,129.00999999999993,607.3533545205428,None,607.3533545205428,None,607.3533545205428,None,607.3533545205428,None,607.3533545205428,None,607.3533545205428,None,607.3533545205428,None,3,607.3533545205428,None,609.3875259347042,None,609.3875259347042,None,609.3875259347042,None,609.3875259347042,None,609.3875259347042,None,609.3875259347042,None,609.3875259347042,None,613.3723878103992,None,613.3723878103992,None,613.3723878103992,None,613.3723878103992,None,613.3723878103992,None,613.3723878103992,None,613.3723878103992,None,614.3727058745244,None,2.0010569072401267,,,,,,,,,,,,,,,,,,,,,,,,,,,,,,24172,2019_Aug_19_1725,Mmi_3levels,3.1.5,59.9748214278281,
,,,2,0,8.7,,,,,,,,,0,1,1,1,0,6,6,22,,,,,,,,,,,,,,,,,,,,,,,,,,,,,,,,,,,,,,,,,,,,,,,,,,,,,,,,,,,,False,True,False,0.69,0.69,4.43,-14.09,2.175,-11.915,-4.869999999999999,certain,certain,-4.869999999999999,124.13999999999993,616.3902198802243,None,616.3902198802243,None,616.3902198802243,None,616.3902198802243,None,616.3902198802243,None,616.3902198802243,None,616.3902198802243,None,3,616.3902198802243,None,618.8744846657246,None,618.8744846657246,None,618.8744846657246,None,618.8744846657246,None,618.8744846657246,None,618.8744846657246,None,618.8744846657246,None,622.8760401080799,None,622.8760401080799,None,622.8760401080799,None,622.8760401080799,None,622.8760401080799,None,622.8760401080799,None,622.8760401080799,None,632.3630010789857,None,2.4511944363730436,623.8597164429557,None,624.860105863514,None,0.6,7.5027662619068,627.8612539662026,None,None,627.8612539662026,None,,,,,,,,,,,,,,,,,,,24172,2019_Aug_19_1725,Mmi_3levels,3.1.5,59.9748214278281,
,,,2,0,5.1,,,,,,,,,0,1,1,1,0,7,7,4,,,,,,,,,,,,,,,,,,,,,,,,,,,,,,,,,,,,,,,,,,,,,,,,,,,,,,,,,,,,False,True,True,0.6,0.6,5.029999999999999,-13.43,1.275,-12.155,-5.4399999999999995,gamble,lose,-12.155,111.98499999999993,634.380416209624,None,634.380416209624,None,634.380416209624,None,634.380416209624,None,634.380416209624,None,634.380416209624,None,634.380416209624,None,None,634.380416209624,None,637.3816475081585,None,637.3816475081585,None,637.3816475081585,None,637.3816475081585,None,637.3816475081585,None,637.3816475081585,None,637.3816475081585,None,641.3831901511476,None,641.3831901511476,None,641.3831901511476,None,641.3831901511476,None,641.3831901511476,None,641.3831901511476,None,641.3831901511476,None,642.3668524067289,None,,,,,,,,,,,,,,,,,,,,,,,,,,,,,,,24172,2019_Aug_19_1725,Mmi_3levels,3.1.5,59.9748214278281,
,,,2,0,4.9,,,,,,,,,0,1,1,1,0,8,8,14,,,,,,,,,,,,,,,,,,,,,,,,,,,,,,,,,,,,,,,,,,,,,,,,,,,,,,,,,,,,False,True,False,0.6,0.6,5.629999999999999,-14.03,1.225,-12.805,-5.79,certain,certain,-5.79,106.19499999999992,644.3842969758953,None,644.3842969758953,None,644.3842969758953,None,644.3842969758953,None,644.3842969758953,None,644.3842969758953,None,644.3842969758953,None,3,644.3842969758953,None,646.0016213590607,None,646.0016213590607,None,646.0016213590607,None,646.0016213590607,None,646.0016213590607,None,646.0016213590607,None,646.0016213590607,None,650.0031323236362,None,650.0031323236362,None,650.0031323236362,None,650.0031323236362,None,650.0031323236362,None,650.0031323236362,None,650.0031323236362,None,659.4901233730416,None,1.5842226756030868,650.9868460966427,None,651.9872803149665,None,0.57,7.502833138569258,654.9883884196497,None,None,654.9883884196497,None,,,,,,,,,,,,,,,,,,,24172,2019_Aug_19_1725,Mmi_3levels,3.1.5,59.9748214278281,
,,,2,0,0.7,,,,,,,,,0,1,1,1,0,9,9,15,,,,,,,,,,,,,,,,,,,,,,,,,,,,,,,,,,,,,,,,,,,,,,,,,,,,,,,,,,,,False,True,False,0.57,0.57,6.199999999999999,-14.18,0.175,-14.004999999999999,-6.914999999999999,gamble,lose,-14.004999999999999,92.18999999999993,661.5289006372805,None,661.5289006372805,None,661.5289006372805,None,661.5289006372805,None,661.5289006372805,None,661.5289006372805,None,661.5289006372805,None,1,661.5289006372805,None,664.2753481746186,None,664.2753481746186,None,664.2753481746186,None,664.2753481746186,None,664.2753481746186,None,664.2753481746186,None,664.2753481746186,None,668.2768735384743,None,668.2768735384743,None,668.2768735384743,None,668.2768735384743,None,668.2768735384743,None,668.2768735384743,None,668.2768735384743,None,669.26060395065,None,2.713321510989772,,,,,,,,,,,,,,,,,,,,,,,,,,,,,,24172,2019_Aug_19_1725,Mmi_3levels,3.1.5,59.9748214278281,
,,,2,0,3.9,,,,,,,,,0,1,1,1,0,10,10,25,,,,,,,,,,,,,,,,,,,,,,,,,,,,,,,,,,,,,,,,,,,,,,,,,,,,,,,,,,,,False,True,False,0.57,0.57,6.77,-14.75,0.975,-13.775,-6.4,certain,certain,-6.4,85.78999999999992,671.2780088418003,None,671.2780088418003,None,671.2780088418003,None,671.2780088418003,None,671.2780088418003,None,671.2780088418003,None,671.2780088418003,None,3,671.2780088418003,None,674.095752340043,None,674.095752340043,None,674.095752340043,None,674.095752340043,None,674.095752340043,None,674.095752340043,None,674.095752340043,None,678.0973391408297,None,678.0973391408297,None,678.0973391408297,None,678.0973391408297,None,678.0973391408297,None,678.0973391408297,None,678.0973391408297,None,679.0810202754692,None,2.7846702692622785,,,,,,,,,,,,,,,,,,,,,,,,,,,,,,24172,2019_Aug_19_1725,Mmi_3levels,3.1.5,59.9748214278281,
,,,2,0,8.5,,,,,,,,,0,1,1,1,0,11,11,12,,,,,,,,,,,,,,,,,,,,,,,,,,,,,,,,,,,,,,,,,,,,,,,,,,,,,,,,,,,,False,True,True,0.57,0.57,7.34,-15.32,2.125,-13.195,-5.535,certain,certain,-5.535,80.25499999999992,681.0984728442345,None,681.0984728442345,None,681.0984728442345,None,681.0984728442345,None,681.0984728442345,None,681.0984728442345,None,681.0984728442345,None,3,681.0984728442345,None,682.9324948898538,None,682.9324948898538,None,682.9324948898538,None,682.9324948898538,None,682.9324948898538,None,682.9324948898538,None,682.9324948898538,None,686.9174079629956,None,686.9174079629956,None,686.9174079629956,None,686.9174079629956,None,686.9174079629956,None,686.9174079629956,None,686.9174079629956,None,696.4210282622698,None,1.800942096971994,687.9177916238441,None,688.918160245441,None,0.58,7.502792500599753,691.9192949087992,None,None,691.9192949087992,None,,,,,,,,,,,,,,,,,,,24172,2019_Aug_19_1725,Mmi_3levels,3.1.5,59.9748214278281,
,,,2,0,2.9,,,,,,,,,0,1,1,1,0,12,12,26,,,,,,,,,,,,,,,,,,,,,,,,,,,,,,,,,,,,,,,,,,,,,,,,,,,,,,,,,,,,False,True,False,0.58,0.58,7.92,-16.04,0.725,-15.315,-7.295,gamble,lose,-15.315,64.93999999999993,698.4385262687683,None,698.4385262687683,None,698.4385262687683,None,698.4385262687683,None,698.4385262687683,None,698.4385262687683,None,698.4385262687683,None,None,698.4385262687683,None,701.4396958103862,None,701.4396958103862,None,701.4396958103862,None,701.4396958103862,None,701.4396958103862,None,701.4396958103862,None,701.4396958103862,None,705.4411699767952,None,705.4411699767952,None,705.4411699767952,None,705.4411699767952,None,705.4411699767952,None,705.4411699767952,None,705.4411699767952,None,706.4249285475671,None,,,,,,,,,,,,,,,,,,,,,,,,,,,,,,,24172,2019_Aug_19_1725,Mmi_3levels,3.1.5,59.9748214278281,
,,,2,0,6.5,,,,,,,,,0,1,1,1,0,13,13,5,,,,,,,,,,,,,,,,,,,,,,,,,,,,,,,,,,,,,,,,,,,,,,,,,,,,,,,,,,,,False,False,False,0.58,0.58,8.5,2.7383333333333333,1.625,-1.1133333333333333,0.25583333333333336,certain,certain,0.25583333333333336,65.19583333333325,708.4423286389538,None,708.4423286389538,None,708.4423286389538,None,708.4423286389538,None,708.4423286389538,None,708.4423286389538,None,708.4423286389538,None,3,708.4423286389538,None,709.8095698262732,None,709.8095698262732,None,709.8095698262732,None,709.8095698262732,None,709.8095698262732,None,709.8095698262732,None,709.8095698262732,None,713.7943843443354,None,713.7943843443354,None,713.7943843443354,None,713.7943843443354,None,713.7943843443354,None,713.7943843443354,None,713.7943843443354,None,723.2981204778262,None,1.3341365999003756,714.7948265622581,None,715.7951619055166,None,0.5,7.50286801682887,718.7963192877432,None,None,718.7963192877432,None,,,,,,,,,,,,,,,,,,,24172,2019_Aug_19_1725,Mmi_3levels,3.1.5,59.9748214278281,
,,,2,0,-0.3,,,,,,,,,0,1,1,1,0,14,14,13,,,,,,,,,,,,,,,,,,,,,,,,,,,,,,,,,,,,,,,,,,,,,,,,,,,,,,,,,,,,False,True,True,0.5,0.5,9.0,-16.0,-0.075,-16.075,-8.075,certain,certain,-8.075,57.12083333333325,725.3368318253561,None,725.3368318253561,None,725.3368318253561,None,725.3368318253561,None,725.3368318253561,None,725.3368318253561,None,725.3368318253561,None,3,725.3368318253561,None,727.2329048533902,None,727.2329048533902,None,727.2329048533902,None,727.2329048533902,None,727.2329048533902,None,727.2329048533902,None,727.2329048533902,None,731.2344686153265,None,731.2344686153265,None,731.2344686153265,None,731.2344686153265,None,731.2344686153265,None,731.2344686153265,None,731.2344686153265,None,732.2182169466105,None,1.863068915597978,,,,,,,,,,,,,,,,,,,,,,,,,,,,,,24172,2019_Aug_19_1725,Mmi_3levels,3.1.5,59.9748214278281,
,,,2,0,3.5,,,,,,,,,0,1,1,1,0,15,15,1,,,,,,,,,,,,,,,,,,,,,,,,,,,,,,,,,,,,,,,,,,,,,,,,,,,,,,,,,,,,False,True,True,0.5,0.5,9.5,-16.5,0.875,-15.625,-7.375,certain,certain,-7.375,49.74583333333325,734.235604878606,None,734.235604878606,None,734.235604878606,None,734.235604878606,None,734.235604878606,None,734.235604878606,None,734.235604878606,None,3,734.235604878606,None,736.0696813215072,None,736.0696813215072,None,736.0696813215072,None,736.0696813215072,None,736.0696813215072,None,736.0696813215072,None,736.0696813215072,None,740.0545582364539,None,740.0545582364539,None,740.0545582364539,None,740.0545582364539,None,740.0545582364539,None,740.0545582364539,None,740.0545582364539,None,749.558219813669,None,1.8009692956111394,741.0548999793937,None,742.055286840081,None,0.59,7.502841138171789,745.0564451822574,None,None,745.0564451822574,None,,,,,,,,,,,,,,,,,,,24172,2019_Aug_19_1725,Mmi_3levels,3.1.5,59.9748214278281,
,,,2,0,12.3,,,,,,,,,0,1,1,1,0,16,16,18,,,,,,,,,,,,,,,,,,,,,,,,,,,,,,,,,,,,,,,,,,,,,,,,,,,,,,,,,,,,False,True,False,0.59,0.59,10.09,-18.35,3.075,-15.275000000000002,-6.100000000000001,certain,certain,-6.100000000000001,43.64583333333325,751.5757018209661,None,751.5757018209661,None,751.5757018209661,None,751.5757018209661,None,751.5757018209661,None,751.5757018209661,None,751.5757018209661,None,3,751.5757018209661,None,753.5931163116329,None,753.5931163116329,None,753.5931163116329,None,753.5931163116329,None,753.5931163116329,None,753.5931163116329,None,753.5931163116329,None,757.5946637543857,None,757.5946637543857,None,757.5946637543857,None,757.5946637543857,None,757.5946637543857,None,757.5946637543857,None,757.5946637543857,None,758.5783234500923,None,1.9841345520035247,,,,,,,,,,,,,,,,,,,,,,,,,,,,,,24172,2019_Aug_19_1725,Mmi_3levels,3.1.5,59.9748214278281,
,,,2,0,0.3,,,,,,,,,0,1,1,1,0,17,17,16,,,,,,,,,,,,,,,,,,,,,,,,,,,,,,,,,,,,,,,,,,,,,,,,,,,,,,,,,,,,False,True,True,0.59,0.59,10.68,-18.939999999999998,0.075,-18.865,-9.395,certain,certain,-9.395,34.25083333333325,760.5957894581916,None,760.5957894581916,None,760.5957894581916,None,760.5957894581916,None,760.5957894581916,None,760.5957894581916,None,760.5957894581916,None,3,760.5957894581916,None,762.2631331043958,None,762.2631331043958,None,762.2631331043958,None,762.2631331043958,None,762.2631331043958,None,762.2631331043958,None,762.2631331043958,None,766.2646651879149,None,766.2646651879149,None,766.2646651879149,None,766.2646651879149,None,766.2646651879149,None,766.2646651879149,None,766.2646651879149,None,767.2483783209536,None,1.634208020335791,,,,,,,,,,,,,,,,,,,,,,,,,,,,,,24172,2019_Aug_19_1725,Mmi_3levels,3.1.5,59.9748214278281,
,,,2,0,0.5,,,,,,,,,0,1,1,1,0,18,18,10,,,,,,,,,,,,,,,,,,,,,,,,,,,,,,,,,,,,,,,,,,,,,,,,,,,,,,,,,,,,False,True,False,0.59,0.59,11.27,-19.53,0.125,-19.405,-9.64,certain,certain,-9.64,24.610833333333247,769.2657736125802,None,769.2657736125802,None,769.2657736125802,None,769.2657736125802,None,769.2657736125802,None,769.2657736125802,None,769.2657736125802,None,3,769.2657736125802,None,771.2832744989391,None,771.2832744989391,None,771.2832744989391,None,771.2832744989391,None,771.2832744989391,None,771.2832744989391,None,771.2832744989391,None,775.2847621046749,None,775.2847621046749,None,775.2847621046749,None,775.2847621046749,None,775.2847621046749,None,775.2847621046749,None,775.2847621046749,None,784.7718078713515,None,1.984394699018594,776.268478437556,None,777.2688934568396,None,0.58,7.502750262705376,780.270020440581,None,None,780.270020440581,None,,,,,,,,,,,,,,,,,,,24172,2019_Aug_19_1725,Mmi_3levels,3.1.5,59.9748214278281,
,,,2,0,0.9,,,,,,,,,0,1,1,1,0,19,19,24,,,,,,,,,,,,,,,,,,,,,,,,,,,,,,,,,,,,,,,,,,,,,,,,,,,,,,,,,,,,False,True,False,0.58,0.58,11.85,-19.97,0.225,-19.744999999999997,-9.759999999999998,certain,certain,-9.759999999999998,14.850833333333249,786.7892262018286,None,786.7892262018286,None,786.7892262018286,None,786.7892262018286,None,786.7892262018286,None,786.7892262018286,None,786.7892262018286,None,3,786.7892262018286,None,788.4899013041286,None,788.4899013041286,None,788.4899013041286,None,788.4899013041286,None,788.4899013041286,None,788.4899013041286,None,788.4899013041286,None,792.4913988293702,None,792.4913988293702,None,792.4913988293702,None,792.4913988293702,None,792.4913988293702,None,792.4913988293702,None,792.4913988293702,None,793.4751567601743,None,1.6675765945765306,,,,,,,,,,,,,,,,,,,,,,,,,,,,,,24172,2019_Aug_19_1725,Mmi_3levels,3.1.5,59.9748214278281,
,,,2,0,13.9,,,,,,,,,0,1,1,1,0,20,20,19,,,,,,,,,,,,,,,,,,,,,,,,,,,,,,,,,,,,,,,,,,,,,,,,,,,,,,,,,,,,False,True,False,0.58,0.58,12.43,-20.549999999999997,3.475,-17.074999999999996,-6.799999999999998,certain,certain,-6.799999999999998,8.050833333333252,795.4925520518009,None,795.4925520518009,None,795.4925520518009,None,795.4925520518009,None,795.4925520518009,None,795.4925520518009,None,795.4925520518009,None,3,795.4925520518009,None,797.3266201751212,None,797.3266201751212,None,797.3266201751212,None,797.3266201751212,None,797.3266201751212,None,797.3266201751212,None,797.3266201751212,None,801.3281394592777,None,801.3281394592777,None,801.3281394592777,None,801.3281394592777,None,801.3281394592777,None,801.3281394592777,None,801.3281394592777,None,810.8151769063697,None,1.800959696094651,802.3118823508339,None,803.3122388130396,None,0.52,7.502838898282789,806.3134377931856,None,None,806.3134377931856,None,,,,,,,,,,,,,,,,,,,24172,2019_Aug_19_1725,Mmi_3levels,3.1.5,59.9748214278281,
,,,2,0,2.7,,,,,,,,,0,1,1,1,0,21,21,17,,,,,,,,,,,,,,,,,,,,,,,,,,,,,,,,,,,,,,,,,,,,,,,,,,,,,,,,,,,,False,True,True,0.52,0.52,12.95,-20.23,0.675,-19.555,-9.44,certain,certain,-9.44,-1.389166666666748,812.8326173157438,None,812.8326173157438,None,812.8326173157438,None,812.8326173157438,None,812.8326173157438,None,812.8326173157438,None,812.8326173157438,None,3,812.8326173157438,None,814.883366782331,None,814.883366782331,None,814.883366782331,None,814.883366782331,None,814.883366782331,None,814.883366782331,None,814.883366782331,None,818.8849100652915,None,818.8849100652915,None,818.8849100652915,None,818.8849100652915,None,818.8849100652915,None,818.8849100652915,None,818.8849100652915,None,819.8686193585236,None,2.017663758226263,,,,,,,,,,,,,,,,,,,,,,,,,,,,,,24172,2019_Aug_19_1725,Mmi_3levels,3.1.5,59.9748214278281,
,,,2,0,8.9,,,,,,,,,0,1,1,1,0,22,22,8,,,,,,,,,,,,,,,,,,,,,,,,,,,,,,,,,,,,,,,,,,,,,,,,,,,,,,,,,,,,False,True,False,0.52,0.52,13.469999999999999,-20.75,2.225,-18.525,-8.149999999999999,gamble,lose,-18.525,-19.914166666666745,821.8860632877222,None,821.8860632877222,None,821.8860632877222,None,821.8860632877222,None,821.8860632877222,None,821.8860632877222,None,821.8860632877222,None,1,821.8860632877222,None,823.9535760774816,None,823.9535760774816,None,823.9535760774816,None,823.9535760774816,None,823.9535760774816,None,823.9535760774816,None,823.9535760774816,None,827.9550665630777,None,827.9550665630777,None,827.9550665630777,None,827.9550665630777,None,827.9550665630777,None,827.9550665630777,None,827.9550665630777,None,837.442096650535,None,2.034386443428957,828.9387787361666,None,829.9392155143614,None,0.5,7.5028222591136,832.9403258589336,None,None,832.9403258589336,None,,,,,,,,,,,,,,,,,,,24172,2019_Aug_19_1725,Mmi_3levels,3.1.5,59.9748214278281,
,,,2,0,4.3,,,,,,,,,0,1,1,1,0,23,23,6,,,,,,,,,,,,,,,,,,,,,,,,,,,,,,,,,,,,,,,,,,,,,,,,,,,,,,,,,,,,False,True,False,0.5,0.5,13.969999999999999,-20.97,1.075,-19.895,-9.41,certain,certain,-9.41,-29.324166666666745,839.480914552747,None,839.480914552747,None,839.480914552747,None,839.480914552747,None,839.480914552747,None,839.480914552747,None,839.480914552747,None,3,839.480914552747,None,841.5936612444311,None,841.5936612444311,None,841.5936612444311,None,841.5936612444311,None,841.5936612444311,None,841.5936612444311,None,841.5936612444311,None,845.5952080472161,None,845.5952080472161,None,845.5952080472161,None,845.5952080472161,None,845.5952080472161,None,845.5952080472161,None,845.5952080472161,None,846.578942299202,None,2.0794593933896977,,,,,,,,,,,,,,,,,,,,,,,,,,,,,,24172,2019_Aug_19_1725,Mmi_3levels,3.1.5,59.9748214278281,
,,,2,0,5.3,,,,,,,,,0,1,1,1,0,24,24,23,,,,,,,,,,,,,,,,,,,,,,,,,,,,,,,,,,,,,,,,,,,,,,,,,,,,,,,,,,,,False,True,True,0.5,0.5,14.469999999999999,-21.47,1.325,-20.145,-9.41,certain,certain,-9.41,-38.734166666666745,848.5964089472654,None,848.5964089472654,None,848.5964089472654,None,848.5964089472654,None,848.5964089472654,None,848.5964089472654,None,848.5964089472654,None,3,848.5964089472654,None,849.6634571202194,None,849.6634571202194,None,849.6634571202194,None,849.6634571202194,None,849.6634571202194,None,849.6634571202194,None,849.6634571202194,None,853.6649744844726,None,853.6649744844726,None,853.6649744844726,None,853.6649744844726,None,853.6649744844726,None,853.6649744844726,None,853.6649744844726,None,854.6654231020802,None,1.050621472975763,,,,,,,,,,,,,,,,,,,,,,,,,,,,,,24172,2019_Aug_19_1725,Mmi_3levels,3.1.5,59.9748214278281,
,,,2,0,-0.9,,,,,,,,,0,1,1,1,0,25,25,0,,,,,,,,,,,,,,,,,,,,,,,,,,,,,,,,,,,,,,,,,,,,,,,,,,,,,,,,,,,,False,True,True,0.5,0.5,14.969999999999999,-21.97,-0.225,-22.195,-11.21,certain,certain,-11.21,-49.944166666666746,856.6828619115331,None,856.6828619115331,None,856.6828619115331,None,856.6828619115331,None,856.6828619115331,None,856.6828619115331,None,856.6828619115331,None,3,856.6828619115331,None,857.7499401629866,None,857.7499401629866,None,857.7499401629866,None,857.7499401629866,None,857.7499401629866,None,857.7499401629866,None,857.7499401629866,None,861.7514799261226,None,861.7514799261226,None,861.7514799261226,None,861.7514799261226,None,861.7514799261226,None,861.7514799261226,None,861.7514799261226,None,871.2384815350015,None,1.033973344052356,862.7351917792257,None,863.7355693603786,None,0.6,7.5027845009972225,866.736689624453,None,None,866.736689624453,None,,,,,,,,,,,,,,,,,,,24172,2019_Aug_19_1725,Mmi_3levels,3.1.5,59.9748214278281,
,,,2,0,6.9,,,,,,,,,0,1,1,1,0,26,26,9,,,,,,,,,,,,,,,,,,,,,,,,,,,,,,,,,,,,,,,,,,,,,,,,,,,,,,,,,,,,False,True,True,0.6,0.6,15.569999999999999,-23.97,1.725,-22.244999999999997,-10.259999999999998,certain,certain,-10.259999999999998,-60.204166666666744,873.2558992255108,None,873.2558992255108,None,873.2558992255108,None,873.2558992255108,None,873.2558992255108,None,873.2558992255108,None,873.2558992255108,None,3,873.2558992255108,None,874.6564699490191,None,874.6564699490191,None,874.6564699490191,None,874.6564699490191,None,874.6564699490191,None,874.6564699490191,None,874.6564699490191,None,878.6579549948874,None,878.6579549948874,None,878.6579549948874,None,878.6579549948874,None,878.6579549948874,None,878.6579549948874,None,878.6579549948874,None,879.6417036461535,None,1.3674581364903133,,,,,,,,,,,,,,,,,,,,,,,,,,,,,,24172,2019_Aug_19_1725,Mmi_3levels,3.1.5,59.9748214278281,
,,,3,1,11.9,,,,,,,,,0,2,2,2,0,0,0,9,,,,,,,,,,,,,,,,,,,,,,,,,,,,,,,,,,,,,,,,,,,,,,,,883.9600986318765,None,0.59,4.78435892480411,886.9612556941174,None,4,1.7674973665307334,886.9612556941174,None,888.7452299981196,None,True,True,True,0.59,-0.41000000000000003,-0.41000000000000003,6.15,11.9,5.75,2.875,gamble,win,11.9,-48.304166666666745,891.7797271560194,None,891.7797271560194,None,891.7797271560194,None,891.7797271560194,None,891.7797271560194,None,891.7797271560194,None,891.7797271560194,None,1,891.7797271560194,None,893.3636461667847,None,893.3636461667847,None,893.3636461667847,None,893.3636461667847,None,893.3636461667847,None,893.3636461667847,None,893.3636461667847,None,897.3485115623043,None,897.3485115623043,None,897.3485115623043,None,897.3485115623043,None,897.3485115623043,None,897.3485115623043,None,897.3485115623043,None,906.8521577802858,None,1.5508160232675436,898.3488798639191,None,899.3493134422752,None,0.58,7.50276530195697,902.3504676246557,None,None,902.3504676246557,None,881.642437689512,None,4,2.3011491266370285,881.642437689512,None,,,,,,,,,,,,,24172,2019_Aug_19_1725,Mmi_3levels,3.1.5,59.9748214278281,
,,,3,1,4.7,,,,,,,,,0,2,2,2,0,1,1,2,,,,,,,,,,,,,,,,,,,,,,,,,,,,,,,,,,,,,,,,,,,,,,,,,,,,,,,,,,,,True,False,False,0.58,-0.42000000000000004,-0.8300000000000001,-1.5391666666666668,4.7,3.1608333333333336,1.5804166666666668,gamble,lose,3.1608333333333336,-45.14333333333341,908.8695956297852,None,908.8695956297852,None,908.8695956297852,None,908.8695956297852,None,908.8695956297852,None,908.8695956297852,None,908.8695956297852,None,1,908.8695956297852,None,910.086758868998,None,910.086758868998,None,910.086758868998,None,910.086758868998,None,910.086758868998,None,910.086758868998,None,910.086758868998,None,914.0716041055239,None,914.0716041055239,None,914.0716041055239,None,914.0716041055239,None,914.0716041055239,None,914.0716041055239,None,914.0716041055239,None,915.0719906462291,None,1.184059611743578,,,,,,,,,,,,,,,,,,,,,,,,,,,,,,24172,2019_Aug_19_1725,Mmi_3levels,3.1.5,59.9748214278281,
,,,3,1,13.9,,,,,,,,,0,2,2,2,0,2,2,13,,,,,,,,,,,,,,,,,,,,,,,,,,,,,,,,,,,,,,,,,,,,,,,,,,,,,,,,,,,,True,True,False,0.58,-0.42000000000000004,-1.25,7.130000000000001,13.9,6.77,3.385,gamble,win,13.9,-31.24333333333341,917.0894841729496,None,917.0894841729496,None,917.0894841729496,None,917.0894841729496,None,917.0894841729496,None,917.0894841729496,None,917.0894841729496,None,1,917.0894841729496,None,917.9231379169541,None,917.9231379169541,None,917.9231379169541,None,917.9231379169541,None,917.9231379169541,None,917.9231379169541,None,917.9231379169541,None,921.9079581947262,None,921.9079581947262,None,921.9079581947262,None,921.9079581947262,None,921.9079581947262,None,921.9079581947262,None,921.9079581947262,None,922.9083453753992,None,0.8005837148630235,,,,,,,,,,,,,,,,,,,,,,,,,,,,,,24172,2019_Aug_19_1725,Mmi_3levels,3.1.5,59.9748214278281,
,,,3,1,7.7,,,,,,,,,0,2,2,2,0,3,3,5,,,,,,,,,,,,,,,,,,,,,,,,,,,,,,,,,,,,,,,,,,,,,,,,,,,,,,,,,,,,True,False,False,0.58,-0.42000000000000004,-1.67,-1.6091666666666669,7.7,6.090833333333333,3.0454166666666667,gamble,lose,6.090833333333333,-25.152500000000078,924.9257889846158,None,924.9257889846158,None,924.9257889846158,None,924.9257889846158,None,924.9257889846158,None,924.9257889846158,None,924.9257889846158,None,1,924.9257889846158,None,925.6261044248677,None,925.6261044248677,None,925.6261044248677,None,925.6261044248677,None,925.6261044248677,None,925.6261044248677,None,925.6261044248677,None,929.6109944591553,None,929.6109944591553,None,929.6109944591553,None,929.6109944591553,None,929.6109944591553,None,929.6109944591553,None,929.6109944591553,None,939.1145901196614,None,0.6672143726609647,930.6113518813145,None,931.6117521813321,None,0.58,7.502820659192366,934.6129060437306,None,None,934.6129060437306,None,,,,,,,,,,,,,,,,,,,24172,2019_Aug_19_1725,Mmi_3levels,3.1.5,59.9748214278281,
,,,3,1,7.5,,,,,,,,,0,2,2,2,0,4,4,19,,,,,,,,,,,,,,,,,,,,,,,,,,,,,,,,,,,,,,,,,,,,,,,,,,,,,,,,,,,,True,True,False,0.58,-0.42000000000000004,-2.09,7.970000000000001,7.5,-0.47000000000000064,-0.23500000000000032,gamble,win,7.5,-17.652500000000078,941.1321130849137,None,941.1321130849137,None,941.1321130849137,None,941.1321130849137,None,941.1321130849137,None,941.1321130849137,None,941.1321130849137,None,1,941.1321130849137,None,943.7163795983324,None,943.7163795983324,None,943.7163795983324,None,943.7163795983324,None,943.7163795983324,None,943.7163795983324,None,943.7163795983324,None,947.7179100819303,None,947.7179100819303,None,947.7179100819303,None,947.7179100819303,None,947.7179100819303,None,947.7179100819303,None,947.7179100819303,None,948.701623214969,None,2.551203523918957,,,,,,,,,,,,,,,,,,,,,,,,,,,,,,24172,2019_Aug_19_1725,Mmi_3levels,3.1.5,59.9748214278281,
,,,3,1,3.1,,,,,,,,,0,2,2,2,0,5,5,24,,,,,,,,,,,,,,,,,,,,,,,,,,,,,,,,,,,,,,,,,,,,,,,,,,,,,,,,,,,,True,False,False,0.58,-0.42000000000000004,-2.51,-1.679166666666667,3.1,1.4208333333333332,0.7104166666666666,gamble,lose,1.4208333333333332,-16.231666666666744,950.719082823387,None,950.719082823387,None,950.719082823387,None,950.719082823387,None,950.719082823387,None,950.719082823387,None,950.719082823387,None,1,950.719082823387,None,952.252991850648,None,952.252991850648,None,952.252991850648,None,952.252991850648,None,952.252991850648,None,952.252991850648,None,952.252991850648,None,956.2379026838971,None,956.2379026838971,None,956.2379026838971,None,956.2379026838971,None,956.2379026838971,None,956.2379026838971,None,956.2379026838971,None,965.7415313027595,None,1.5008549973172194,957.2382844248423,None,958.2386466467615,None,0.61,7.502786740882584,961.2398344274661,None,None,961.2398344274661,None,,,,,,,,,,,,,,,,,,,24172,2019_Aug_19_1725,Mmi_3levels,3.1.5,59.9748214278281,
,,,3,1,2.7,,,,,,,,,0,2,2,2,0,6,6,22,,,,,,,,,,,,,,,,,,,,,,,,,,,,,,,,,,,,,,,,,,,,,,,,,,,,,,,,,,,,True,True,True,0.61,-0.39,-2.9,8.36,2.7,-5.659999999999999,-1.4799999999999995,gamble,win,2.7,-13.531666666666744,967.7590181098167,None,967.7590181098167,None,967.7590181098167,None,967.7590181098167,None,967.7590181098167,None,967.7590181098167,None,967.7590181098167,None,None,967.7590181098167,None,970.7601630126628,None,970.7601630126628,None,970.7601630126628,None,970.7601630126628,None,970.7601630126628,None,970.7601630126628,None,970.7601630126628,None,974.7450549668574,None,974.7450549668574,None,974.7450549668574,None,974.7450549668574,None,974.7450549668574,None,974.7450549668574,None,974.7450549668574,None,975.7454315880568,None,,,,,,,,,,,,,,,,,,,,,,,,,,,,,,,24172,2019_Aug_19_1725,Mmi_3levels,3.1.5,59.9748214278281,
,,,3,1,-0.1,,,,,,,,,0,2,2,2,0,7,7,26,,,,,,,,,,,,,,,,,,,,,,,,,,,,,,,,,,,,,,,,,,,,,,,,,,,,,,,,,,,,True,True,False,0.61,-0.39,-3.29,8.75,-0.1,-8.85,-4.475,certain,certain,-4.475,-18.006666666666746,977.7628262397157,None,977.7628262397157,None,977.7628262397157,None,977.7628262397157,None,977.7628262397157,None,977.7628262397157,None,977.7628262397157,None,3,977.7628262397157,None,979.4135156772973,None,979.4135156772973,None,979.4135156772973,None,979.4135156772973,None,979.4135156772973,None,979.4135156772973,None,979.4135156772973,None,983.3983305153415,None,983.3983305153415,None,983.3983305153415,None,983.3983305153415,None,983.3983305153415,None,983.3983305153415,None,983.3983305153415,None,992.90199881222,None,1.6175842101984017,984.3987660136008,None,985.3991394349614,None,0.58,7.502908334816311,988.4002619389248,None,None,988.4002619389248,None,,,,,,,,,,,,,,,,,,,24172,2019_Aug_19_1725,Mmi_3levels,3.1.5,59.9748214278281,
,,,3,1,0.5,,,,,,,,,0,2,2,2,0,8,8,20,,,,,,,,,,,,,,,,,,,,,,,,,,,,,,,,,,,,,,,,,,,,,,,,,,,,,,,,,,,,True,True,True,0.58,-0.42000000000000004,-3.71,9.59,0.5,-9.09,-4.295,gamble,win,0.5,-17.506666666666746,994.9194795395815,None,994.9194795395815,None,994.9194795395815,None,994.9194795395815,None,994.9194795395815,None,994.9194795395815,None,994.9194795395815,None,1,994.9194795395815,None,997.3204140849302,None,997.3204140849302,None,997.3204140849302,None,997.3204140849302,None,997.3204140849302,None,997.3204140849302,None,997.3204140849302,None,1001.3219167299176,None,1001.3219167299176,None,1001.3219167299176,None,1001.3219167299176,None,1001.3219167299176,None,1001.3219167299176,None,1001.3219167299176,None,1002.3056759406572,None,2.3678011593656265,,,,,,,,,,,,,,,,,,,,,,,,,,,,,,24172,2019_Aug_19_1725,Mmi_3levels,3.1.5,59.9748214278281,
,,,3,1,13.7,,,,,,,,,0,2,2,2,0,9,9,25,,,,,,,,,,,,,,,,,,,,,,,,,,,,,,,,,,,,,,,,,,,,,,,,,,,,,,,,,,,,True,True,False,0.58,-0.42000000000000004,-4.13,10.010000000000002,13.7,3.6899999999999977,1.8449999999999989,gamble,win,13.7,-3.8066666666667466,1004.3230728322051,None,1004.3230728322051,None,1004.3230728322051,None,1004.3230728322051,None,1004.3230728322051,None,1004.3230728322051,None,1004.3230728322051,None,1,1004.3230728322051,None,1005.3068035643664,None,1005.3068035643664,None,1005.3068035643664,None,1005.3068035643664,None,1005.3068035643664,None,1005.3068035643664,None,1005.3068035643664,None,1009.2916772794706,None,1009.2916772794706,None,1009.2916772794706,None,1009.2916772794706,None,1009.2916772794706,None,1009.2916772794706,None,1009.2916772794706,None,1010.2920356615796,None,0.9505986261174257,,,,,,,,,,,,,,,,,,,,,,,,,,,,,,24172,2019_Aug_19_1725,Mmi_3levels,3.1.5,59.9748214278281,
,,,3,1,7.3,,,,,,,,,0,2,2,2,0,10,10,15,,,,,,,,,,,,,,,,,,,,,,,,,,,,,,,,,,,,,,,,,,,,,,,,,,,,,,,,,,,,True,True,False,0.58,-0.42000000000000004,-4.55,10.43,7.3,-3.13,-1.565,gamble,win,7.3,3.4933333333332532,1012.309577185908,None,1012.309577185908,None,1012.309577185908,None,1012.309577185908,None,1012.309577185908,None,1012.309577185908,None,1012.309577185908,None,1,1012.309577185908,None,1013.6266547973937,None,1013.6266547973937,None,1013.6266547973937,None,1013.6266547973937,None,1013.6266547973937,None,1013.6266547973937,None,1013.6266547973937,None,1017.6282044800319,None,1017.6282044800319,None,1017.6282044800319,None,1017.6282044800319,None,1017.6282044800319,None,1017.6282044800319,None,1017.6282044800319,None,1027.1152425670916,None,1.2839947829816083,1018.6119124933284,None,1019.6123499114947,None,0.6,7.502841778135917,1022.6135005740507,None,None,1022.6135005740507,None,,,,,,,,,,,,,,,,,,,24172,2019_Aug_19_1725,Mmi_3levels,3.1.5,59.9748214278281,
,,,3,1,-0.7,,,,,,,,,0,2,2,2,0,11,11,3,,,,,,,,,,,,,,,,,,,,,,,,,,,,,,,,,,,,,,,,,,,,,,,,,,,,,,,,,,,,True,True,True,0.6,-0.4,-4.95,10.55,-0.7,-11.25,-5.975,gamble,win,-0.7,2.793333333333253,1029.1326583376976,None,1029.1326583376976,None,1029.1326583376976,None,1029.1326583376976,None,1029.1326583376976,None,1029.1326583376976,None,1029.1326583376976,None,1,1029.1326583376976,None,1031.8837418036092,None,1031.8837418036092,None,1031.8837418036092,None,1031.8837418036092,None,1031.8837418036092,None,1031.8837418036092,None,1031.8837418036092,None,1035.885260447798,None,1035.885260447798,None,1035.885260447798,None,1035.885260447798,None,1035.885260447798,None,1035.885260447798,None,1035.885260447798,None,1036.8689479821187,None,2.717979518460197,,,,,,,,,,,,,,,,,,,,,,,,,,,,,,24172,2019_Aug_19_1725,Mmi_3levels,3.1.5,59.9748214278281,
,,,3,1,5.3,,,,,,,,,0,2,2,2,0,12,12,1,,,,,,,,,,,,,,,,,,,,,,,,,,,,,,,,,,,,,,,,,,,,,,,,,,,,,,,,,,,,True,False,False,0.6,-0.4,-5.3500000000000005,-1.8458333333333334,5.3,3.4541666666666666,1.7270833333333333,gamble,lose,3.4541666666666666,6.24749999999992,1038.886378471987,None,1038.886378471987,None,1038.886378471987,None,1038.886378471987,None,1038.886378471987,None,1038.886378471987,None,1038.886378471987,None,1,1038.886378471987,None,1039.8701088841663,None,1039.8701088841663,None,1039.8701088841663,None,1039.8701088841663,None,1039.8701088841663,None,1039.8701088841663,None,1039.8701088841663,None,1043.8549848391558,None,1043.8549848391558,None,1043.8549848391558,None,1043.8549848391558,None,1043.8549848391558,None,1043.8549848391558,None,1043.8549848391558,None,1053.3586944139752,None,0.9504389540888951,1044.8553976185503,None,1045.855795358697,None,0.58,7.50294833281805,1048.856964580329,None,None,1048.856964580329,None,,,,,,,,,,,,,,,,,,,24172,2019_Aug_19_1725,Mmi_3levels,3.1.5,59.9748214278281,
,,,3,1,0.9,,,,,,,,,0,2,2,2,0,13,13,6,,,,,,,,,,,,,,,,,,,,,,,,,,,,,,,,,,,,,,,,,,,,,,,,,,,,,,,,,,,,True,True,True,0.58,-0.42000000000000004,-5.7700000000000005,11.650000000000002,0.9,-10.750000000000002,-4.925000000000001,certain,certain,-4.925000000000001,1.322499999999919,1055.3761031449321,None,1055.3761031449321,None,1055.3761031449321,None,1055.3761031449321,None,1055.3761031449321,None,1055.3761031449321,None,1055.3761031449321,None,3,1055.3761031449321,None,1057.9437906459716,None,1057.9437906459716,None,1057.9437906459716,None,1057.9437906459716,None,1057.9437906459716,None,1057.9437906459716,None,1057.9437906459716,None,1061.9452900911201,None,1061.9452900911201,None,1061.9452900911201,None,1061.9452900911201,None,1061.9452900911201,None,1061.9452900911201,None,1061.9452900911201,None,1062.9290473819565,None,2.5343851634934254,,,,,,,,,,,,,,,,,,,,,,,,,,,,,,24172,2019_Aug_19_1725,Mmi_3levels,3.1.5,59.9748214278281,
,,,3,1,-1.3,,,,,,,,,0,2,2,2,0,14,14,12,,,,,,,,,,,,,,,,,,,,,,,,,,,,,,,,,,,,,,,,,,,,,,,,,,,,,,,,,,,,True,False,False,0.58,-0.42000000000000004,-6.19,-1.9858333333333336,-1.3,-3.2858333333333336,-2.2929166666666667,certain,certain,-2.2929166666666667,-0.9704166666667478,1064.9464401137084,None,1064.9464401137084,None,1064.9464401137084,None,1064.9464401137084,None,1064.9464401137084,None,1064.9464401137084,None,1064.9464401137084,None,3,1064.9464401137084,None,1067.0306259911522,None,1067.0306259911522,None,1067.0306259911522,None,1067.0306259911522,None,1067.0306259911522,None,1067.0306259911522,None,1067.0306259911522,None,1071.03214687523,None,1071.03214687523,None,1071.03214687523,None,1071.03214687523,None,1071.03214687523,None,1071.03214687523,None,1071.03214687523,None,1072.0158632081075,None,2.0510867297489312,,,,,,,,,,,,,,,,,,,,,,,,,,,,,,24172,2019_Aug_19_1725,Mmi_3levels,3.1.5,59.9748214278281,
,,,3,1,10.3,,,,,,,,,0,2,2,2,0,15,15,17,,,,,,,,,,,,,,,,,,,,,,,,,,,,,,,,,,,,,,,,,,,,,,,,,,,,,,,,,,,,True,True,False,0.58,-0.42000000000000004,-6.61,12.490000000000002,10.3,-2.1900000000000013,-1.0950000000000006,gamble,win,10.3,9.329583333333254,1074.0332808986168,None,1074.0332808986168,None,1074.0332808986168,None,1074.0332808986168,None,1074.0332808986168,None,1074.0332808986168,None,1074.0332808986168,None,1,1074.0332808986168,None,1075.400476328221,None,1075.400476328221,None,1075.400476328221,None,1075.400476328221,None,1075.400476328221,None,1075.400476328221,None,1075.400476328221,None,1079.4020269708126,None,1079.4020269708126,None,1079.4020269708126,None,1079.4020269708126,None,1079.4020269708126,None,1079.4020269708126,None,1079.4020269708126,None,1088.88900298097,None,1.3339116511306202,1080.385742343744,None,1081.3861132052298,None,0.59,7.502806579897879,1084.3872715474063,None,None,1084.3872715474063,None,,,,,,,,,,,,,,,,,,,24172,2019_Aug_19_1725,Mmi_3levels,3.1.5,59.9748214278281,
,,,3,1,10.7,,,,,,,,,0,2,2,2,0,16,16,14,,,,,,,,,,,,,,,,,,,,,,,,,,,,,,,,,,,,,,,,,,,,,,,,,,,,,,,,,,,,True,True,True,0.59,-0.41000000000000003,-7.0200000000000005,12.760000000000002,10.7,-2.0600000000000023,-1.0300000000000011,gamble,win,10.7,20.029583333333253,1090.906477628636,None,1090.906477628636,None,1090.906477628636,None,1090.906477628636,None,1090.906477628636,None,1090.906477628636,None,1090.906477628636,None,1,1090.906477628636,None,1092.278309946767,None,1092.278309946767,None,1092.278309946767,None,1092.278309946767,None,1092.278309946767,None,1092.278309946767,None,1092.278309946767,None,1096.2752355402408,None,1096.2752355402408,None,1096.2752355402408,None,1096.2752355402408,None,1096.2752355402408,None,1096.2752355402408,None,1096.2752355402408,None,1097.2589429135696,None,1.3387306105687458,,,,,,,,,,,,,,,,,,,,,,,,,,,,,,24172,2019_Aug_19_1725,Mmi_3levels,3.1.5,59.9748214278281,
,,,3,1,5.1,,,,,,,,,0,2,2,2,0,17,17,4,,,,,,,,,,,,,,,,,,,,,,,,,,,,,,,,,,,,,,,,,,,,,,,,,,,,,,,,,,,,True,True,True,0.59,-0.41000000000000003,-7.430000000000001,13.170000000000002,5.1,-8.070000000000002,-1.4850000000000012,certain,certain,-1.4850000000000012,18.54458333333325,1099.2763913225463,None,1099.2763913225463,None,1099.2763913225463,None,1099.2763913225463,None,1099.2763913225463,None,1099.2763913225463,None,1099.2763913225463,None,3,1099.2763913225463,None,1101.0103950010816,None,1101.0103950010816,None,1101.0103950010816,None,1101.0103950010816,None,1101.0103950010816,None,1101.0103950010816,None,1101.0103950010816,None,1104.9952255183416,None,1104.9952255183416,None,1104.9952255183416,None,1104.9952255183416,None,1104.9952255183416,None,1104.9952255183416,None,1104.9952255183416,None,1114.4988736562264,None,1.7009419689784409,1105.9956030994945,None,1106.9960117190967,None,0.6,7.502791540646285,1109.9971463824513,None,None,1109.9971463824513,None,,,,,,,,,,,,,,,,,,,24172,2019_Aug_19_1725,Mmi_3levels,3.1.5,59.9748214278281,
,,,3,1,13.5,,,,,,,,,0,2,2,2,0,18,18,11,,,,,,,,,,,,,,,,,,,,,,,,,,,,,,,,,,,,,,,,,,,,,,,,,,,,,,,,,,,,True,True,False,0.6,-0.4,-7.830000000000001,13.430000000000001,13.5,0.06999999999999851,0.034999999999999254,gamble,win,13.5,32.04458333333325,1116.5163479839102,None,1116.5163479839102,None,1116.5163479839102,None,1116.5163479839102,None,1116.5163479839102,None,1116.5163479839102,None,1116.5163479839102,None,1,1116.5163479839102,None,1118.3172625622537,None,1118.3172625622537,None,1118.3172625622537,None,1118.3172625622537,None,1118.3172625622537,None,1118.3172625622537,None,1118.3172625622537,None,1122.3019289277072,None,1122.3019289277072,None,1122.3019289277072,None,1122.3019289277072,None,1122.3019289277072,None,1122.3019289277072,None,1122.3019289277072,None,1123.3022719505861,None,1.7675898419147416,,,,,,,,,,,,,,,,,,,,,,,,,,,,,,24172,2019_Aug_19_1725,Mmi_3levels,3.1.5,59.9748214278281,
,,,3,1,8.7,,,,,,,,,0,2,2,2,0,19,19,23,,,,,,,,,,,,,,,,,,,,,,,,,,,,,,,,,,,,,,,,,,,,,,,,,,,,,,,,,,,,True,False,False,0.6,-0.4,-8.23,-2.0858333333333334,8.7,6.614166666666666,3.307083333333333,gamble,lose,6.614166666666666,38.65874999999991,1125.3197667572458,None,1125.3197667572458,None,1125.3197667572458,None,1125.3197667572458,None,1125.3197667572458,None,1125.3197667572458,None,1125.3197667572458,None,1,1125.3197667572458,None,1126.486832977298,None,1126.486832977298,None,1126.486832977298,None,1126.486832977298,None,1126.486832977298,None,1126.486832977298,None,1126.486832977298,None,1130.4717425306117,None,1130.4717425306117,None,1130.4717425306117,None,1130.4717425306117,None,1130.4717425306117,None,1130.4717425306117,None,1130.4717425306117,None,1139.9753685895994,None,1.1339581128086138,1131.4721380308692,None,1132.4724756140167,None,0.59,7.5027729815701605,1135.4736800338942,None,None,1135.4736800338942,None,,,,,,,,,,,,,,,,,,,24172,2019_Aug_19_1725,Mmi_3levels,3.1.5,59.9748214278281,
,,,3,1,1.7,,,,,,,,,0,2,2,2,0,20,20,10,,,,,,,,,,,,,,,,,,,,,,,,,,,,,,,,,,,,,,,,,,,,,,,,,,,,,,,,,,,,True,True,False,0.59,-0.41000000000000003,-8.64,14.38,1.7,-12.680000000000001,-5.490000000000001,gamble,win,1.7,40.358749999999915,1142.0141512935697,None,1142.0141512935697,None,1142.0141512935697,None,1142.0141512935697,None,1142.0141512935697,None,1142.0141512935697,None,1142.0141512935697,None,1,1142.0141512935697,None,1144.1269725415295,None,1144.1269725415295,None,1144.1269725415295,None,1144.1269725415295,None,1144.1269725415295,None,1144.1269725415295,None,1144.1269725415295,None,1148.128513264619,None,1148.128513264619,None,1148.128513264619,None,1148.128513264619,None,1148.128513264619,None,1148.128513264619,None,1148.128513264619,None,1149.1122241577723,None,2.0800100858941732,,,,,,,,,,,,,,,,,,,,,,,,,,,,,,24172,2019_Aug_19_1725,Mmi_3levels,3.1.5,59.9748214278281,
,,,3,1,12.9,,,,,,,,,0,2,2,2,0,21,21,0,,,,,,,,,,,,,,,,,,,,,,,,,,,,,,,,,,,,,,,,,,,,,,,,,,,,,,,,,,,,True,False,True,0.59,-0.41000000000000003,-9.05,-2.189166666666667,12.9,10.710833333333333,5.355416666666667,gamble,lose,10.710833333333333,51.06958333333325,1151.1296712868098,None,1151.1296712868098,None,1151.1296712868098,None,1151.1296712868098,None,1151.1296712868098,None,1151.1296712868098,None,1151.1296712868098,None,None,1151.1296712868098,None,1154.1308245092405,None,1154.1308245092405,None,1154.1308245092405,None,1154.1308245092405,None,1154.1308245092405,None,1154.1308245092405,None,1154.1308245092405,None,1158.1157379023643,None,1158.1157379023643,None,1158.1157379023643,None,1158.1157379023643,None,1158.1157379023643,None,1158.1157379023643,None,1158.1157379023643,None,1159.1161228431483,None,,,,,,,,,,,,,,,,,,,,,,,,,,,,,,,24172,2019_Aug_19_1725,Mmi_3levels,3.1.5,59.9748214278281,
,,,3,1,8.5,,,,,,,,,0,2,2,2,0,22,22,7,,,,,,,,,,,,,,,,,,,,,,,,,,,,,,,,,,,,,,,,,,,,,,,,,,,,,,,,,,,,True,True,True,0.59,-0.41000000000000003,-9.46,15.200000000000001,8.5,-6.700000000000001,0.8999999999999995,certain,certain,0.8999999999999995,51.96958333333325,1161.1335843714696,None,1161.1335843714696,None,1161.1335843714696,None,1161.1335843714696,None,1161.1335843714696,None,1161.1335843714696,None,1161.1335843714696,None,3,1161.1335843714696,None,1162.8341765979058,None,1162.8341765979058,None,1162.8341765979058,None,1162.8341765979058,None,1162.8341765979058,None,1162.8341765979058,None,1162.8341765979058,None,1166.819094470804,None,1166.819094470804,None,1166.819094470804,None,1166.819094470804,None,1166.819094470804,None,1166.819094470804,None,1166.819094470804,None,1176.322766287507,None,1.667510037899774,1167.8194634123865,None,1168.8198198745922,None,0.5,7.502829298762663,1171.8210220545807,None,None,1171.8210220545807,None,,,,,,,,,,,,,,,,,,,24172,2019_Aug_19_1725,Mmi_3levels,3.1.5,59.9748214278281,
,,,3,1,-0.3,,,,,,,,,0,2,2,2,0,23,23,21,,,,,,,,,,,,,,,,,,,,,,,,,,,,,,,,,,,,,,,,,,,,,,,,,,,,,,,,,,,,True,True,True,0.5,-0.5,-9.96,16.96,-0.3,-17.26,-8.780000000000001,gamble,win,-0.3,51.66958333333325,1178.3402050969635,None,1178.3402050969635,None,1178.3402050969635,None,1178.3402050969635,None,1178.3402050969635,None,1178.3402050969635,None,1178.3402050969635,None,1,1178.3402050969635,None,1181.3246445937439,None,1181.3246445937439,None,1181.3246445937439,None,1181.3246445937439,None,1181.3246445937439,None,1181.3246445937439,None,1181.3246445937439,None,1185.3261926764608,None,1185.3261926764608,None,1185.3261926764608,None,1185.3261926764608,None,1185.3261926764608,None,1185.3261926764608,None,1185.3261926764608,None,1186.3098958899973,None,2.951152198482305,,,,,,,,,,,,,,,,,,,,,,,,,,,,,,24172,2019_Aug_19_1725,Mmi_3levels,3.1.5,59.9748214278281,
,,,3,1,2.3,,,,,,,,,0,2,2,2,0,24,24,18,,,,,,,,,,,,,,,,,,,,,,,,,,,,,,,,,,,,,,,,,,,,,,,,,,,,,,,,,,,,True,False,False,0.5,-0.5,-10.46,-2.6216666666666666,2.3,-0.32166666666666677,0.9891666666666665,gamble,lose,-0.32166666666666677,51.347916666666585,1188.3273935765137,None,1188.3273935765137,None,1188.3273935765137,None,1188.3273935765137,None,1188.3273935765137,None,1188.3273935765137,None,1188.3273935765137,None,1,1188.3273935765137,None,1189.5111328842468,None,1189.5111328842468,None,1189.5111328842468,None,1189.5111328842468,None,1189.5111328842468,None,1189.5111328842468,None,1189.5111328842468,None,1193.4960017995909,None,1193.4960017995909,None,1193.4960017995909,None,1193.4960017995909,None,1193.4960017995909,None,1193.4960017995909,None,1193.4960017995909,None,1202.9996620968705,None,1.1504555292594887,1194.4963848204716,None,1195.4968215986664,None,0.58,7.502876336413465,1198.497931303271,None,None,1198.497931303271,None,,,,,,,,,,,,,,,,,,,24172,2019_Aug_19_1725,Mmi_3levels,3.1.5,59.9748214278281,
,,,3,1,-0.5,,,,,,,,,0,2,2,2,0,25,25,16,,,,,,,,,,,,,,,,,,,,,,,,,,,,,,,,,,,,,,,,,,,,,,,,,,,,,,,,,,,,True,True,True,0.58,-0.42000000000000004,-10.88,16.76,-0.5,-17.26,-8.88,certain,certain,-8.88,42.46791666666658,1205.0384048028318,None,1205.0384048028318,None,1205.0384048028318,None,1205.0384048028318,None,1205.0384048028318,None,1205.0384048028318,None,1205.0384048028318,None,3,1205.0384048028318,None,1207.9182802394498,None,1207.9182802394498,None,1207.9182802394498,None,1207.9182802394498,None,1207.9182802394498,None,1207.9182802394498,None,1207.9182802394498,None,1211.9030941175406,None,1211.9030941175406,None,1211.9030941175406,None,1211.9030941175406,None,1211.9030941175406,None,1211.9030941175406,None,1211.9030941175406,None,1212.9034825781491,None,2.846771489166713,,,,,,,,,,,,,,,,,,,,,,,,,,,,,,24172,2019_Aug_19_1725,Mmi_3levels,3.1.5,59.9748214278281,
,,,3,1,6.3,,,,,,,,,0,2,2,2,0,26,26,8,,,,,,,,,,,,,,,,,,,,,,,,,,,,,,,,,,,,,,,,,,,,,,,,,,,,,,,,,,,,True,True,True,0.58,-0.42000000000000004,-11.3,17.18,6.3,-10.879999999999999,-2.2899999999999996,certain,certain,-2.2899999999999996,40.17791666666658,1214.92093066714,None,1214.92093066714,None,1214.92093066714,None,1214.92093066714,None,1214.92093066714,None,1214.92093066714,None,1214.92093066714,None,3,1214.92093066714,None,1216.8050538917087,None,1216.8050538917087,None,1216.8050538917087,None,1216.8050538917087,None,1216.8050538917087,None,1216.8050538917087,None,1216.8050538917087,None,1220.806561016474,None,1220.806561016474,None,1220.806561016474,None,1220.806561016474,None,1220.806561016474,None,1220.806561016474,None,1220.806561016474,None,1230.2935191075267,None,1.8508199270727346,1221.79028950875,None,1222.7906776493728,None,0.6,7.50277522145916,1225.791795993544,None,None,1225.791795993544,None,,,,,,,,,,,,,,,,,,,24172,2019_Aug_19_1725,Mmi_3levels,3.1.5,59.9748214278281,
,,,,,,,,,,,,,,,,,,,,,,,,,,,,,,0,0,0,0,,,,,,,,,,,,,,,,,,,,,,,,,,,,,,,,,,,,,,,,,,,,,,,,,,,,,,,,,,,,,,,,,,,,,,,,,,,,,,,,,,,,,,,,,,,,,,,,,,,,,,,,,,,,,,,,,,,,,,,,,1232.294346586219,None,4,2.6680194524706167,1232.294346586219,None,40.17791666666658,3,1234.995341032576,None,1234.995341032576,None,1234.995341032576,None,4,3.8850863764891983,1234.995341032576,None,24172,2019_Aug_19_1725,Mmi_3levels,3.1.5,59.9748214278281,
