currSlide,currImage,currText,blockNum,targetHappiness,highAmount,instructionLoop1.thisRepN,instructionLoop1.thisTrialN,instructionLoop1.thisN,instructionLoop1.thisIndex,instructionLoop2.thisRepN,instructionLoop2.thisTrialN,instructionLoop2.thisN,instructionLoop2.thisIndex,blockLoop.thisRepN,blockLoop.thisTrialN,blockLoop.thisN,blockLoop.thisIndex,trialLoop.thisRepN,trialLoop.thisTrialN,trialLoop.thisN,trialLoop.thisIndex,doRatingLoop.thisRepN,doRatingLoop.thisTrialN,doRatingLoop.thisN,doRatingLoop.thisIndex,trialHappyLoop.thisRepN,trialHappyLoop.thisTrialN,trialHappyLoop.thisN,trialHappyLoop.thisIndex,logWinningsLoop.thisRepN,logWinningsLoop.thisTrialN,logWinningsLoop.thisN,logWinningsLoop.thisIndex,instrImage.started,instrImage.stopped,instrText.started,instrText.stopped,instrContinueText.started,instrContinueText.stopped,instrKeyResp.keys,instrKeyResp.rt,instrKeyResp.started,instrKeyResp.stopped,lifeHappyText.started,lifeHappyText.stopped,lifeHappySlider.response,lifeHappySlider.rt,lifeHappySlider.started,lifeHappySlider.stopped,lifeHappyResp.keys,lifeHappyResp.started,lifeHappyResp.stopped,instrImage_2.started,instrImage_2.stopped,instrText_2.started,instrText_2.stopped,instrContinueText_2.started,instrContinueText_2.stopped,instrKeyResp_2.keys,instrKeyResp_2.rt,instrKeyResp_2.started,instrKeyResp_2.stopped,localizing.started,localizing.stopped,start_exp.keys,start_exp.rt,start_exp.started,start_exp.stopped,blockHappyText.started,blockHappyText.stopped,blockHappySlider.response,blockHappySlider.rt,blockHappySlider.started,blockHappySlider.stopped,blockHappyResp.keys,blockHappyResp.started,blockHappyResp.stopped,blankText.started,blankText.stopped,isHappyBlock,isCongruent,isWinOnTop,lastHappyRating,diff,sumDiff,RPE,winAmount,loseAmount,certainAmount,choice,outcome,outcomeAmount,currentWinnings,fixCross.started,fixCross.stopped,certainBox.started,certainBox.stopped,outcome1Box.started,outcome1Box.stopped,outcome2Box.started,outcome2Box.stopped,certainText.started,certainText.stopped,outcome1Text.started,outcome1Text.stopped,outcome2Text.started,outcome2Text.stopped,choiceKey.keys,choiceKey.rt,choiceKey.started,choiceKey.stopped,fixCross_2.started,fixCross_2.stopped,certainBox_2.started,certainBox_2.stopped,outcome1Box_2.started,outcome1Box_2.stopped,outcome2Box_2.started,outcome2Box_2.stopped,certainText_2.started,certainText_2.stopped,outcome1Text_2.started,outcome1Text_2.stopped,outcome2Text_2.started,outcome2Text_2.stopped,fixCross_3.started,fixCross_3.stopped,certainBox_3.started,certainBox_3.stopped,outcome1Box_3.started,outcome1Box_3.stopped,outcome2Box_3.started,outcome2Box_3.stopped,certainText_3.started,certainText_3.stopped,outcome1Text_3.started,outcome1Text_3.stopped,outcome2Text_3.started,outcome2Text_3.stopped,fixCross_ITI.started,fixCross_ITI.stopped,fixCross_ISI.started,fixCross_ISI.stopped,happyText.started,happyText.stopped,happySlider.response,happySlider.rt,happySlider.started,happySlider.stopped,happyResp.keys,happyResp.started,happyResp.stopped,endOfBlockText.started,endOfBlockText.stopped,restKeyResp.keys,restKeyResp.rt,restKeyResp.started,restKeyResp.stopped,finalWinnings,cashBonus,participant,date,expName,psychopyVersion,frameRate,
1,black.png,"Welcome! You are about to play our gambling task.
This task has 3 blocks and takes about 15 minutes.",,,,0,0,0,0,,,,,,,,,,,,,,,,,,,,,,,,,60.57254308292431,None,60.57254308292431,None,60.57254308292431,None,4,1.2841377143267891,60.57254308292431,None,,,,,,,,,,,,,,,,,,,,,,,,,,,,,,,,,,,,,,,,,,,,,,,,,,,,,,,,,,,,,,,,,,,,,,,,,,,,,,,,,,,,,,,,,,,,,,,,,,,,,,,,,,,,,,,,,,,,,,24128,2019_Nov_08_1114,Mmi_3levels,3.1.5,59.96396562303688,
2,black.png,"In this game, you may win or lose points. Your goal is to get as many points as possible. These points will be converted to a cash bonus at the end.
Sometimes we will ask you to rate your mood.",,,,0,1,1,1,,,,,,,,,,,,,,,,,,,,,,,,,61.90636631493726,None,61.90636631493726,None,61.90636631493726,None,4,3.3516186175565963,61.90636631493726,None,,,,,,,,,,,,,,,,,,,,,,,,,,,,,,,,,,,,,,,,,,,,,,,,,,,,,,,,,,,,,,,,,,,,,,,,,,,,,,,,,,,,,,,,,,,,,,,,,,,,,,,,,,,,,,,,,,,,,,24128,2019_Nov_08_1114,Mmi_3levels,3.1.5,59.96396562303688,
3,black.png,"On the next screen, please rate how you feel about your life these days. Use the LEFT (green) and RIGHT (blue) buttons to move the slider (you can press and hold them to slide gradually) and the TOP (red) button to lock in your response.
Make your rating as accurately and quickly as you can!",,,,0,2,2,2,,,,,,,,,,,,,,,,,,,,,,,,,65.3410709165928,None,65.3410709165928,None,65.3410709165928,None,4,3.9352127395413845,65.3410709165928,None,,,,,,,,,,,,,,,,,,,,,,,,,,,,,,,,,,,,,,,,,,,,,,,,,,,,,,,,,,,,,,,,,,,,,,,,,,,,,,,,,,,,,,,,,,,,,,,,,,,,,,,,,,,,,,,,,,,,,,24128,2019_Nov_08_1114,Mmi_3levels,3.1.5,59.96396562303688,
,,,,,,,,,,,,,,,,,,,,,,,,,,,,,,,,,,,,,,,,,,,,69.29265126381688,None,0.84,10.502799558162224,73.29418463708498,None,None,73.29418463708498,None,,,,,,,,,,,,,,,,,,,,,,,,,,,,,,,,,,,,,,,,,,,,,,,,,,,,,,,,,,,,,,,,,,,,,,,,,,,,,,,,,,,,,,,,,,,,,,,,,,,,,,,,,,,,,24128,2019_Nov_08_1114,Mmi_3levels,3.1.5,59.96396562303688,
4,black.png,"In this game you can win money by earning points according to your choices. You will decide whether to gamble a number of points or stick with a guaranteed number of points. 
Make your choice by pressing the left or right arrow key once. An example of one trial is shown on the next screen.",,,,,,,,0,0,0,0,,,,,,,,,,,,,,,,,,,,,,,,,,,,,,,,,,,,,,,,79.83009667419174,None,79.83009667419174,None,79.83009667419174,None,4,1.7842804281153803,79.83009667419174,None,,,,,,,,,,,,,,,,,,,,,,,,,,,,,,,,,,,,,,,,,,,,,,,,,,,,,,,,,,,,,,,,,,,,,,,,,,,,,,,,,,,,,,,,,,,,,,,,,,,24128,2019_Nov_08_1114,Mmi_3levels,3.1.5,59.96396562303688,
5,example_start.png,"The GAMBLING OPTION will be shown on the RIGHT SIDE. 
Select this option using the RIGHT (blue) button on your keypad.",,,,,,,,0,1,1,1,,,,,,,,,,,,,,,,,,,,,,,,,,,,,,,,,,,,,,,,81.68085100936332,None,81.68085100936332,None,81.68085100936332,None,4,2.934773718649012,81.68085100936332,None,,,,,,,,,,,,,,,,,,,,,,,,,,,,,,,,,,,,,,,,,,,,,,,,,,,,,,,,,,,,,,,,,,,,,,,,,,,,,,,,,,,,,,,,,,,,,,,,,,,24128,2019_Nov_08_1114,Mmi_3levels,3.1.5,59.96396562303688,
6,example_gamble.png,"Once you select the gambling choice, the choice you made will remain on the screen.",,,,,,,,0,2,2,2,,,,,,,,,,,,,,,,,,,,,,,,,,,,,,,,,,,,,,,,84.64863129156583,None,84.64863129156583,None,84.64863129156583,None,4,1.1340872845212289,84.64863129156583,None,,,,,,,,,,,,,,,,,,,,,,,,,,,,,,,,,,,,,,,,,,,,,,,,,,,,,,,,,,,,,,,,,,,,,,,,,,,,,,,,,,,,,,,,,,,,,,,,,,,24128,2019_Nov_08_1114,Mmi_3levels,3.1.5,59.96396562303688,
7,example_win.png,"The outcome you received will then be shown on the screen. In this example , you WON 10 points.",,,,,,,,0,3,3,3,,,,,,,,,,,,,,,,,,,,,,,,,,,,,,,,,,,,,,,,85.81574881861161,None,85.81574881861161,None,85.81574881861161,None,4,1.317452744455295,85.81574881861161,None,,,,,,,,,,,,,,,,,,,,,,,,,,,,,,,,,,,,,,,,,,,,,,,,,,,,,,,,,,,,,,,,,,,,,,,,,,,,,,,,,,,,,,,,,,,,,,,,,,,24128,2019_Nov_08_1114,Mmi_3levels,3.1.5,59.96396562303688,
8,example_start.png,"The GUARANTEED OPTION will be shown on the LEFT SIDE. You are 100% guaranteed to gain or lose this amount. In this example, you have a 100% chance of winning 1 point. Select this option using the LEFT (green) button on your keyboard.",,,,,,,,0,4,4,4,,,,,,,,,,,,,,,,,,,,,,,,,,,,,,,,,,,,,,,,87.18296131752322,None,87.18296131752322,None,87.18296131752322,None,4,1.5342324302037014,87.18296131752322,None,,,,,,,,,,,,,,,,,,,,,,,,,,,,,,,,,,,,,,,,,,,,,,,,,,,,,,,,,,,,,,,,,,,,,,,,,,,,,,,,,,,,,,,,,,,,,,,,,,,24128,2019_Nov_08_1114,Mmi_3levels,3.1.5,59.96396562303688,
9,example_certain.png,"Once you select the guaranteed choice, your selection will remain on the screen.",,,,,,,,0,5,5,5,,,,,,,,,,,,,,,,,,,,,,,,,,,,,,,,,,,,,,,,88.75023934958335,None,88.75023934958335,None,88.75023934958335,None,4,1.2174574162527279,88.75023934958335,None,,,,,,,,,,,,,,,,,,,,,,,,,,,,,,,,,,,,,,,,,,,,,,,,,,,,,,,,,,,,,,,,,,,,,,,,,,,,,,,,,,,,,,,,,,,,,,,,,,,24128,2019_Nov_08_1114,Mmi_3levels,3.1.5,59.96396562303688,
10,black.png,"Please make your choices as fast as possible.
You will be given a break at the end of each block.
Let's play!",,,,,,,,0,6,6,6,,,,,,,,,,,,,,,,,,,,,,,,,,,,,,,,,,,,,,,,90.00072956824988,None,90.00072956824988,None,90.00072956824988,None,4,3.4348537151654455,90.00072956824988,None,,,,,,,,,,,,,,,,,,,,,,,,,,,,,,,,,,,,,,,,,,,,,,,,,,,,,,,,,,,,,,,,,,,,,,,,,,,,,,,,,,,,,,,,,,,,,,,,,,,24128,2019_Nov_08_1114,Mmi_3levels,3.1.5,59.96396562303688,
,,,,,,,,,,,,,,,,,,,,,,,,,,,,,,,,,,,,,,,,,,,,,,,,,,,,,,,,,,,,,,,93.45208944506703,None,space,545.2635712493793,93.45208944506703,None,,,,,,,,,,,,,,,,,,,,,,,,,,,,,,,,,,,,,,,,,,,,,,,,,,,,,,,,,,,,,,,,,,,,,,,,,,,,,,,,,,,,,,,,,,,,,24128,2019_Nov_08_1114,Mmi_3levels,3.1.5,59.96396562303688,
,,,1,1,11.5,,,,,,,,,0,0,0,0,0,0,0,15,,,,,,,,,,,,,,,,,,,,,,,,,,,,,,,,,,,,,,,,,,,,,,,,638.7321934149422,None,0.68,7.495754424766346,641.7499510421312,None,None,641.7499510421312,None,646.2350460907946,None,True,True,True,0.68,-0.31999999999999995,-0.31999999999999995,4.8,11.5,6.7,3.35,gamble,win,11.5,11.5,649.2695309900118,None,649.2695309900118,None,649.2695309900118,None,649.2695309900118,None,649.2695309900118,None,649.2695309900118,None,649.2695309900118,None,1,2.117766074819883,649.2695309900118,None,651.4203721054055,None,651.4203721054055,None,651.4203721054055,None,651.4203721054055,None,651.4203721054055,None,651.4203721054055,None,651.4203721054055,None,655.40526172301,None,655.40526172301,None,655.40526172301,None,655.40526172301,None,655.40526172301,None,655.40526172301,None,655.40526172301,None,656.4057087435558,None,,,,,,,,,,,,,,,,,,,,24128,2019_Nov_08_1114,Mmi_3levels,3.1.5,59.96396562303688,
,,,1,1,8.5,,,,,,,,,0,0,0,0,0,1,1,0,,,,,,,,,,,,,,,,,,,,,,,,,,,,,,,,,,,,,,,,,,,,,,,,,,,,,,,,,,,True,False,False,0.68,-0.31999999999999995,-0.6399999999999999,-1.1733333333333331,8.5,7.326666666666667,3.6633333333333336,gamble,lose,7.326666666666667,18.826666666666668,658.423169423666,None,658.423169423666,None,658.423169423666,None,658.423169423666,None,658.423169423666,None,658.423169423666,None,658.423169423666,None,1,1.3507450555753167,658.423169423666,None,659.8070483972533,None,659.8070483972533,None,659.8070483972533,None,659.8070483972533,None,659.8070483972533,None,659.8070483972533,None,659.8070483972533,None,663.7919533741897,None,663.7919533741897,None,663.7919533741897,None,663.7919533741897,None,663.7919533741897,None,663.7919533741897,None,663.7919533741897,None,664.7923200782297,None,,,,,,,,,,,,,,,,,,,,24128,2019_Nov_08_1114,Mmi_3levels,3.1.5,59.96396562303688,
,,,1,1,9.7,,,,,,,,,0,0,0,0,0,2,2,14,,,,,,,,,,,,,,,,,,,,,,,,,,,,,,,,,,,,,,,,,,,,,,,,,,,,,,,,,,,True,False,True,0.68,-0.31999999999999995,-0.9599999999999999,-1.2,9.7,8.5,4.25,gamble,lose,8.5,27.326666666666668,666.8097276406534,None,666.8097276406534,None,666.8097276406534,None,666.8097276406534,None,666.8097276406534,None,666.8097276406534,None,666.8097276406534,None,1,1.0841380983092677,666.8097276406534,None,667.9102362265185,None,667.9102362265185,None,667.9102362265185,None,667.9102362265185,None,667.9102362265185,None,667.9102362265185,None,667.9102362265185,None,671.9117724796615,None,671.9117724796615,None,671.9117724796615,None,671.9117724796615,None,671.9117724796615,None,671.9117724796615,None,671.9117724796615,None,681.4154923177739,None,672.9121747021563,None,673.9125122874648,None,0.73,7.502942591938336,676.9137211948528,None,None,676.9137211948528,None,,,,,,,,,24128,2019_Nov_08_1114,Mmi_3levels,3.1.5,59.96396562303688,
,,,1,1,9.3,,,,,,,,,0,0,0,0,0,3,3,20,,,,,,,,,,,,,,,,,,,,,,,,,,,,,,,,,,,,,,,,,,,,,,,,,,,,,,,,,,,True,True,False,0.73,-0.27,-1.23,5.01,9.3,4.290000000000001,2.1450000000000005,gamble,win,9.3,36.626666666666665,683.432947238136,None,683.432947238136,None,683.432947238136,None,683.432947238136,None,683.432947238136,None,683.432947238136,None,683.432947238136,None,1,1.3674041705689888,683.432947238136,None,684.8334475683623,None,684.8334475683623,None,684.8334475683623,None,684.8334475683623,None,684.8334475683623,None,684.8334475683623,None,684.8334475683623,None,688.8183423057435,None,688.8183423057435,None,688.8183423057435,None,688.8183423057435,None,688.8183423057435,None,688.8183423057435,None,688.8183423057435,None,689.8187314088082,None,,,,,,,,,,,,,,,,,,,,24128,2019_Nov_08_1114,Mmi_3levels,3.1.5,59.96396562303688,
,,,1,1,6.3,,,,,,,,,0,0,0,0,0,4,4,23,,,,,,,,,,,,,,,,,,,,,,,,,,,,,,,,,,,,,,,,,,,,,,,,,,,,,,,,,,,True,True,True,0.73,-0.27,-1.5,5.28,6.3,1.0199999999999996,0.5099999999999998,gamble,win,6.3,42.92666666666666,691.8362455265942,None,691.8362455265942,None,691.8362455265942,None,691.8362455265942,None,691.8362455265942,None,691.8362455265942,None,691.8362455265942,None,1,1.4174666318522213,691.8362455265942,None,693.2868268772945,None,693.2868268772945,None,693.2868268772945,None,693.2868268772945,None,693.2868268772945,None,693.2868268772945,None,693.2868268772945,None,697.2716982556922,None,697.2716982556922,None,697.2716982556922,None,697.2716982556922,None,697.2716982556922,None,697.2716982556922,None,697.2716982556922,None,706.7920791287161,None,698.2720892786747,None,699.2724825415589,None,0.73,7.519589867450122,702.2736437710228,None,None,702.2736437710228,None,,,,,,,,,24128,2019_Nov_08_1114,Mmi_3levels,3.1.5,59.96396562303688,
,,,1,1,12.3,,,,,,,,,0,0,0,0,0,5,5,3,,,,,,,,,,,,,,,,,,,,,,,,,,,,,,,,,,,,,,,,,,,,,,,,,,,,,,,,,,,True,True,True,0.73,-0.27,-1.77,5.550000000000001,12.3,6.75,3.375,gamble,win,12.3,55.22666666666666,708.8095468485208,None,708.8095468485208,None,708.8095468485208,None,708.8095468485208,None,708.8095468485208,None,708.8095468485208,None,708.8095468485208,None,1,1.1340495261647447,708.8095468485208,None,709.9766688553718,None,709.9766688553718,None,709.9766688553718,None,709.9766688553718,None,709.9766688553718,None,709.9766688553718,None,709.9766688553718,None,713.9781779096975,None,713.9781779096975,None,713.9781779096975,None,713.9781779096975,None,713.9781779096975,None,713.9781779096975,None,713.9781779096975,None,714.962011573256,None,,,,,,,,,,,,,,,,,,,,24128,2019_Nov_08_1114,Mmi_3levels,3.1.5,59.96396562303688,
,,,1,1,7.9,,,,,,,,,0,0,0,0,0,6,6,18,,,,,,,,,,,,,,,,,,,,,,,,,,,,,,,,,,,,,,,,,,,,,,,,,,,,,,,,,,,True,True,False,0.73,-0.27,-2.04,5.82,7.9,2.08,1.04,gamble,win,7.9,63.12666666666666,716.979355778436,None,716.979355778436,None,716.979355778436,None,716.979355778436,None,716.979355778436,None,716.979355778436,None,716.979355778436,None,1,1.6009373672059155,716.979355778436,None,718.6133835455475,None,718.6133835455475,None,718.6133835455475,None,718.6133835455475,None,718.6133835455475,None,718.6133835455475,None,718.6133835455475,None,722.598219725478,None,722.598219725478,None,722.598219725478,None,722.598219725478,None,722.598219725478,None,722.598219725478,None,722.598219725478,None,723.5986110684462,None,,,,,,,,,,,,,,,,,,,,24128,2019_Nov_08_1114,Mmi_3levels,3.1.5,59.96396562303688,
,,,1,1,7.7,,,,,,,,,0,0,0,0,0,7,7,16,,,,,,,,,,,,,,,,,,,,,,,,,,,,,,,,,,,,,,,,,,,,,,,,,,,,,,,,,,,True,True,True,0.73,-0.27,-2.31,6.09,7.7,1.6100000000000003,0.8050000000000002,gamble,win,7.7,70.82666666666665,725.6160864679168,None,725.6160864679168,None,725.6160864679168,None,725.6160864679168,None,725.6160864679168,None,725.6160864679168,None,725.6160864679168,None,1,1.7176369284406974,725.6160864679168,None,727.3668089964722,None,727.3668089964722,None,727.3668089964722,None,727.3668089964722,None,727.3668089964722,None,727.3668089964722,None,727.3668089964722,None,731.3683692485702,None,731.3683692485702,None,731.3683692485702,None,731.3683692485702,None,731.3683692485702,None,731.3683692485702,None,731.3683692485702,None,740.8553474152795,None,732.3520886771003,None,733.3524825799577,None,0.74,7.5028571556558745,736.3536428494626,None,None,736.3536428494626,None,,,,,,,,,24128,2019_Nov_08_1114,Mmi_3levels,3.1.5,59.96396562303688,
,,,1,1,6.9,,,,,,,,,0,0,0,0,0,8,8,12,,,,,,,,,,,,,,,,,,,,,,,,,,,,,,,,,,,,,,,,,,,,,,,,,,,,,,,,,,,True,True,True,0.74,-0.26,-2.5700000000000003,6.210000000000001,6.9,0.6899999999999995,0.34499999999999975,gamble,win,6.9,77.72666666666666,742.8728218547931,None,742.8728218547931,None,742.8728218547931,None,742.8728218547931,None,742.8728218547931,None,742.8728218547931,None,742.8728218547931,None,1,1.6676090256551106,742.8728218547931,None,744.5735423994338,None,744.5735423994338,None,744.5735423994338,None,744.5735423994338,None,744.5735423994338,None,744.5735423994338,None,744.5735423994338,None,748.5584028983048,None,748.5584028983048,None,748.5584028983048,None,748.5584028983048,None,748.5584028983048,None,748.5584028983048,None,748.5584028983048,None,749.5587676824307,None,,,,,,,,,,,,,,,,,,,,24128,2019_Nov_08_1114,Mmi_3levels,3.1.5,59.96396562303688,
,,,1,1,3.7,,,,,,,,,0,0,0,0,0,9,9,21,,,,,,,,,,,,,,,,,,,,,,,,,,,,,,,,,,,,,,,,,,,,,,,,,,,,,,,,,,,True,True,True,0.74,-0.26,-2.83,6.470000000000001,3.7,-2.7700000000000005,0.46499999999999986,gamble,win,3.7,81.42666666666666,751.5762840401185,None,751.5762840401185,None,751.5762840401185,None,751.5762840401185,None,751.5762840401185,None,751.5762840401185,None,751.5762840401185,None,1,1.0672975512097764,751.5762840401185,None,752.6767113495225,None,752.6767113495225,None,752.6767113495225,None,752.6767113495225,None,752.6767113495225,None,752.6767113495225,None,752.6767113495225,None,756.6615472094654,None,756.6615472094654,None,756.6615472094654,None,756.6615472094654,None,756.6615472094654,None,756.6615472094654,None,756.6615472094654,None,766.1653147255038,None,757.6620047895522,None,758.6623321353054,None,0.76,7.50296371101831,761.6635244034169,None,None,761.6635244034169,None,,,,,,,,,24128,2019_Nov_08_1114,Mmi_3levels,3.1.5,59.96396562303688,
,,,1,1,0.9,,,,,,,,,0,0,0,0,0,10,10,13,,,,,,,,,,,,,,,,,,,,,,,,,,,,,,,,,,,,,,,,,,,,,,,,,,,,,,,,,,,True,True,True,0.76,-0.24,-3.0700000000000003,6.43,0.9,-5.529999999999999,-2.3149999999999995,gamble,win,0.9,82.32666666666667,768.1827792454478,None,768.1827792454478,None,768.1827792454478,None,768.1827792454478,None,768.1827792454478,None,768.1827792454478,None,768.1827792454478,None,1,2.1843935751930985,768.1827792454478,None,770.4003016188726,None,770.4003016188726,None,770.4003016188726,None,770.4003016188726,None,770.4003016188726,None,770.4003016188726,None,770.4003016188726,None,774.3851496382867,None,774.3851496382867,None,774.3851496382867,None,774.3851496382867,None,774.3851496382867,None,774.3851496382867,None,774.3851496382867,None,775.3855883391952,None,,,,,,,,,,,,,,,,,,,,24128,2019_Nov_08_1114,Mmi_3levels,3.1.5,59.96396562303688,
,,,1,1,1.3,,,,,,,,,0,0,0,0,0,11,11,1,,,,,,,,,,,,,,,,,,,,,,,,,,,,,,,,,,,,,,,,,,,,,,,,,,,,,,,,,,,True,True,True,0.76,-0.24,-3.3100000000000005,6.67,1.3,-5.37,-2.035,gamble,win,1.3,83.62666666666667,777.4030413396413,None,777.4030413396413,None,777.4030413396413,None,777.4030413396413,None,777.4030413396413,None,777.4030413396413,None,777.4030413396413,None,1,2.484561631878023,777.4030413396413,None,779.9206306541546,None,779.9206306541546,None,779.9206306541546,None,779.9206306541546,None,779.9206306541546,None,779.9206306541546,None,779.9206306541546,None,783.9055842689722,None,783.9055842689722,None,783.9055842689722,None,783.9055842689722,None,783.9055842689722,None,783.9055842689722,None,783.9055842689722,None,793.4092829880046,None,784.905989371342,None,785.9063659949516,None,0.76,7.502820357258315,788.9075313842332,None,None,788.9075313842332,None,,,,,,,,,24128,2019_Nov_08_1114,Mmi_3levels,3.1.5,59.96396562303688,
,,,1,1,4.3,,,,,,,,,0,0,0,0,0,12,12,17,,,,,,,,,,,,,,,,,,,,,,,,,,,,,,,,,,,,,,,,,,,,,,,,,,,,,,,,,,,True,True,True,0.76,-0.24,-3.5500000000000007,6.91,4.3,-2.6100000000000003,0.8449999999999998,gamble,win,4.3,87.92666666666666,795.4267430281434,None,795.4267430281434,None,795.4267430281434,None,795.4267430281434,None,795.4267430281434,None,795.4267430281434,None,795.4267430281434,None,1,1.951045650492233,795.4267430281434,None,797.4108793985288,None,797.4108793985288,None,797.4108793985288,None,797.4108793985288,None,797.4108793985288,None,797.4108793985288,None,797.4108793985288,None,801.4124476502784,None,801.4124476502784,None,801.4124476502784,None,801.4124476502784,None,801.4124476502784,None,801.4124476502784,None,801.4124476502784,None,802.396148519616,None,,,,,,,,,,,,,,,,,,,,24128,2019_Nov_08_1114,Mmi_3levels,3.1.5,59.96396562303688,
,,,1,1,4.1,,,,,,,,,0,0,0,0,0,13,13,25,,,,,,,,,,,,,,,,,,,,,,,,,,,,,,,,,,,,,,,,,,,,,,,,,,,,,,,,,,,True,False,True,0.76,-0.24,-3.790000000000001,-1.1558333333333333,4.1,2.9441666666666664,1.4720833333333332,gamble,lose,2.9441666666666664,90.87083333333332,804.4136200792545,None,804.4136200792545,None,804.4136200792545,None,804.4136200792545,None,804.4136200792545,None,804.4136200792545,None,804.4136200792545,None,1,1.4841408501906699,804.4136200792545,None,805.9641746791185,None,805.9641746791185,None,805.9641746791185,None,805.9641746791185,None,805.9641746791185,None,805.9641746791185,None,805.9641746791185,None,809.9157355071911,None,809.9157355071911,None,809.9157355071911,None,809.9157355071911,None,809.9157355071911,None,809.9157355071911,None,809.9157355071911,None,810.9161604486962,None,,,,,,,,,,,,,,,,,,,,24128,2019_Nov_08_1114,Mmi_3levels,3.1.5,59.96396562303688,
,,,1,1,13.7,,,,,,,,,0,0,0,0,0,14,14,5,,,,,,,,,,,,,,,,,,,,,,,,,,,,,,,,,,,,,,,,,,,,,,,,,,,,,,,,,,,True,True,True,0.76,-0.24,-4.030000000000001,7.390000000000001,13.7,6.309999999999999,3.1549999999999994,gamble,win,13.7,104.57083333333333,812.9335632113289,None,812.9335632113289,None,812.9335632113289,None,812.9335632113289,None,812.9335632113289,None,812.9335632113289,None,812.9335632113289,None,1,1.4008478351006488,812.9335632113289,None,814.3508432913004,None,814.3508432913004,None,814.3508432913004,None,814.3508432913004,None,814.3508432913004,None,814.3508432913004,None,814.3508432913004,None,818.3524006635234,None,818.3524006635234,None,818.3524006635234,None,818.3524006635234,None,818.3524006635234,None,818.3524006635234,None,818.3524006635234,None,827.87278857624,None,819.3528156854609,None,820.3531932690294,None,0.76,7.519443313827651,823.3542997808727,None,None,823.3542997808727,None,,,,,,,,,24128,2019_Nov_08_1114,Mmi_3levels,3.1.5,59.96396562303688,
,,,1,1,5.1,,,,,,,,,0,0,0,0,0,15,15,11,,,,,,,,,,,,,,,,,,,,,,,,,,,,,,,,,,,,,,,,,,,,,,,,,,,,,,,,,,,True,True,False,0.76,-0.24,-4.270000000000001,7.630000000000001,5.1,-2.530000000000001,1.2849999999999993,gamble,win,5.1,109.67083333333332,829.8902022183993,None,829.8902022183993,None,829.8902022183993,None,829.8902022183993,None,829.8902022183993,None,829.8902022183993,None,829.8902022183993,None,1,1.4508443792528851,829.8902022183993,None,831.3741174784063,None,831.3741174784063,None,831.3741174784063,None,831.3741174784063,None,831.3741174784063,None,831.3741174784063,None,831.3741174784063,None,835.3590598937135,None,835.3590598937135,None,835.3590598937135,None,835.3590598937135,None,835.3590598937135,None,835.3590598937135,None,835.3590598937135,None,836.3593968390487,None,,,,,,,,,,,,,,,,,,,,24128,2019_Nov_08_1114,Mmi_3levels,3.1.5,59.96396562303688,
,,,1,1,9.9,,,,,,,,,0,0,0,0,0,16,16,8,,,,,,,,,,,,,,,,,,,,,,,,,,,,,,,,,,,,,,,,,,,,,,,,,,,,,,,,,,,True,True,False,0.76,-0.24,-4.510000000000002,7.870000000000001,9.9,2.0299999999999994,1.0149999999999997,gamble,win,9.9,119.57083333333333,838.3768562392161,None,838.3768562392161,None,838.3768562392161,None,838.3768562392161,None,838.3768562392161,None,838.3768562392161,None,838.3768562392161,None,1,1.000694049795129,838.3768562392161,None,839.4106506084845,None,839.4106506084845,None,839.4106506084845,None,839.4106506084845,None,839.4106506084845,None,839.4106506084845,None,839.4106506084845,None,843.3955274266464,None,843.3955274266464,None,843.3955274266464,None,843.3955274266464,None,843.3955274266464,None,843.3955274266464,None,843.3955274266464,None,852.8992581442853,None,844.3959306091001,None,845.3963238719844,None,0.78,7.502895233998061,848.3974646223396,None,None,848.3974646223396,None,,,,,,,,,24128,2019_Nov_08_1114,Mmi_3levels,3.1.5,59.96396562303688,
,,,1,1,4.7,,,,,,,,,0,0,0,0,0,17,17,2,,,,,,,,,,,,,,,,,,,,,,,,,,,,,,,,,,,,,,,,,,,,,,,,,,,,,,,,,,,True,True,False,0.78,-0.21999999999999997,-4.730000000000001,7.8100000000000005,4.7,-3.1100000000000003,0.7949999999999999,gamble,win,4.7,124.27083333333333,854.9166561071252,None,854.9166561071252,None,854.9166561071252,None,854.9166561071252,None,854.9166561071252,None,854.9166561071252,None,854.9166561071252,None,1,1.5509005048097606,854.9166561071252,None,856.5006610912296,None,856.5006610912296,None,856.5006610912296,None,856.5006610912296,None,856.5006610912296,None,856.5006610912296,None,856.5006610912296,None,860.485547188986,None,860.485547188986,None,860.485547188986,None,860.485547188986,None,860.485547188986,None,860.485547188986,None,860.485547188986,None,861.4859410918434,None,,,,,,,,,,,,,,,,,,,,24128,2019_Nov_08_1114,Mmi_3levels,3.1.5,59.96396562303688,
,,,1,1,4.9,,,,,,,,,0,0,0,0,0,18,18,7,,,,,,,,,,,,,,,,,,,,,,,,,,,,,,,,,,,,,,,,,,,,,,,,,,,,,,,,,,,True,True,True,0.78,-0.21999999999999997,-4.950000000000001,8.030000000000001,4.9,-3.130000000000001,0.8849999999999998,gamble,win,4.9,129.17083333333332,863.503404971816,None,863.503404971816,None,863.503404971816,None,863.503404971816,None,863.503404971816,None,863.503404971816,None,863.503404971816,None,1,1.5507955493776535,863.503404971816,None,865.087361958007,None,865.087361958007,None,865.087361958007,None,865.087361958007,None,865.087361958007,None,865.087361958007,None,865.087361958007,None,869.0722454958759,None,869.0722454958759,None,869.0722454958759,None,869.0722454958759,None,869.0722454958759,None,869.0722454958759,None,869.0722454958759,None,870.0726432385654,None,,,,,,,,,,,,,,,,,,,,24128,2019_Nov_08_1114,Mmi_3levels,3.1.5,59.96396562303688,
,,,1,1,13.1,,,,,,,,,0,0,0,0,0,19,19,6,,,,,,,,,,,,,,,,,,,,,,,,,,,,,,,,,,,,,,,,,,,,,,,,,,,,,,,,,,,True,True,True,0.78,-0.21999999999999997,-5.170000000000001,8.25,13.1,4.85,2.425,gamble,win,13.1,142.27083333333331,872.0901019987614,None,872.0901019987614,None,872.0901019987614,None,872.0901019987614,None,872.0901019987614,None,872.0901019987614,None,872.0901019987614,None,1,1.0673157904184336,872.0901019987614,None,873.1905286681922,None,873.1905286681922,None,873.1905286681922,None,873.1905286681922,None,873.1905286681922,None,873.1905286681922,None,873.1905286681922,None,877.1754176458235,None,877.1754176458235,None,877.1754176458235,None,877.1754176458235,None,877.1754176458235,None,877.1754176458235,None,877.1754176458235,None,886.6791346040627,None,878.1758077088489,None,879.17615233385,None,0.77,7.502917313038779,882.177361241238,None,None,882.177361241238,None,,,,,,,,,24128,2019_Nov_08_1114,Mmi_3levels,3.1.5,59.96396562303688,
,,,1,1,7.5,,,,,,,,,0,0,0,0,0,20,20,10,,,,,,,,,,,,,,,,,,,,,,,,,,,,,,,,,,,,,,,,,,,,,,,,,,,,,,,,,,,True,True,True,0.77,-0.22999999999999998,-5.4,8.620000000000001,7.5,-1.120000000000001,-0.5600000000000005,gamble,win,7.5,149.77083333333331,888.6965981640478,None,888.6965981640478,None,888.6965981640478,None,888.6965981640478,None,888.6965981640478,None,888.6965981640478,None,888.6965981640478,None,1,1.4341340664850577,888.6965981640478,None,890.1638847077375,None,890.1638847077375,None,890.1638847077375,None,890.1638847077375,None,890.1638847077375,None,890.1638847077375,None,890.1638847077375,None,894.165348004055,None,894.165348004055,None,894.165348004055,None,894.165348004055,None,894.165348004055,None,894.165348004055,None,894.165348004055,None,895.1491093507611,None,,,,,,,,,,,,,,,,,,,,24128,2019_Nov_08_1114,Mmi_3levels,3.1.5,59.96396562303688,
,,,1,1,1.7,,,,,,,,,0,0,0,0,0,21,21,22,,,,,,,,,,,,,,,,,,,,,,,,,,,,,,,,,,,,,,,,,,,,,,,,,,,,,,,,,,,True,False,True,0.77,-0.22999999999999998,-5.630000000000001,-1.2741666666666667,1.7,0.4258333333333333,1.0629166666666667,gamble,lose,0.4258333333333333,150.19666666666666,897.1665761106069,None,897.1665761106069,None,897.1665761106069,None,897.1665761106069,None,897.1665761106069,None,897.1665761106069,None,897.1665761106069,None,1,1.500665571034915,897.1665761106069,None,898.7005087138605,None,898.7005087138605,None,898.7005087138605,None,898.7005087138605,None,898.7005087138605,None,898.7005087138605,None,898.7005087138605,None,902.6853948116168,None,902.6853948116168,None,902.6853948116168,None,902.6853948116168,None,902.6853948116168,None,902.6853948116168,None,902.6853948116168,None,912.1891248892844,None,903.6857403965769,None,904.6861826173317,None,0.78,7.502919872928032,907.6872888091912,None,None,907.6872888091912,None,,,,,,,,,24128,2019_Nov_08_1114,Mmi_3levels,3.1.5,59.96396562303688,
,,,1,1,0.3,,,,,,,,,0,0,0,0,0,22,22,4,,,,,,,,,,,,,,,,,,,,,,,,,,,,,,,,,,,,,,,,,,,,,,,,,,,,,,,,,,,True,False,True,0.78,-0.21999999999999997,-5.8500000000000005,-1.2574999999999998,0.3,-0.9574999999999998,-0.3287499999999999,gamble,lose,-0.9574999999999998,149.23916666666665,914.2065433312346,None,914.2065433312346,None,914.2065433312346,None,914.2065433312346,None,914.2065433312346,None,914.2065433312346,None,914.2065433312346,None,1,1.9677719625651662,914.2065433312346,None,916.2073560958634,None,916.2073560958634,None,916.2073560958634,None,916.2073560958634,None,916.2073560958634,None,916.2073560958634,None,916.2073560958634,None,920.1922431535786,None,920.1922431535786,None,920.1922431535786,None,920.1922431535786,None,920.1922431535786,None,920.1922431535786,None,920.1922431535786,None,921.1926152973829,None,,,,,,,,,,,,,,,,,,,,24128,2019_Nov_08_1114,Mmi_3levels,3.1.5,59.96396562303688,
,,,1,1,5.7,,,,,,,,,0,0,0,0,0,23,23,24,,,,,,,,,,,,,,,,,,,,,,,,,,,,,,,,,,,,,,,,,,,,,,,,,,,,,,,,,,,True,False,False,0.78,-0.21999999999999997,-6.07,-1.2758333333333334,5.7,4.424166666666666,2.212083333333333,gamble,lose,4.424166666666666,153.66333333333333,923.2100462187882,None,923.2100462187882,None,923.2100462187882,None,923.2100462187882,None,923.2100462187882,None,923.2100462187882,None,923.2100462187882,None,1,1.367532484986441,923.2100462187882,None,924.6106540643341,None,924.6106540643341,None,924.6106540643341,None,924.6106540643341,None,924.6106540643341,None,924.6106540643341,None,924.6106540643341,None,928.6122639142741,None,928.6122639142741,None,928.6122639142741,None,928.6122639142741,None,928.6122639142741,None,928.6122639142741,None,928.6122639142741,None,938.0993051182413,None,929.5959247853534,None,930.5962882895328,None,0.82,7.502886274389311,933.5974719180213,None,None,933.5974719180213,None,,,,,,,,,24128,2019_Nov_08_1114,Mmi_3levels,3.1.5,59.96396562303688,
,,,1,1,8.9,,,,,,,,,0,0,0,0,0,24,24,26,,,,,,,,,,,,,,,,,,,,,,,,,,,,,,,,,,,,,,,,,,,,,,,,,,,,,,,,,,,True,True,False,0.82,-0.18000000000000005,-6.25,8.77,8.9,0.13000000000000078,0.06500000000000039,gamble,win,8.9,162.56333333333333,940.1167149205667,None,940.1167149205667,None,940.1167149205667,None,940.1167149205667,None,940.1167149205667,None,940.1167149205667,None,940.1167149205667,None,1,1.4008430353114818,940.1167149205667,None,941.5506045176917,None,941.5506045176917,None,941.5506045176917,None,941.5506045176917,None,941.5506045176917,None,941.5506045176917,None,941.5506045176917,None,945.535441017606,None,945.535441017606,None,945.535441017606,None,945.535441017606,None,945.535441017606,None,945.535441017606,None,945.535441017606,None,946.535888678125,None,,,,,,,,,,,,,,,,,,,,24128,2019_Nov_08_1114,Mmi_3levels,3.1.5,59.96396562303688,
,,,1,1,2.7,,,,,,,,,0,0,0,0,0,25,25,19,,,,,,,,,,,,,,,,,,,,,,,,,,,,,,,,,,,,,,,,,,,,,,,,,,,,,,,,,,,True,True,True,0.82,-0.18000000000000005,-6.43,8.95,2.7,-6.249999999999999,-1.7749999999999995,gamble,win,2.7,165.26333333333332,948.5533461583746,None,948.5533461583746,None,948.5533461583746,None,948.5533461583746,None,948.5533461583746,None,948.5533461583746,None,948.5533461583746,None,1,2.5179128204345034,948.5533461583746,None,951.1043193000241,None,951.1043193000241,None,951.1043193000241,None,951.1043193000241,None,951.1043193000241,None,951.1043193000241,None,951.1043193000241,None,955.1058981113147,None,955.1058981113147,None,955.1058981113147,None,955.1058981113147,None,955.1058981113147,None,955.1058981113147,None,955.1058981113147,None,956.0896312992463,None,,,,,,,,,,,,,,,,,,,,24128,2019_Nov_08_1114,Mmi_3levels,3.1.5,59.96396562303688,
,,,1,1,-0.1,,,,,,,,,0,0,0,0,0,26,26,9,,,,,,,,,,,,,,,,,,,,,,,,,,,,,,,,,,,,,,,,,,,,,,,,,,,,,,,,,,,True,True,True,0.82,-0.18000000000000005,-6.609999999999999,9.129999999999999,-0.1,-9.229999999999999,-4.664999999999999,gamble,win,-0.1,165.16333333333333,958.1070852596495,None,958.1070852596495,None,958.1070852596495,None,958.1070852596495,None,958.1070852596495,None,958.1070852596495,None,958.1070852596495,None,None,,958.1070852596495,None,961.1082605685006,None,961.1082605685006,None,961.1082605685006,None,961.1082605685006,None,961.1082605685006,None,961.1082605685006,None,961.1082605685006,None,965.1097683428816,None,965.1097683428816,None,965.1097683428816,None,965.1097683428816,None,965.1097683428816,None,965.1097683428816,None,965.1097683428816,None,974.5968677843139,None,966.0934900113152,None,967.0938813542834,None,0.78,7.5028622754343814,970.0950880217697,None,None,970.0950880217697,None,,,,,,,,,24128,2019_Nov_08_1114,Mmi_3levels,3.1.5,59.96396562303688,
,,,2,0,11.1,,,,,,,,,0,1,1,1,0,0,0,24,,,,,,,,,,,,,,,,,,,,,,,,,,,,,,,,,,,,,,,,,,,,,,,,982.6833638600037,None,0.78,7.50184759959302,985.7011976438789,None,None,985.7011976438789,None,990.1862821330014,None,False,True,False,0.78,0.78,0.78,-11.7,11.1,-0.5999999999999996,-0.2999999999999998,gamble,lose,-0.5999999999999996,164.56333333333333,993.2207747118846,None,993.2207747118846,None,993.2207747118846,None,993.2207747118846,None,993.2207747118846,None,993.2207747118846,None,993.2207747118846,None,1,1.3508036130260734,993.2207747118846,None,994.6047292021849,None,994.6047292021849,None,994.6047292021849,None,994.6047292021849,None,994.6047292021849,None,994.6047292021849,None,994.6047292021849,None,998.606260655537,None,998.606260655537,None,998.606260655537,None,998.606260655537,None,998.606260655537,None,998.606260655537,None,998.606260655537,None,999.5899816839974,None,,,,,,,,,,,,976.597644070529,None,4,6.069247546347469,976.597644070529,None,,,24128,2019_Nov_08_1114,Mmi_3levels,3.1.5,59.96396562303688,
,,,2,0,10.7,,,,,,,,,0,1,1,1,0,1,1,10,,,,,,,,,,,,,,,,,,,,,,,,,,,,,,,,,,,,,,,,,,,,,,,,,,,,,,,,,,,False,True,True,0.78,0.78,1.56,-12.48,10.7,-1.7800000000000011,-0.8900000000000006,gamble,lose,-1.7800000000000011,162.78333333333333,1001.607407485626,None,1001.607407485626,None,1001.607407485626,None,1001.607407485626,None,1001.607407485626,None,1001.607407485626,None,1001.607407485626,None,1,1.5342017115417548,1001.607407485626,None,1003.1747149564053,None,1003.1747149564053,None,1003.1747149564053,None,1003.1747149564053,None,1003.1747149564053,None,1003.1747149564053,None,1003.1747149564053,None,1007.1762492896305,None,1007.1762492896305,None,1007.1762492896305,None,1007.1762492896305,None,1007.1762492896305,None,1007.1762492896305,None,1007.1762492896305,None,1016.6632712944338,None,1008.1599472790949,None,1009.1603562212968,None,0.76,7.502827076967151,1012.1615190506909,None,None,1012.1615190506909,None,,,,,,,,,24128,2019_Nov_08_1114,Mmi_3levels,3.1.5,59.96396562303688,
,,,2,0,11.9,,,,,,,,,0,1,1,1,0,2,2,17,,,,,,,,,,,,,,,,,,,,,,,,,,,,,,,,,,,,,,,,,,,,,,,,,,,,,,,,,,,False,True,True,0.76,0.76,2.3200000000000003,-12.96,11.9,-1.0600000000000005,-0.5300000000000002,gamble,lose,-1.0600000000000005,161.72333333333333,1018.6807831723163,None,1018.6807831723163,None,1018.6807831723163,None,1018.6807831723163,None,1018.6807831723163,None,1018.6807831723163,None,1018.6807831723163,None,1,2.117753275377254,1018.6807831723163,None,1020.8316220478082,None,1020.8316220478082,None,1020.8316220478082,None,1020.8316220478082,None,1020.8316220478082,None,1020.8316220478082,None,1020.8316220478082,None,1024.816510385468,None,1024.816510385468,None,1024.816510385468,None,1024.816510385468,None,1024.816510385468,None,1024.816510385468,None,1024.816510385468,None,1025.8168537305246,None,,,,,,,,,,,,,,,,,,,,24128,2019_Nov_08_1114,Mmi_3levels,3.1.5,59.96396562303688,
,,,2,0,6.1,,,,,,,,,0,1,1,1,0,3,3,4,,,,,,,,,,,,,,,,,,,,,,,,,,,,,,,,,,,,,,,,,,,,,,,,,,,,,,,,,,,False,False,True,0.76,0.76,3.08,2.916666666666667,1.525,-1.391666666666667,0.06666666666666643,gamble,win,1.525,163.24833333333333,1027.8343678483106,None,1027.8343678483106,None,1027.8343678483106,None,1027.8343678483106,None,1027.8343678483106,None,1027.8343678483106,None,1027.8343678483106,None,1,2.5846231971972884,1027.8343678483106,None,1030.4520625662371,None,1030.4520625662371,None,1030.4520625662371,None,1030.4520625662371,None,1030.4520625662371,None,1030.4520625662371,None,1030.4520625662371,None,1034.4368881866267,None,1034.4368881866267,None,1034.4368881866267,None,1034.4368881866267,None,1034.4368881866267,None,1034.4368881866267,None,1034.4368881866267,None,1043.9406659422184,None,1035.4372868892751,None,1036.4376702325917,None,0.84,7.502906113526478,1039.4388753001476,None,None,1039.4388753001476,None,,,,,,,,,24128,2019_Nov_08_1114,Mmi_3levels,3.1.5,59.96396562303688,
,,,2,0,7.9,,,,,,,,,0,1,1,1,0,4,4,22,,,,,,,,,,,,,,,,,,,,,,,,,,,,,,,,,,,,,,,,,,,,,,,,,,,,,,,,,,,False,True,False,0.84,0.84,3.92,-15.68,7.9,-7.779999999999999,0.0600000000000005,gamble,lose,-7.779999999999999,155.46833333333333,1045.9581218225376,None,1045.9581218225376,None,1045.9581218225376,None,1045.9581218225376,None,1045.9581218225376,None,1045.9581218225376,None,1045.9581218225376,None,1,1.400803997010371,1045.9581218225376,None,1047.3920190993285,None,1047.3920190993285,None,1047.3920190993285,None,1047.3920190993285,None,1047.3920190993285,None,1047.3920190993285,None,1047.3920190993285,None,1051.3769007172814,None,1051.3769007172814,None,1051.3769007172814,None,1051.3769007172814,None,1051.3769007172814,None,1051.3769007172814,None,1051.3769007172814,None,1052.3772943001513,None,,,,,,,,,,,,,,,,,,,,24128,2019_Nov_08_1114,Mmi_3levels,3.1.5,59.96396562303688,
,,,2,0,5.7,,,,,,,,,0,1,1,1,0,5,5,2,,,,,,,,,,,,,,,,,,,,,,,,,,,,,,,,,,,,,,,,,,,,,,,,,,,,,,,,,,,False,True,False,0.84,0.84,4.76,-16.52,5.7,-10.82,-2.56,gamble,lose,-10.82,144.64833333333334,1054.3947274614602,None,1054.3947274614602,None,1054.3947274614602,None,1054.3947274614602,None,1054.3947274614602,None,1054.3947274614602,None,1054.3947274614602,None,1,1.7342624448992865,1054.3947274614602,None,1056.162166382519,None,1056.162166382519,None,1056.162166382519,None,1056.162166382519,None,1056.162166382519,None,1056.162166382519,None,1056.162166382519,None,1060.1637055155352,None,1060.1637055155352,None,1060.1637055155352,None,1060.1637055155352,None,1060.1637055155352,None,1060.1637055155352,None,1060.1637055155352,None,1061.1473436676042,None,,,,,,,,,,,,,,,,,,,,24128,2019_Nov_08_1114,Mmi_3levels,3.1.5,59.96396562303688,
,,,2,0,0.5,,,,,,,,,0,1,1,1,0,6,6,26,,,,,,,,,,,,,,,,,,,,,,,,,,,,,,,,,,,,,,,,,,,,,,,,,,,,,,,,,,,False,True,False,0.84,0.84,5.6,-17.36,0.5,-16.86,-8.18,certain,certain,-8.18,136.46833333333333,1063.1648443459744,None,1063.1648443459744,None,1063.1648443459744,None,1063.1648443459744,None,1063.1648443459744,None,1063.1648443459744,None,1063.1648443459744,None,3,2.351180236637447,1063.1648443459744,None,1065.5490909835607,None,1065.5490909835607,None,1065.5490909835607,None,1065.5490909835607,None,1065.5490909835607,None,1065.5490909835607,None,1065.5490909835607,None,1069.5506678749334,None,1069.5506678749334,None,1069.5506678749334,None,1069.5506678749334,None,1069.5506678749334,None,1069.5506678749334,None,1069.5506678749334,None,1079.0377244382325,None,1070.5343460252607,None,1071.5347904859173,None,0.69,7.502648204750585,1074.5359232366209,None,None,1074.5359232366209,None,,,,,,,,,24128,2019_Nov_08_1114,Mmi_3levels,3.1.5,59.96396562303688,
,,,2,0,10.1,,,,,,,,,0,1,1,1,0,7,7,8,,,,,,,,,,,,,,,,,,,,,,,,,,,,,,,,,,,,,,,,,,,,,,,,,,,,,,,,,,,False,True,True,0.69,0.69,6.289999999999999,-15.95,10.1,-5.85,-2.925,gamble,lose,-5.85,130.61833333333334,1081.0551492799023,None,1081.0551492799023,None,1081.0551492799023,None,1081.0551492799023,None,1081.0551492799023,None,1081.0551492799023,None,1081.0551492799023,None,1,1.6842659007488692,1081.0551492799023,None,1082.7725193399583,None,1082.7725193399583,None,1082.7725193399583,None,1082.7725193399583,None,1082.7725193399583,None,1082.7725193399583,None,1082.7725193399583,None,1086.7740898316097,None,1086.7740898316097,None,1086.7740898316097,None,1086.7740898316097,None,1086.7740898316097,None,1086.7740898316097,None,1086.7740898316097,None,1087.7578038203774,None,,,,,,,,,,,,,,,,,,,,24128,2019_Nov_08_1114,Mmi_3levels,3.1.5,59.96396562303688,
,,,2,0,3.3,,,,,,,,,0,1,1,1,0,8,8,5,,,,,,,,,,,,,,,,,,,,,,,,,,,,,,,,,,,,,,,,,,,,,,,,,,,,,,,,,,,False,True,True,0.69,0.69,6.979999999999999,-16.64,3.3,-13.34,-5.02,gamble,lose,-13.34,117.27833333333334,1089.7752641805018,None,1089.7752641805018,None,1089.7752641805018,None,1089.7752641805018,None,1089.7752641805018,None,1089.7752641805018,None,1089.7752641805018,None,None,,1089.7752641805018,None,1092.776432769646,None,1092.776432769646,None,1092.776432769646,None,1092.776432769646,None,1092.776432769646,None,1092.776432769646,None,1092.776432769646,None,1096.7613246271521,None,1096.7613246271521,None,1096.7613246271521,None,1096.7613246271521,None,1096.7613246271521,None,1096.7613246271521,None,1096.7613246271521,None,1106.265012466658,None,1097.761718210024,None,1098.7620554753448,None,0.7,7.502887554333938,1101.7632682225667,None,None,1101.7632682225667,None,,,,,,,,,24128,2019_Nov_08_1114,Mmi_3levels,3.1.5,59.96396562303688,
,,,2,0,4.9,,,,,,,,,0,1,1,1,0,9,9,19,,,,,,,,,,,,,,,,,,,,,,,,,,,,,,,,,,,,,,,,,,,,,,,,,,,,,,,,,,,False,False,True,0.7,0.7,7.679999999999999,3.09,1.225,-1.8649999999999998,-0.31999999999999984,gamble,win,1.225,118.50333333333333,1108.2824987456552,None,1108.2824987456552,None,1108.2824987456552,None,1108.2824987456552,None,1108.2824987456552,None,1108.2824987456552,None,1108.2824987456552,None,1,2.134618461404898,1108.2824987456552,None,1110.4500133754173,None,1110.4500133754173,None,1110.4500133754173,None,1110.4500133754173,None,1110.4500133754173,None,1110.4500133754173,None,1110.4500133754173,None,1114.4515784273062,None,1114.4515784273062,None,1114.4515784273062,None,1114.4515784273062,None,1114.4515784273062,None,1114.4515784273062,None,1114.4515784273062,None,1115.4352959359203,None,,,,,,,,,,,,,,,,,,,,24128,2019_Nov_08_1114,Mmi_3levels,3.1.5,59.96396562303688,
,,,2,0,9.1,,,,,,,,,0,1,1,1,0,10,10,9,,,,,,,,,,,,,,,,,,,,,,,,,,,,,,,,,,,,,,,,,,,,,,,,,,,,,,,,,,,False,True,True,0.7,0.7,8.379999999999999,-18.18,9.1,-9.08,0.009999999999999787,gamble,lose,-9.08,109.42333333333333,1117.4527556560734,None,1117.4527556560734,None,1117.4527556560734,None,1117.4527556560734,None,1117.4527556560734,None,1117.4527556560734,None,1117.4527556560734,None,1,1.1840809487966908,1117.4527556560734,None,1118.6698844466282,None,1118.6698844466282,None,1118.6698844466282,None,1118.6698844466282,None,1118.6698844466282,None,1118.6698844466282,None,1118.6698844466282,None,1122.6714098202447,None,1122.6714098202447,None,1122.6714098202447,None,1122.6714098202447,None,1122.6714098202447,None,1122.6714098202447,None,1122.6714098202447,None,1123.6552028455717,None,,,,,,,,,,,,,,,,,,,,24128,2019_Nov_08_1114,Mmi_3levels,3.1.5,59.96396562303688,
,,,2,0,5.5,,,,,,,,,0,1,1,1,0,11,11,23,,,,,,,,,,,,,,,,,,,,,,,,,,,,,,,,,,,,,,,,,,,,,,,,,,,,,,,,,,,False,True,True,0.7,0.7,9.079999999999998,-18.879999999999995,5.5,-13.379999999999995,-3.9399999999999977,gamble,lose,-13.379999999999995,96.04333333333334,1125.6726379267966,None,1125.6726379267966,None,1125.6726379267966,None,1125.6726379267966,None,1125.6726379267966,None,1125.6726379267966,None,1125.6726379267966,None,1,1.2840781969171076,1125.6726379267966,None,1126.9898164431888,None,1126.9898164431888,None,1126.9898164431888,None,1126.9898164431888,None,1126.9898164431888,None,1126.9898164431888,None,1126.9898164431888,None,1130.991367095703,None,1130.991367095703,None,1130.991367095703,None,1130.991367095703,None,1130.991367095703,None,1130.991367095703,None,1130.991367095703,None,1140.4783775810083,None,1131.975026366852,None,1132.975491306619,None,0.63,7.502779399041174,1135.9766547759846,None,None,1135.9766547759846,None,,,,,,,,,24128,2019_Nov_08_1114,Mmi_3levels,3.1.5,59.96396562303688,
,,,2,0,4.5,,,,,,,,,0,1,1,1,0,12,12,1,,,,,,,,,,,,,,,,,,,,,,,,,,,,,,,,,,,,,,,,,,,,,,,,,,,,,,,,,,,False,False,True,0.63,0.63,9.709999999999999,3.0141666666666667,1.125,-1.8891666666666667,-0.38208333333333333,gamble,win,1.125,97.16833333333334,1142.4959089780405,None,1142.4959089780405,None,1142.4959089780405,None,1142.4959089780405,None,1142.4959089780405,None,1142.4959089780405,None,1142.4959089780405,None,1,1.5341780325725267,1142.4959089780405,None,1144.0631652510474,None,1144.0631652510474,None,1144.0631652510474,None,1144.0631652510474,None,1144.0631652510474,None,1144.0631652510474,None,1144.0631652510474,None,1148.048054868652,None,1148.048054868652,None,1148.048054868652,None,1148.048054868652,None,1148.048054868652,None,1148.048054868652,None,1148.048054868652,None,1149.0484522913557,None,,,,,,,,,,,,,,,,,,,,24128,2019_Nov_08_1114,Mmi_3levels,3.1.5,59.96396562303688,
,,,2,0,12.7,,,,,,,,,0,1,1,1,0,13,13,18,,,,,,,,,,,,,,,,,,,,,,,,,,,,,,,,,,,,,,,,,,,,,,,,,,,,,,,,,,,False,True,False,0.63,0.63,10.34,-19.16,12.7,-6.460000000000001,-3.2300000000000004,gamble,lose,-6.460000000000001,90.70833333333334,1151.065895372234,None,1151.065895372234,None,1151.065895372234,None,1151.065895372234,None,1151.065895372234,None,1151.065895372234,None,1151.065895372234,None,1,2.117839351631119,1151.065895372234,None,1153.216749607056,None,1153.216749607056,None,1153.216749607056,None,1153.216749607056,None,1153.216749607056,None,1153.216749607056,None,1153.216749607056,None,1157.2183232985699,None,1157.2183232985699,None,1157.2183232985699,None,1157.2183232985699,None,1157.2183232985699,None,1157.2183232985699,None,1157.2183232985699,None,1166.7053603427175,None,1158.2020296076716,None,1159.20239407181,None,0.76,7.502848836018529,1162.2035799402001,None,None,1162.2035799402001,None,,,,,,,,,24128,2019_Nov_08_1114,Mmi_3levels,3.1.5,59.96396562303688,
,,,2,0,5.1,,,,,,,,,0,1,1,1,0,14,14,15,,,,,,,,,,,,,,,,,,,,,,,,,,,,,,,,,,,,,,,,,,,,,,,,,,,,,,,,,,,False,True,True,0.76,0.76,11.1,-21.740000000000002,5.1,-16.64,-5.7700000000000005,certain,certain,-5.7700000000000005,84.93833333333335,1168.7228155830653,None,1168.7228155830653,None,1168.7228155830653,None,1168.7228155830653,None,1168.7228155830653,None,1168.7228155830653,None,1168.7228155830653,None,3,2.034363304508588,1168.7228155830653,None,1170.7902894466024,None,1170.7902894466024,None,1170.7902894466024,None,1170.7902894466024,None,1170.7902894466024,None,1170.7902894466024,None,1170.7902894466024,None,1174.7918608982127,None,1174.7918608982127,None,1174.7918608982127,None,1174.7918608982127,None,1174.7918608982127,None,1174.7918608982127,None,1174.7918608982127,None,1175.775572327093,None,,,,,,,,,,,,,,,,,,,,24128,2019_Nov_08_1114,Mmi_3levels,3.1.5,59.96396562303688,
,,,2,0,1.7,,,,,,,,,0,1,1,1,0,15,15,6,,,,,,,,,,,,,,,,,,,,,,,,,,,,,,,,,,,,,,,,,,,,,,,,,,,,,,,,,,,False,True,True,0.76,0.76,11.86,-22.5,1.7,-20.8,-9.55,gamble,lose,-20.8,64.13833333333335,1177.793031087287,None,1177.793031087287,None,1177.793031087287,None,1177.793031087287,None,1177.793031087287,None,1177.793031087287,None,1177.793031087287,None,None,,1177.793031087287,None,1180.7941507185606,None,1180.7941507185606,None,1180.7941507185606,None,1180.7941507185606,None,1180.7941507185606,None,1180.7941507185606,None,1180.7941507185606,None,1184.7790390562204,None,1184.7790390562204,None,1184.7790390562204,None,1184.7790390562204,None,1184.7790390562204,None,1184.7790390562204,None,1184.7790390562204,None,1194.282792172884,None,1185.779486396752,None,1186.7798809395808,None,0.61,7.502868675155696,1189.781039929143,None,None,1189.781039929143,None,,,,,,,,,24128,2019_Nov_08_1114,Mmi_3levels,3.1.5,59.96396562303688,
,,,2,0,6.7,,,,,,,,,0,1,1,1,0,16,16,14,,,,,,,,,,,,,,,,,,,,,,,,,,,,,,,,,,,,,,,,,,,,,,,,,,,,,,,,,,,False,False,True,0.61,0.61,12.469999999999999,3.1741666666666664,1.675,-1.4991666666666663,0.08791666666666687,gamble,win,1.675,65.81333333333335,1196.3002682123279,None,1196.3002682123279,None,1196.3002682123279,None,1196.3002682123279,None,1196.3002682123279,None,1196.3002682123279,None,1196.3002682123279,None,1,1.850963926050099,1196.3002682123279,None,1198.1843113387695,None,1198.1843113387695,None,1198.1843113387695,None,1198.1843113387695,None,1198.1843113387695,None,1198.1843113387695,None,1198.1843113387695,None,1202.1691731175852,None,1202.1691731175852,None,1202.1691731175852,None,1202.1691731175852,None,1202.1691731175852,None,1202.1691731175852,None,1202.1691731175852,None,1203.1696198181453,None,,,,,,,,,,,,,,,,,,,,24128,2019_Nov_08_1114,Mmi_3levels,3.1.5,59.96396562303688,
,,,2,0,13.9,,,,,,,,,0,1,1,1,0,17,17,0,,,,,,,,,,,,,,,,,,,,,,,,,,,,,,,,,,,,,,,,,,,,,,,,,,,,,,,,,,,False,True,True,0.61,0.61,13.079999999999998,-21.619999999999997,13.9,-7.719999999999997,-3.8599999999999985,gamble,lose,-7.719999999999997,58.09333333333335,1205.1871166566834,None,1205.1871166566834,None,1205.1871166566834,None,1205.1871166566834,None,1205.1871166566834,None,1205.1871166566834,None,1205.1871166566834,None,1,1.2340269351479947,1205.1871166566834,None,1206.4542519109564,None,1206.4542519109564,None,1206.4542519109564,None,1206.4542519109564,None,1206.4542519109564,None,1206.4542519109564,None,1206.4542519109564,None,1210.4390772113602,None,1210.4390772113602,None,1210.4390772113602,None,1210.4390772113602,None,1210.4390772113602,None,1210.4390772113602,None,1210.4390772113602,None,1211.4395264718078,None,,,,,,,,,,,,,,,,,,,,24128,2019_Nov_08_1114,Mmi_3levels,3.1.5,59.96396562303688,
,,,2,0,7.1,,,,,,,,,0,1,1,1,0,18,18,25,,,,,,,,,,,,,,,,,,,,,,,,,,,,,,,,,,,,,,,,,,,,,,,,,,,,,,,,,,,False,True,False,0.61,0.61,13.689999999999998,-22.229999999999997,7.1,-15.129999999999997,-4.014999999999999,certain,certain,-4.014999999999999,54.07833333333335,1213.4569266745511,None,1213.4569266745511,None,1213.4569266745511,None,1213.4569266745511,None,1213.4569266745511,None,1213.4569266745511,None,1213.4569266745511,None,3,2.668009328233893,1213.4569266745511,None,1216.1580382421762,None,1216.1580382421762,None,1216.1580382421762,None,1216.1580382421762,None,1216.1580382421762,None,1216.1580382421762,None,1216.1580382421762,None,1220.1595821749834,None,1220.1595821749834,None,1220.1595821749834,None,1220.1595821749834,None,1220.1595821749834,None,1220.1595821749834,None,1220.1595821749834,None,1229.6466492978216,None,1221.14331824279,None,1222.1437102257314,None,0.63,7.502896193958804,1225.1448349767816,None,None,1225.1448349767816,None,,,,,,,,,24128,2019_Nov_08_1114,Mmi_3levels,3.1.5,59.96396562303688,
,,,2,0,2.3,,,,,,,,,0,1,1,1,0,19,19,20,,,,,,,,,,,,,,,,,,,,,,,,,,,,,,,,,,,,,,,,,,,,,,,,,,,,,,,,,,,False,True,True,0.63,0.63,14.319999999999999,-23.14,2.3,-20.84,-9.27,certain,certain,-9.27,44.80833333333335,1231.6640536603845,None,1231.6640536603845,None,1231.6640536603845,None,1231.6640536603845,None,1231.6640536603845,None,1231.6640536603845,None,1231.6640536603845,None,3,1.8843659923913947,1231.6640536603845,None,1233.581505572878,None,1233.581505572878,None,1233.581505572878,None,1233.581505572878,None,1233.581505572878,None,1233.581505572878,None,1233.581505572878,None,1237.583087904015,None,1237.583087904015,None,1237.583087904015,None,1237.583087904015,None,1237.583087904015,None,1237.583087904015,None,1237.583087904015,None,1238.566754854828,None,,,,,,,,,,,,,,,,,,,,24128,2019_Nov_08_1114,Mmi_3levels,3.1.5,59.96396562303688,
,,,2,0,13.7,,,,,,,,,0,1,1,1,0,20,20,3,,,,,,,,,,,,,,,,,,,,,,,,,,,,,,,,,,,,,,,,,,,,,,,,,,,,,,,,,,,False,True,False,0.63,0.63,14.95,-23.77,13.7,-10.07,1.8149999999999995,gamble,lose,-10.07,34.73833333333335,1240.5842468935753,None,1240.5842468935753,None,1240.5842468935753,None,1240.5842468935753,None,1240.5842468935753,None,1240.5842468935753,None,1240.5842468935753,None,1,1.53419147198656,1240.5842468935753,None,1242.1515626839919,None,1242.1515626839919,None,1242.1515626839919,None,1242.1515626839919,None,1242.1515626839919,None,1242.1515626839919,None,1242.1515626839919,None,1246.1531376554485,None,1246.1531376554485,None,1246.1531376554485,None,1246.1531376554485,None,1246.1531376554485,None,1246.1531376554485,None,1246.1531376554485,None,1255.640121261922,None,1247.136827965247,None,1248.137212908494,None,0.65,7.502840196395482,1251.138378617763,None,None,1251.138378617763,None,,,,,,,,,24128,2019_Nov_08_1114,Mmi_3levels,3.1.5,59.96396562303688,
,,,2,0,6.9,,,,,,,,,0,1,1,1,0,21,21,11,,,,,,,,,,,,,,,,,,,,,,,,,,,,,,,,,,,,,,,,,,,,,,,,,,,,,,,,,,,False,False,False,0.65,0.65,15.6,3.575,1.725,-1.85,-0.0625,gamble,win,1.725,36.46333333333335,1257.657607860905,None,1257.657607860905,None,1257.657607860905,None,1257.657607860905,None,1257.657607860905,None,1257.657607860905,None,1257.657607860905,None,1,2.851323910383144,1257.657607860905,None,1260.5420311308044,None,1260.5420311308044,None,1260.5420311308044,None,1260.5420311308044,None,1260.5420311308044,None,1260.5420311308044,None,1260.5420311308044,None,1264.543637460898,None,1264.543637460898,None,1264.543637460898,None,1264.543637460898,None,1264.543637460898,None,1264.543637460898,None,1264.543637460898,None,1265.5273012118505,None,,,,,,,,,,,,,,,,,,,,24128,2019_Nov_08_1114,Mmi_3levels,3.1.5,59.96396562303688,
,,,2,0,12.3,,,,,,,,,0,1,1,1,0,22,22,13,,,,,,,,,,,,,,,,,,,,,,,,,,,,,,,,,,,,,,,,,,,,,,,,,,,,,,,,,,,False,True,False,0.65,0.65,16.25,-25.35,12.3,-13.05,-0.375,gamble,lose,-13.05,23.41333333333335,1267.5448537279663,None,1267.5448537279663,None,1267.5448537279663,None,1267.5448537279663,None,1267.5448537279663,None,1267.5448537279663,None,1267.5448537279663,None,1,1.0839477065946994,1267.5448537279663,None,1268.6619075137842,None,1268.6619075137842,None,1268.6619075137842,None,1268.6619075137842,None,1268.6619075137842,None,1268.6619075137842,None,1268.6619075137842,None,1272.663475445548,None,1272.663475445548,None,1272.663475445548,None,1272.663475445548,None,1272.663475445548,None,1272.663475445548,None,1272.663475445548,None,1282.1505153695707,None,1273.6471958340371,None,1274.647591336825,None,0.66,7.502815877453031,1277.6487500063995,None,None,1277.6487500063995,None,,,,,,,,,24128,2019_Nov_08_1114,Mmi_3levels,3.1.5,59.96396562303688,
,,,2,0,3.1,,,,,,,,,0,1,1,1,0,23,23,21,,,,,,,,,,,,,,,,,,,,,,,,,,,,,,,,,,,,,,,,,,,,,,,,,,,,,,,,,,,False,True,False,0.66,0.66,16.91,-26.15,3.1,-23.049999999999997,-9.974999999999998,certain,certain,-9.974999999999998,13.438333333333354,1284.1679802095005,None,1284.1679802095005,None,1284.1679802095005,None,1284.1679802095005,None,1284.1679802095005,None,1284.1679802095005,None,1284.1679802095005,None,3,1.6675693473825959,1284.1679802095005,None,1285.8686412367333,None,1285.8686412367333,None,1285.8686412367333,None,1285.8686412367333,None,1285.8686412367333,None,1285.8686412367333,None,1285.8686412367333,None,1289.870151251018,None,1289.870151251018,None,1289.870151251018,None,1289.870151251018,None,1289.870151251018,None,1289.870151251018,None,1289.870151251018,None,1290.8539276370684,None,,,,,,,,,,,,,,,,,,,,24128,2019_Nov_08_1114,Mmi_3levels,3.1.5,59.96396562303688,
,,,2,0,12.1,,,,,,,,,0,1,1,1,0,24,24,16,,,,,,,,,,,,,,,,,,,,,,,,,,,,,,,,,,,,,,,,,,,,,,,,,,,,,,,,,,,False,True,True,0.66,0.66,17.57,-26.810000000000002,12.1,-14.710000000000003,-1.3050000000000015,gamble,lose,-14.710000000000003,-1.2716666666666487,1292.871389597125,None,1292.871389597125,None,1292.871389597125,None,1292.871389597125,None,1292.871389597125,None,1292.871389597125,None,1292.871389597125,None,1,2.1844265337567776,1292.871389597125,None,1295.0889724479184,None,1295.0889724479184,None,1295.0889724479184,None,1295.0889724479184,None,1295.0889724479184,None,1295.0889724479184,None,1295.0889724479184,None,1299.0904751025228,None,1299.0904751025228,None,1299.0904751025228,None,1299.0904751025228,None,1299.0904751025228,None,1299.0904751025228,None,1299.0904751025228,None,1300.0741913311922,None,,,,,,,,,,,,,,,,,,,,24128,2019_Nov_08_1114,Mmi_3levels,3.1.5,59.96396562303688,
,,,2,0,9.7,,,,,,,,,0,1,1,1,0,25,25,7,,,,,,,,,,,,,,,,,,,,,,,,,,,,,,,,,,,,,,,,,,,,,,,,,,,,,,,,,,,False,True,False,0.66,0.66,18.23,-27.47,9.7,-17.77,-4.035,certain,certain,-4.035,-5.306666666666649,1302.0916536112345,None,1302.0916536112345,None,1302.0916536112345,None,1302.0916536112345,None,1302.0916536112345,None,1302.0916536112345,None,1302.0916536112345,None,3,1.8009731416495924,1302.0916536112345,None,1303.9256838742367,None,1303.9256838742367,None,1303.9256838742367,None,1303.9256838742367,None,1303.9256838742367,None,1303.9256838742367,None,1303.9256838742367,None,1307.9272662053754,None,1307.9272662053754,None,1307.9272662053754,None,1307.9272662053754,None,1307.9272662053754,None,1307.9272662053754,None,1307.9272662053754,None,1317.4143221287013,None,1308.9109920336268,None,1309.911383376595,None,0.64,7.502848836018529,1312.9125490858642,None,None,1312.9125490858642,None,,,,,,,,,24128,2019_Nov_08_1114,Mmi_3levels,3.1.5,59.96396562303688,
,,,2,0,0.3,,,,,,,,,0,1,1,1,0,26,26,12,,,,,,,,,,,,,,,,,,,,,,,,,,,,,,,,,,,,,,,,,,,,,,,,,,,,,,,,,,,False,False,False,0.64,0.64,18.87,3.8125,0.075,-3.7375,-1.8312499999999998,certain,certain,-1.8312499999999998,-7.137916666666649,1319.4317245713464,None,1319.4317245713464,None,1319.4317245713464,None,1319.4317245713464,None,1319.4317245713464,None,1319.4317245713464,None,1319.4317245713464,None,3,2.017559235822773,1319.4317245713464,None,1321.4825281203757,None,1321.4825281203757,None,1321.4825281203757,None,1321.4825281203757,None,1321.4825281203757,None,1321.4825281203757,None,1321.4825281203757,None,1325.4841421301335,None,1325.4841421301335,None,1325.4841421301335,None,1325.4841421301335,None,1325.4841421301335,None,1325.4841421301335,None,1325.4841421301335,None,1326.46785707886,None,,,,,,,,,,,,,,,,,,,,24128,2019_Nov_08_1114,Mmi_3levels,3.1.5,59.96396562303688,
,,,3,1,5.5,,,,,,,,,0,2,2,2,0,0,0,15,,,,,,,,,,,,,,,,,,,,,,,,,,,,,,,,,,,,,,,,,,,,,,,,1337.672210745388,None,0.76,7.502163105862564,1340.6733530956735,None,None,1340.6733530956735,None,1345.175158457103,None,True,False,True,0.76,-0.24,-0.24,-0.86,5.5,4.64,2.32,gamble,lose,4.64,-2.497916666666649,1348.2097079935083,None,1348.2097079935083,None,1348.2097079935083,None,1348.2097079935083,None,1348.2097079935083,None,1348.2097079935083,None,1348.2097079935083,None,1,0.9837319079870213,1348.2097079935083,None,1349.22670885363,None,1349.22670885363,None,1349.22670885363,None,1349.22670885363,None,1349.22670885363,None,1349.22670885363,None,1349.22670885363,None,1353.2116499889926,None,1353.2116499889926,None,1353.2116499889926,None,1353.2116499889926,None,1353.2116499889926,None,1353.2116499889926,None,1353.2116499889926,None,1362.7152955903366,None,1354.2120403720037,None,1355.2124329949165,None,0.68,7.503528166454998,1358.2135452665098,None,None,1358.2135452665098,None,1328.4685786474565,None,4,9.187174574162782,1328.4685786474565,None,,,24128,2019_Nov_08_1114,Mmi_3levels,3.1.5,59.96396562303688,
,,,3,1,0.3,,,,,,,,,0,2,2,2,0,1,1,17,,,,,,,,,,,,,,,,,,,,,,,,,,,,,,,,,,,,,,,,,,,,,,,,,,,,,,,,,,,True,False,False,0.68,-0.31999999999999995,-0.5599999999999999,-1.1666666666666665,0.3,-0.8666666666666665,-0.2833333333333332,gamble,lose,-0.8666666666666665,-3.3645833333333153,1364.7328327471187,None,1364.7328327471187,None,1364.7328327471187,None,1364.7328327471187,None,1364.7328327471187,None,1364.7328327471187,None,1364.7328327471187,None,1,1.750924759753616,1364.7328327471187,None,1366.5168578263474,None,1366.5168578263474,None,1366.5168578263474,None,1366.5168578263474,None,1366.5168578263474,None,1366.5168578263474,None,1366.5168578263474,None,1370.5183729604087,None,1370.5183729604087,None,1370.5183729604087,None,1370.5183729604087,None,1370.5183729604087,None,1370.5183729604087,None,1370.5183729604087,None,1371.5021375069755,None,,,,,,,,,,,,,,,,,,,,24128,2019_Nov_08_1114,Mmi_3levels,3.1.5,59.96396562303688,
,,,3,1,8.7,,,,,,,,,0,2,2,2,0,2,2,16,,,,,,,,,,,,,,,,,,,,,,,,,,,,,,,,,,,,,,,,,,,,,,,,,,,,,,,,,,,True,True,False,0.68,-0.31999999999999995,-0.8799999999999999,5.359999999999999,8.7,3.34,1.67,gamble,win,8.7,5.335416666666684,1373.5195997870178,None,1373.5195997870178,None,1373.5195997870178,None,1373.5195997870178,None,1373.5195997870178,None,1373.5195997870178,None,1373.5195997870178,None,1,1.0673602684801153,1373.5195997870178,None,1374.6200712544996,None,1374.6200712544996,None,1374.6200712544996,None,1374.6200712544996,None,1374.6200712544996,None,1374.6200712544996,None,1374.6200712544996,None,1378.6049483926454,None,1378.6049483926454,None,1378.6049483926454,None,1378.6049483926454,None,1378.6049483926454,None,1378.6049483926454,None,1378.6049483926454,None,1379.6053070970356,None,,,,,,,,,,,,,,,,,,,,24128,2019_Nov_08_1114,Mmi_3levels,3.1.5,59.96396562303688,
,,,3,1,1.1,,,,,,,,,0,2,2,2,0,3,3,10,,,,,,,,,,,,,,,,,,,,,,,,,,,,,,,,,,,,,,,,,,,,,,,,,,,,,,,,,,,True,True,False,0.68,-0.31999999999999995,-1.1999999999999997,5.68,1.1,-4.58,-1.74,certain,certain,-1.74,3.595416666666684,1381.6227690570904,None,1381.6227690570904,None,1381.6227690570904,None,1381.6227690570904,None,1381.6227690570904,None,1381.6227690570904,None,1381.6227690570904,None,3,2.734667227281534,1381.6227690570904,None,1384.390521564501,None,1384.390521564501,None,1384.390521564501,None,1384.390521564501,None,1384.390521564501,None,1384.390521564501,None,1384.390521564501,None,1388.3754070222858,None,1388.3754070222858,None,1388.3754070222858,None,1388.3754070222858,None,1388.3754070222858,None,1388.3754070222858,None,1388.3754070222858,None,1397.8791342200784,None,1389.3758025250736,None,1390.3761426702713,None,0.71,7.502906113526478,1393.3773637371305,None,None,1393.3773637371305,None,,,,,,,,,24128,2019_Nov_08_1114,Mmi_3levels,3.1.5,59.96396562303688,
,,,3,1,9.7,,,,,,,,,0,2,2,2,0,4,4,13,,,,,,,,,,,,,,,,,,,,,,,,,,,,,,,,,,,,,,,,,,,,,,,,,,,,,,,,,,,True,True,True,0.71,-0.29000000000000004,-1.4899999999999998,5.550000000000001,9.7,4.149999999999999,2.0749999999999993,gamble,win,9.7,13.295416666666682,1399.8965878604959,None,1399.8965878604959,None,1399.8965878604959,None,1399.8965878604959,None,1399.8965878604959,None,1399.8965878604959,None,1399.8965878604959,None,1,1.0673589885373076,1399.8965878604959,None,1400.9970727673935,None,1400.9970727673935,None,1400.9970727673935,None,1400.9970727673935,None,1400.9970727673935,None,1400.9970727673935,None,1400.9970727673935,None,1404.9819041475312,None,1404.9819041475312,None,1404.9819041475312,None,1404.9819041475312,None,1404.9819041475312,None,1404.9819041475312,None,1404.9819041475312,None,1405.982323649274,None,,,,,,,,,,,,,,,,,,,,24128,2019_Nov_08_1114,Mmi_3levels,3.1.5,59.96396562303688,
,,,3,1,5.1,,,,,,,,,0,2,2,2,0,5,5,5,,,,,,,,,,,,,,,,,,,,,,,,,,,,,,,,,,,,,,,,,,,,,,,,,,,,,,,,,,,True,True,False,0.71,-0.29000000000000004,-1.7799999999999998,5.84,5.1,-0.7400000000000002,-0.3700000000000001,gamble,win,5.1,18.395416666666684,1407.9997568105828,None,1407.9997568105828,None,1407.9997568105828,None,1407.9997568105828,None,1407.9997568105828,None,1407.9997568105828,None,1407.9997568105828,None,1,1.5175195575484395,1407.9997568105828,None,1409.5504205256984,None,1409.5504205256984,None,1409.5504205256984,None,1409.5504205256984,None,1409.5504205256984,None,1409.5504205256984,None,1409.5504205256984,None,1413.535225986965,None,1413.535225986965,None,1413.535225986965,None,1413.535225986965,None,1413.535225986965,None,1413.535225986965,None,1413.535225986965,None,1423.0389755837823,None,1414.53564132889,None,1415.5359856339055,None,0.71,7.502733641031227,1418.5371622226994,None,None,1418.5371622226994,None,,,,,,,,,24128,2019_Nov_08_1114,Mmi_3levels,3.1.5,59.96396562303688,
,,,3,1,2.1,,,,,,,,,0,2,2,2,0,6,6,0,,,,,,,,,,,,,,,,,,,,,,,,,,,,,,,,,,,,,,,,,,,,,,,,,,,,,,,,,,,True,False,True,0.71,-0.29000000000000004,-2.07,-1.1875,2.1,0.9125000000000001,1.50625,gamble,lose,0.9125000000000001,19.307916666666685,1425.0563780264274,None,1425.0563780264274,None,1425.0563780264274,None,1425.0563780264274,None,1425.0563780264274,None,1425.0563780264274,None,1425.0563780264274,None,1,1.6342127190619067,1425.0563780264274,None,1426.7236961847411,None,1426.7236961847411,None,1426.7236961847411,None,1426.7236961847411,None,1426.7236961847411,None,1426.7236961847411,None,1426.7236961847411,None,1430.7086354001876,None,1430.7086354001876,None,1430.7086354001876,None,1430.7086354001876,None,1430.7086354001876,None,1430.7086354001876,None,1430.7086354001876,None,1431.7090200234488,None,,,,,,,,,,,,,,,,,,,,24128,2019_Nov_08_1114,Mmi_3levels,3.1.5,59.96396562303688,
,,,3,1,3.3,,,,,,,,,0,2,2,2,0,7,7,8,,,,,,,,,,,,,,,,,,,,,,,,,,,,,,,,,,,,,,,,,,,,,,,,,,,,,,,,,,,True,True,True,0.71,-0.29000000000000004,-2.36,6.42,3.3,-3.12,0.08999999999999986,gamble,win,3.3,22.607916666666686,1433.7264375054401,None,1433.7264375054401,None,1433.7264375054401,None,1433.7264375054401,None,1433.7264375054401,None,1433.7264375054401,None,1433.7264375054401,None,1,1.0838952288795554,1433.7264375054401,None,1434.8435946467616,None,1434.8435946467616,None,1434.8435946467616,None,1434.8435946467616,None,1434.8435946467616,None,1434.8435946467616,None,1434.8435946467616,None,1438.8284273068439,None,1438.8284273068439,None,1438.8284273068439,None,1438.8284273068439,None,1438.8284273068439,None,1438.8284273068439,None,1438.8284273068439,None,1448.3321957828393,None,1439.8288743273897,None,1440.82924839111,None,0.71,7.502806917842463,1443.8304272198075,None,None,1443.8304272198075,None,,,,,,,,,24128,2019_Nov_08_1114,Mmi_3levels,3.1.5,59.96396562303688,
,,,3,1,9.3,,,,,,,,,0,2,2,2,0,8,8,3,,,,,,,,,,,,,,,,,,,,,,,,,,,,,,,,,,,,,,,,,,,,,,,,,,,,,,,,,,,True,True,True,0.71,-0.29000000000000004,-2.65,6.710000000000001,9.3,2.59,1.295,gamble,win,9.3,31.907916666666686,1450.349656782937,None,1450.349656782937,None,1450.349656782937,None,1450.349656782937,None,1450.349656782937,None,1450.349656782937,None,1450.349656782937,None,1,0.7671717326866201,1450.349656782937,None,1451.149940354595,None,1451.149940354595,None,1451.149940354595,None,1451.149940354595,None,1451.149940354595,None,1451.149940354595,None,1451.149940354595,None,1455.1348555710847,None,1455.1348555710847,None,1455.1348555710847,None,1455.1348555710847,None,1455.1348555710847,None,1455.1348555710847,None,1455.1348555710847,None,1456.1352481939975,None,,,,,,,,,,,,,,,,,,,,24128,2019_Nov_08_1114,Mmi_3levels,3.1.5,59.96396562303688,
,,,3,1,-0.1,,,,,,,,,0,2,2,2,0,9,9,6,,,,,,,,,,,,,,,,,,,,,,,,,,,,,,,,,,,,,,,,,,,,,,,,,,,,,,,,,,,True,True,False,0.71,-0.29000000000000004,-2.94,7.0,-0.1,-7.1,-3.5999999999999996,gamble,win,-0.1,31.807916666666685,1458.1527165537755,None,1458.1527165537755,None,1458.1527165537755,None,1458.1527165537755,None,1458.1527165537755,None,1458.1527165537755,None,1458.1527165537755,None,1,1.7342672446902725,1458.1527165537755,None,1459.920079318148,None,1459.920079318148,None,1459.920079318148,None,1459.920079318148,None,1459.920079318148,None,1459.920079318148,None,1459.920079318148,None,1463.921643410078,None,1463.921643410078,None,1463.921643410078,None,1463.921643410078,None,1463.921643410078,None,1463.921643410078,None,1463.921643410078,None,1464.9053557989155,None,,,,,,,,,,,,,,,,,,,,24128,2019_Nov_08_1114,Mmi_3levels,3.1.5,59.96396562303688,
,,,3,1,4.3,,,,,,,,,0,2,2,2,0,10,10,4,,,,,,,,,,,,,,,,,,,,,,,,,,,,,,,,,,,,,,,,,,,,,,,,,,,,,,,,,,,True,True,True,0.71,-0.29000000000000004,-3.23,7.290000000000001,4.3,-2.990000000000001,0.6549999999999994,gamble,win,4.3,36.10791666666668,1466.922809439333,None,1466.922809439333,None,1466.922809439333,None,1466.922809439333,None,1466.922809439333,None,1466.922809439333,None,1466.922809439333,None,1,1.0173042069218354,1466.922809439333,None,1467.9732123657977,None,1467.9732123657977,None,1467.9732123657977,None,1467.9732123657977,None,1467.9732123657977,None,1467.9732123657977,None,1467.9732123657977,None,1471.974725579943,None,1471.974725579943,None,1471.974725579943,None,1471.974725579943,None,1471.974725579943,None,1471.974725579943,None,1471.974725579943,None,1481.461813821863,None,1472.9584482083337,None,1473.9588888291582,None,0.81,7.502788358649923,1476.960003340655,None,None,1476.960003340655,None,,,,,,,,,24128,2019_Nov_08_1114,Mmi_3levels,3.1.5,59.96396562303688,
,,,3,1,7.7,,,,,,,,,0,2,2,2,0,11,11,20,,,,,,,,,,,,,,,,,,,,,,,,,,,,,,,,,,,,,,,,,,,,,,,,,,,,,,,,,,,True,False,False,0.81,-0.18999999999999995,-3.42,-0.9499999999999997,7.7,6.75,3.375,gamble,lose,6.75,42.85791666666668,1483.479350018686,None,1483.479350018686,None,1483.479350018686,None,1483.479350018686,None,1483.479350018686,None,1483.479350018686,None,1483.479350018686,None,1,1.3173756278119981,1483.479350018686,None,1484.8298093266985,None,1484.8298093266985,None,1484.8298093266985,None,1484.8298093266985,None,1484.8298093266985,None,1484.8298093266985,None,1484.8298093266985,None,1488.814676225291,None,1488.814676225291,None,1488.814676225291,None,1488.814676225291,None,1488.814676225291,None,1488.814676225291,None,1488.814676225291,None,1489.815094447089,None,,,,,,,,,,,,,,,,,,,,24128,2019_Nov_08_1114,Mmi_3levels,3.1.5,59.96396562303688,
,,,3,1,7.3,,,,,,,,,0,2,2,2,0,12,12,24,,,,,,,,,,,,,,,,,,,,,,,,,,,,,,,,,,,,,,,,,,,,,,,,,,,,,,,,,,,True,False,False,0.81,-0.18999999999999995,-3.61,-0.9658333333333331,7.3,6.3341666666666665,3.1670833333333333,gamble,lose,6.3341666666666665,49.19208333333335,1491.8324773705845,None,1491.8324773705845,None,1491.8324773705845,None,1491.8324773705845,None,1491.8324773705845,None,1491.8324773705845,None,1491.8324773705845,None,1,1.0341396342446387,1491.8324773705845,None,1492.899585810026,None,1492.899585810026,None,1492.899585810026,None,1492.899585810026,None,1492.899585810026,None,1492.899585810026,None,1492.899585810026,None,1496.8845215056244,None,1496.8845215056244,None,1496.8845215056244,None,1496.8845215056244,None,1496.8845215056244,None,1496.8845215056244,None,1496.8845215056244,None,1506.3882387838476,None,1497.8849275679513,None,1498.8852757128006,None,0.76,7.502867715196771,1501.886495819701,None,None,1501.886495819701,None,,,,,,,,,24128,2019_Nov_08_1114,Mmi_3levels,3.1.5,59.96396562303688,
,,,3,1,13.5,,,,,,,,,0,2,2,2,0,13,13,22,,,,,,,,,,,,,,,,,,,,,,,,,,,,,,,,,,,,,,,,,,,,,,,,,,,,,,,,,,,True,True,True,0.76,-0.24,-3.8499999999999996,7.209999999999999,13.5,6.290000000000001,3.1450000000000005,gamble,win,13.5,62.69208333333335,1508.4056956241257,None,1508.4056956241257,None,1508.4056956241257,None,1508.4056956241257,None,1508.4056956241257,None,1508.4056956241257,None,1508.4056956241257,None,1,0.93388831718039,1508.4056956241257,None,1509.3726973802095,None,1509.3726973802095,None,1509.3726973802095,None,1509.3726973802095,None,1509.3726973802095,None,1509.3726973802095,None,1509.3726973802095,None,1513.357641395447,None,1513.357641395447,None,1513.357641395447,None,1513.357641395447,None,1513.357641395447,None,1513.357641395447,None,1513.357641395447,None,1514.3580343383455,None,,,,,,,,,,,,,,,,,,,,24128,2019_Nov_08_1114,Mmi_3levels,3.1.5,59.96396562303688,
,,,3,1,12.9,,,,,,,,,0,2,2,2,0,14,14,26,,,,,,,,,,,,,,,,,,,,,,,,,,,,,,,,,,,,,,,,,,,,,,,,,,,,,,,,,,,True,False,False,0.76,-0.24,-4.09,-1.1808333333333332,12.9,11.719166666666666,5.859583333333333,gamble,lose,11.719166666666666,74.41125000000002,1516.3754876587773,None,1516.3754876587773,None,1516.3754876587773,None,1516.3754876587773,None,1516.3754876587773,None,1516.3754876587773,None,1516.3754876587773,None,1,1.4174816711984022,1516.3754876587773,None,1517.826052370201,None,1517.826052370201,None,1517.826052370201,None,1517.826052370201,None,1517.826052370201,None,1517.826052370201,None,1517.826052370201,None,1521.8109352680967,None,1521.8109352680967,None,1521.8109352680967,None,1521.8109352680967,None,1521.8109352680967,None,1521.8109352680967,None,1521.8109352680967,None,1522.8113352506898,None,,,,,,,,,,,,,,,,,,,,24128,2019_Nov_08_1114,Mmi_3levels,3.1.5,59.96396562303688,
,,,3,1,11.7,,,,,,,,,0,2,2,2,0,15,15,18,,,,,,,,,,,,,,,,,,,,,,,,,,,,,,,,,,,,,,,,,,,,,,,,,,,,,,,,,,,True,True,True,0.76,-0.24,-4.33,7.6899999999999995,11.7,4.01,2.005,gamble,win,11.7,86.11125000000003,1524.8287984906892,None,1524.8287984906892,None,1524.8287984906892,None,1524.8287984906892,None,1524.8287984906892,None,1524.8287984906892,None,1524.8287984906892,None,1,1.0673321097074222,1524.8287984906892,None,1525.929228039995,None,1525.929228039995,None,1525.929228039995,None,1525.929228039995,None,1525.929228039995,None,1525.929228039995,None,1525.929228039995,None,1529.9140645399111,None,1529.9140645399111,None,1529.9140645399111,None,1529.9140645399111,None,1529.9140645399111,None,1529.9140645399111,None,1529.9140645399111,None,1539.4178410155582,None,1530.914509640541,None,1531.914919222716,None,0.74,7.502786758721413,1534.9160628529444,None,None,1534.9160628529444,None,,,,,,,,,24128,2019_Nov_08_1114,Mmi_3levels,3.1.5,59.96396562303688,
,,,3,1,8.3,,,,,,,,,0,2,2,2,0,16,16,25,,,,,,,,,,,,,,,,,,,,,,,,,,,,,,,,,,,,,,,,,,,,,,,,,,,,,,,,,,,True,False,False,0.74,-0.26,-4.59,-1.2925,8.3,7.0075,3.50375,gamble,lose,7.0075,93.11875000000003,1541.4352898561847,None,1541.4352898561847,None,1541.4352898561847,None,1541.4352898561847,None,1541.4352898561847,None,1541.4352898561847,None,1541.4352898561847,None,1,0.950629348611983,1541.4352898561847,None,1542.419012804563,None,1542.419012804563,None,1542.419012804563,None,1542.419012804563,None,1542.419012804563,None,1542.419012804563,None,1542.419012804563,None,1546.403870423559,None,1546.403870423559,None,1546.403870423559,None,1546.403870423559,None,1546.403870423559,None,1546.403870423559,None,1546.403870423559,None,1547.4042908852607,None,,,,,,,,,,,,,,,,,,,,24128,2019_Nov_08_1114,Mmi_3levels,3.1.5,59.96396562303688,
,,,3,1,1.7,,,,,,,,,0,2,2,2,0,17,17,14,,,,,,,,,,,,,,,,,,,,,,,,,,,,,,,,,,,,,,,,,,,,,,,,,,,,,,,,,,,True,True,True,0.74,-0.26,-4.85,8.49,1.7,-6.79,-2.545,gamble,win,1.7,94.81875000000004,1549.4216968477522,None,1549.4216968477522,None,1549.4216968477522,None,1549.4216968477522,None,1549.4216968477522,None,1549.4216968477522,None,1549.4216968477522,None,1,0.917314958453062,1549.4216968477522,None,1550.3721390045102,None,1550.3721390045102,None,1550.3721390045102,None,1550.3721390045102,None,1550.3721390045102,None,1550.3721390045102,None,1550.3721390045102,None,1554.3570148627132,None,1554.3570148627132,None,1554.3570148627132,None,1554.3570148627132,None,1554.3570148627132,None,1554.3570148627132,None,1554.3570148627132,None,1563.860726701174,None,1555.3573966060994,None,1556.3578029884138,None,0.72,7.5029864300304325,1559.3589594180867,None,None,1559.3589594180867,None,,,,,,,,,24128,2019_Nov_08_1114,Mmi_3levels,3.1.5,59.96396562303688,
,,,3,1,9.1,,,,,,,,,0,2,2,2,0,18,18,21,,,,,,,,,,,,,,,,,,,,,,,,,,,,,,,,,,,,,,,,,,,,,,,,,,,,,,,,,,,True,True,True,0.72,-0.28,-5.13,9.05,9.1,0.049999999999998934,0.024999999999999467,gamble,win,9.1,103.91875000000003,1565.8781880212573,None,1565.8781880212573,None,1565.8781880212573,None,1565.8781880212573,None,1565.8781880212573,None,1565.8781880212573,None,1565.8781880212573,None,1,0.633866174142895,1565.8781880212573,None,1566.5451170765045,None,1566.5451170765045,None,1566.5451170765045,None,1566.5451170765045,None,1566.5451170765045,None,1566.5451170765045,None,1566.5451170765045,None,1570.546652049703,None,1570.546652049703,None,1570.546652049703,None,1570.546652049703,None,1570.546652049703,None,1570.546652049703,None,1570.546652049703,None,1571.530401236938,None,,,,,,,,,,,,,,,,,,,,24128,2019_Nov_08_1114,Mmi_3levels,3.1.5,59.96396562303688,
,,,3,1,-1.5,,,,,,,,,0,2,2,2,0,19,19,1,,,,,,,,,,,,,,,,,,,,,,,,,,,,,,,,,,,,,,,,,,,,,,,,,,,,,,,,,,,True,True,True,0.72,-0.28,-5.41,9.33,-1.5,-10.83,-6.165,gamble,win,-1.5,102.41875000000003,1573.5478567972714,None,1573.5478567972714,None,1573.5478567972714,None,1573.5478567972714,None,1573.5478567972714,None,1573.5478567972714,None,1573.5478567972714,None,1,2.0508569867051847,1573.5478567972714,None,1575.6320089749697,None,1575.6320089749697,None,1575.6320089749697,None,1575.6320089749697,None,1575.6320089749697,None,1575.6320089749697,None,1575.6320089749697,None,1579.633516429365,None,1579.633516429365,None,1579.633516429365,None,1579.633516429365,None,1579.633516429365,None,1579.633516429365,None,1579.633516429365,None,1589.120586752064,None,1580.6172899355424,None,1581.617608321685,None,0.73,7.502151906348445,1584.618840268071,None,None,1584.618840268071,None,,,,,,,,,24128,2019_Nov_08_1114,Mmi_3levels,3.1.5,59.96396562303688,
,,,3,1,6.1,,,,,,,,,0,2,2,2,0,20,20,11,,,,,,,,,,,,,,,,,,,,,,,,,,,,,,,,,,,,,,,,,,,,,,,,,,,,,,,,,,,True,True,False,0.73,-0.27,-5.68,9.46,6.1,-3.360000000000001,1.3699999999999992,certain,certain,1.3699999999999992,103.78875000000004,1591.1380109537622,None,1591.1380109537622,None,1591.1380109537622,None,1591.1380109537622,None,1591.1380109537622,None,1591.1380109537622,None,1591.1380109537622,None,3,1.9510610098259349,1591.1380109537622,None,1593.122147004162,None,1593.122147004162,None,1593.122147004162,None,1593.122147004162,None,1593.122147004162,None,1593.122147004162,None,1593.122147004162,None,1597.1070135827686,None,1597.1070135827686,None,1597.1070135827686,None,1597.1070135827686,None,1597.1070135827686,None,1597.1070135827686,None,1597.1070135827686,None,1598.1074593233698,None,,,,,,,,,,,,,,,,,,,,24128,2019_Nov_08_1114,Mmi_3levels,3.1.5,59.96396562303688,
,,,3,1,12.7,,,,,,,,,0,2,2,2,0,21,21,12,,,,,,,,,,,,,,,,,,,,,,,,,,,,,,,,,,,,,,,,,,,,,,,,,,,,,,,,,,,True,True,True,0.73,-0.27,-5.949999999999999,9.73,12.7,2.969999999999999,1.4849999999999994,gamble,win,12.7,116.48875000000004,1600.1249212834264,None,1600.1249212834264,None,1600.1249212834264,None,1600.1249212834264,None,1600.1249212834264,None,1600.1249212834264,None,1600.1249212834264,None,1,1.6342296783241181,1600.1249212834264,None,1601.7922391217526,None,1601.7922391217526,None,1601.7922391217526,None,1601.7922391217526,None,1601.7922391217526,None,1601.7922391217526,None,1601.7922391217526,None,1605.777123939566,None,1605.777123939566,None,1605.777123939566,None,1605.777123939566,None,1605.777123939566,None,1605.777123939566,None,1605.777123939566,None,1606.7775344817,None,,,,,,,,,,,,,,,,,,,,24128,2019_Nov_08_1114,Mmi_3levels,3.1.5,59.96396562303688,
,,,3,1,-0.9,,,,,,,,,0,2,2,2,0,22,22,19,,,,,,,,,,,,,,,,,,,,,,,,,,,,,,,,,,,,,,,,,,,,,,,,,,,,,,,,,,,True,True,False,0.73,-0.27,-6.219999999999999,10.0,-0.9,-10.9,-5.9,gamble,win,-0.9,115.58875000000003,1608.7949804424516,None,1608.7949804424516,None,1608.7949804424516,None,1608.7949804424516,None,1608.7949804424516,None,1608.7949804424516,None,1608.7949804424516,None,1,1.9510037323179859,1608.7949804424516,None,1610.7791088131835,None,1610.7791088131835,None,1610.7791088131835,None,1610.7791088131835,None,1610.7791088131835,None,1610.7791088131835,None,1610.7791088131835,None,1614.7806597856852,None,1614.7806597856852,None,1614.7806597856852,None,1614.7806597856852,None,1614.7806597856852,None,1614.7806597856852,None,1614.7806597856852,None,1624.267698429765,None,1615.7643705745922,None,1616.7647609576034,None,0.68,7.502854915754142,1619.765871949252,None,None,1619.765871949252,None,,,,,,,,,24128,2019_Nov_08_1114,Mmi_3levels,3.1.5,59.96396562303688,
,,,3,1,8.1,,,,,,,,,0,2,2,2,0,23,23,2,,,,,,,,,,,,,,,,,,,,,,,,,,,,,,,,,,,,,,,,,,,,,,,,,,,,,,,,,,,True,True,True,0.68,-0.31999999999999995,-6.539999999999999,11.02,8.1,-2.92,-1.46,gamble,win,8.1,123.68875000000003,1626.2851047122422,None,1626.2851047122422,None,1626.2851047122422,None,1626.2851047122422,None,1626.2851047122422,None,1626.2851047122422,None,1626.2851047122422,None,1,0.8006048376773833,1626.2851047122422,None,1627.1188137092267,None,1627.1188137092267,None,1627.1188137092267,None,1627.1188137092267,None,1627.1188137092267,None,1627.1188137092267,None,1627.1188137092267,None,1631.1203515623001,None,1631.1203515623001,None,1631.1203515623001,None,1631.1203515623001,None,1631.1203515623001,None,1631.1203515623001,None,1631.1203515623001,None,1632.1040754706355,None,,,,,,,,,,,,,,,,,,,,24128,2019_Nov_08_1114,Mmi_3levels,3.1.5,59.96396562303688,
,,,3,1,2.5,,,,,,,,,0,2,2,2,0,24,24,23,,,,,,,,,,,,,,,,,,,,,,,,,,,,,,,,,,,,,,,,,,,,,,,,,,,,,,,,,,,True,False,True,0.68,-0.31999999999999995,-6.859999999999999,-1.6916666666666664,2.5,0.8083333333333336,1.6541666666666668,gamble,lose,0.8083333333333336,124.49708333333336,1634.121529111053,None,1634.121529111053,None,1634.121529111053,None,1634.121529111053,None,1634.121529111053,None,1634.121529111053,None,1634.121529111053,None,1,1.2007515832901845,1634.121529111053,None,1635.355431891603,None,1635.355431891603,None,1635.355431891603,None,1635.355431891603,None,1635.355431891603,None,1635.355431891603,None,1635.355431891603,None,1639.356934866195,None,1639.356934866195,None,1639.356934866195,None,1639.356934866195,None,1639.356934866195,None,1639.356934866195,None,1639.356934866195,None,1648.8439741502443,None,1640.3405995771063,None,1641.341037318056,None,0.72,7.502818117354764,1644.3422011074072,None,None,1644.3422011074072,None,,,,,,,,,24128,2019_Nov_08_1114,Mmi_3levels,3.1.5,59.96396562303688,
,,,3,1,10.9,,,,,,,,,0,2,2,2,0,25,25,9,,,,,,,,,,,,,,,,,,,,,,,,,,,,,,,,,,,,,,,,,,,,,,,,,,,,,,,,,,,True,False,True,0.72,-0.28,-7.14,-1.5750000000000002,10.9,9.325,4.6625,gamble,lose,9.325,133.82208333333335,1650.8613765928912,None,1650.8613765928912,None,1650.8613765928912,None,1650.8613765928912,None,1650.8613765928912,None,1650.8613765928912,None,1650.8613765928912,None,1,0.8673238540668535,1650.8613765928912,None,1651.7617799673353,None,1651.7617799673353,None,1651.7617799673353,None,1651.7617799673353,None,1651.7617799673353,None,1651.7617799673353,None,1651.7617799673353,None,1655.7633574986812,None,1655.7633574986812,None,1655.7633574986812,None,1655.7633574986812,None,1655.7633574986812,None,1655.7633574986812,None,1655.7633574986812,None,1656.747071487449,None,,,,,,,,,,,,,,,,,,,,24128,2019_Nov_08_1114,Mmi_3levels,3.1.5,59.96396562303688,
,,,3,1,-0.3,,,,,,,,,0,2,2,2,0,26,26,7,,,,,,,,,,,,,,,,,,,,,,,,,,,,,,,,,,,,,,,,,,,,,,,,,,,,,,,,,,,True,False,False,0.72,-0.28,-7.42,-1.5983333333333334,-0.3,-1.8983333333333334,-1.0991666666666666,certain,certain,-1.0991666666666666,132.7229166666667,1658.764531207602,None,1658.764531207602,None,1658.764531207602,None,1658.764531207602,None,1658.764531207602,None,1658.764531207602,None,1658.764531207602,None,3,2.084403686751102,1658.764531207602,None,1660.8820211344391,None,1660.8820211344391,None,1660.8820211344391,None,1660.8820211344391,None,1660.8820211344391,None,1660.8820211344391,None,1660.8820211344391,None,1664.883532748654,None,1664.883532748654,None,1664.883532748654,None,1664.883532748654,None,1664.883532748654,None,1664.883532748654,None,1664.883532748654,None,1674.3705944317298,None,1665.8673049748868,None,1666.8676432001685,None,0.68,7.502946111786514,1669.8688546674439,None,None,1669.8688546674439,None,,,,,,,,,24128,2019_Nov_08_1114,Mmi_3levels,3.1.5,59.96396562303688,
,,,,,,,,,,,,,,,,,,,,,,,,,,,,,,,,,,,,,,,,,,,,,,,,,,,,,,,,,,,,,,,,,,,,,,,,,,,,,,,,,,,,,,,,,,,,,,,,,,,,,,,,,,,,,,,,,,,,,,,,,,,,,,,,,,,,,,,,,,,,,,,,,,,,,,,,,1676.3713547186417,None,4,8.737009845332068,1676.3713547186417,None,132.7229166666667,4,,,,,,
