currSlide,currImage,currText,blockNum,targetHappiness,highAmount,instructionLoop1.thisRepN,instructionLoop1.thisTrialN,instructionLoop1.thisN,instructionLoop1.thisIndex,instructionLoop2.thisRepN,instructionLoop2.thisTrialN,instructionLoop2.thisN,instructionLoop2.thisIndex,blockLoop.thisRepN,blockLoop.thisTrialN,blockLoop.thisN,blockLoop.thisIndex,trialLoop.thisRepN,trialLoop.thisTrialN,trialLoop.thisN,trialLoop.thisIndex,doRatingLoop.thisRepN,doRatingLoop.thisTrialN,doRatingLoop.thisN,doRatingLoop.thisIndex,trialHappyLoop.thisRepN,trialHappyLoop.thisTrialN,trialHappyLoop.thisN,trialHappyLoop.thisIndex,logWinningsLoop.thisRepN,logWinningsLoop.thisTrialN,logWinningsLoop.thisN,logWinningsLoop.thisIndex,instrImage.started,instrImage.stopped,instrText.started,instrText.stopped,instrContinueText.started,instrContinueText.stopped,instrKeyResp.keys,instrKeyResp.rt,instrKeyResp.started,instrKeyResp.stopped,lifeHappyText.started,lifeHappyText.stopped,lifeHappySlider.response,lifeHappySlider.rt,lifeHappySlider.started,lifeHappySlider.stopped,lifeHappyResp.keys,lifeHappyResp.started,lifeHappyResp.stopped,instrImage_2.started,instrImage_2.stopped,instrText_2.started,instrText_2.stopped,instrContinueText_2.started,instrContinueText_2.stopped,instrKeyResp_2.keys,instrKeyResp_2.rt,instrKeyResp_2.started,instrKeyResp_2.stopped,localizing.started,localizing.stopped,start_exp.keys,start_exp.rt,start_exp.started,start_exp.stopped,blockHappyText.started,blockHappyText.stopped,blockHappySlider.response,blockHappySlider.rt,blockHappySlider.started,blockHappySlider.stopped,blockHappyResp.keys,blockHappyResp.started,blockHappyResp.stopped,blankText.started,blankText.stopped,isHappyBlock,isCongruent,isWinOnTop,lastHappyRating,diff,sumDiff,RPE,winAmount,loseAmount,certainAmount,choice,outcome,outcomeAmount,currentWinnings,fixCross.started,fixCross.stopped,certainBox.started,certainBox.stopped,outcome1Box.started,outcome1Box.stopped,outcome2Box.started,outcome2Box.stopped,certainText.started,certainText.stopped,outcome1Text.started,outcome1Text.stopped,outcome2Text.started,outcome2Text.stopped,choiceKey.keys,choiceKey.started,choiceKey.stopped,fixCross_2.started,fixCross_2.stopped,certainBox_2.started,certainBox_2.stopped,outcome1Box_2.started,outcome1Box_2.stopped,outcome2Box_2.started,outcome2Box_2.stopped,certainText_2.started,certainText_2.stopped,outcome1Text_2.started,outcome1Text_2.stopped,outcome2Text_2.started,outcome2Text_2.stopped,fixCross_3.started,fixCross_3.stopped,certainBox_3.started,certainBox_3.stopped,outcome1Box_3.started,outcome1Box_3.stopped,outcome2Box_3.started,outcome2Box_3.stopped,certainText_3.started,certainText_3.stopped,outcome1Text_3.started,outcome1Text_3.stopped,outcome2Text_3.started,outcome2Text_3.stopped,fixCross_ITI.started,fixCross_ITI.stopped,choiceKey.rt,fixCross_ISI.started,fixCross_ISI.stopped,happyText.started,happyText.stopped,happySlider.response,happySlider.rt,happySlider.started,happySlider.stopped,happyResp.keys,happyResp.started,happyResp.stopped,endOfBlockText.started,endOfBlockText.stopped,restKeyResp.keys,restKeyResp.rt,restKeyResp.started,restKeyResp.stopped,finalWinnings,cashBonus,goodbyeText.started,goodbyeText.stopped,finalWinningsText.started,finalWinningsText.stopped,spaceToContinue.started,spaceToContinue.stopped,goodbyeKeyResp_2.keys,goodbyeKeyResp_2.rt,goodbyeKeyResp_2.started,goodbyeKeyResp_2.stopped,participant,date,expName,psychopyVersion,frameRate,
1,black.png,"Welcome! You are about to play our gambling task.
This task has 3 blocks and takes about 15 minutes.",,,,0,0,0,0,,,,,,,,,,,,,,,,,,,,,,,,,13.770260653400328,None,13.770260653400328,None,13.770260653400328,None,4,797.0606538062566,13.770260653400328,None,,,,,,,,,,,,,,,,,,,,,,,,,,,,,,,,,,,,,,,,,,,,,,,,,,,,,,,,,,,,,,,,,,,,,,,,,,,,,,,,,,,,,,,,,,,,,,,,,,,,,,,,,,,,,,,,,,,,,,,,,,,,,,,,,2019_Oct_09_1333,Mmi_3levels,3.1.5,59.98464465201621,
2,black.png,"In this game, you may win or lose points. Your goal is to get as many points as possible. These points will be converted to a cash bonus at the end.
Sometimes we will ask you to rate your mood.",,,,0,1,1,1,,,,,,,,,,,,,,,,,,,,,,,,,810.8806673351792,None,810.8806673351792,None,810.8806673351792,None,4,6.602841595245991,810.8806673351792,None,,,,,,,,,,,,,,,,,,,,,,,,,,,,,,,,,,,,,,,,,,,,,,,,,,,,,,,,,,,,,,,,,,,,,,,,,,,,,,,,,,,,,,,,,,,,,,,,,,,,,,,,,,,,,,,,,,,,,,,,,,,,,,,,,2019_Oct_09_1333,Mmi_3levels,3.1.5,59.98464465201621,
3,black.png,"On the next screen, please rate how you feel about your life these days. Use the LEFT (green) and RIGHT (blue) buttons to move the slider (you can press and hold them to slide gradually) and the TOP (red) button to lock in your response.
Make your rating as accurately and quickly as you can!",,,,0,2,2,2,,,,,,,,,,,,,,,,,,,,,,,,,817.5332826049998,None,817.5332826049998,None,817.5332826049998,None,4,13.205370245093945,817.5332826049998,None,,,,,,,,,,,,,,,,,,,,,,,,,,,,,,,,,,,,,,,,,,,,,,,,,,,,,,,,,,,,,,,,,,,,,,,,,,,,,,,,,,,,,,,,,,,,,,,,,,,,,,,,,,,,,,,,,,,,,,,,,,,,,,,,,2019_Oct_09_1333,Mmi_3levels,3.1.5,59.98464465201621,
,,,,,,,,,,,,,,,,,,,,,,,,,,,,,,,,,,,,,,,,,,,,830.7551215207204,None,0.61,10.502836987492628,834.7566644886392,None,None,834.7566644886392,None,,,,,,,,,,,,,,,,,,,,,,,,,,,,,,,,,,,,,,,,,,,,,,,,,,,,,,,,,,,,,,,,,,,,,,,,,,,,,,,,,,,,,,,,,,,,,,,,,,,,,,,,,,,,,,,,,,,,,,,,2019_Oct_09_1333,Mmi_3levels,3.1.5,59.98464465201621,
4,black.png,"In this game you can win money by earning points according to your choices. You will decide whether to gamble a number of points or stick with a guaranteed number of points. 
Make your choice by pressing the left or right arrow key once. An example of one trial is shown on the next screen.",,,,,,,,0,0,0,0,,,,,,,,,,,,,,,,,,,,,,,,,,,,,,,,,,,,,,,,841.2925236132578,None,841.2925236132578,None,841.2925236132578,None,4,8.036714124726132,841.2925236132578,None,,,,,,,,,,,,,,,,,,,,,,,,,,,,,,,,,,,,,,,,,,,,,,,,,,,,,,,,,,,,,,,,,,,,,,,,,,,,,,,,,,,,,,,,,,,,,,,,,,,,,,,,,,,,,,2019_Oct_09_1333,Mmi_3levels,3.1.5,59.98464465201621,
5,example_start.png,"The GAMBLING OPTION will be shown on the RIGHT SIDE. 
Select this option using the RIGHT (blue) button on your keypad.",,,,,,,,0,1,1,1,,,,,,,,,,,,,,,,,,,,,,,,,,,,,,,,,,,,,,,,849.3956093571032,None,849.3956093571032,None,849.3956093571032,None,4,4.585394730325788,849.3956093571032,None,,,,,,,,,,,,,,,,,,,,,,,,,,,,,,,,,,,,,,,,,,,,,,,,,,,,,,,,,,,,,,,,,,,,,,,,,,,,,,,,,,,,,,,,,,,,,,,,,,,,,,,,,,,,,,2019_Oct_09_1333,Mmi_3levels,3.1.5,59.98464465201621,
6,example_gamble.png,"Once you select the gambling choice, the choice you made will remain on the screen.",,,,,,,,0,2,2,2,,,,,,,,,,,,,,,,,,,,,,,,,,,,,,,,,,,,,,,,854.0140873418422,None,854.0140873418422,None,854.0140873418422,None,4,2.2677657299791463,854.0140873418422,None,,,,,,,,,,,,,,,,,,,,,,,,,,,,,,,,,,,,,,,,,,,,,,,,,,,,,,,,,,,,,,,,,,,,,,,,,,,,,,,,,,,,,,,,,,,,,,,,,,,,,,,,,,,,,,2019_Oct_09_1333,Mmi_3levels,3.1.5,59.98464465201621,
7,example_win.png,"The outcome you received will then be shown on the screen. In this example , you WON 10 points.",,,,,,,,0,3,3,3,,,,,,,,,,,,,,,,,,,,,,,,,,,,,,,,,,,,,,,,856.31500576291,None,856.31500576291,None,856.31500576291,None,4,1.550870903301984,856.31500576291,None,,,,,,,,,,,,,,,,,,,,,,,,,,,,,,,,,,,,,,,,,,,,,,,,,,,,,,,,,,,,,,,,,,,,,,,,,,,,,,,,,,,,,,,,,,,,,,,,,,,,,,,,,,,,,,2019_Oct_09_1333,Mmi_3levels,3.1.5,59.98464465201621,
8,example_start.png,"The GUARANTEED OPTION will be shown on the LEFT SIDE. You are 100% guaranteed to gain or lose this amount. In this example, you have a 100% chance of winning 1 point. Select this option using the LEFT (green) button on your keyboard.",,,,,,,,0,4,4,4,,,,,,,,,,,,,,,,,,,,,,,,,,,,,,,,,,,,,,,,857.9156090627075,None,857.9156090627075,None,857.9156090627075,None,4,2.7013579525519162,857.9156090627075,None,,,,,,,,,,,,,,,,,,,,,,,,,,,,,,,,,,,,,,,,,,,,,,,,,,,,,,,,,,,,,,,,,,,,,,,,,,,,,,,,,,,,,,,,,,,,,,,,,,,,,,,,,,,,,,2019_Oct_09_1333,Mmi_3levels,3.1.5,59.98464465201621,
9,example_certain.png,"Once you select the guaranteed choice, your selection will remain on the screen.",,,,,,,,0,5,5,5,,,,,,,,,,,,,,,,,,,,,,,,,,,,,,,,,,,,,,,,860.6499901124625,None,860.6499901124625,None,860.6499901124625,None,4,1.4007092788815498,860.6499901124625,None,,,,,,,,,,,,,,,,,,,,,,,,,,,,,,,,,,,,,,,,,,,,,,,,,,,,,,,,,,,,,,,,,,,,,,,,,,,,,,,,,,,,,,,,,,,,,,,,,,,,,,,,,,,,,,2019_Oct_09_1333,Mmi_3levels,3.1.5,59.98464465201621,
10,black.png,"Please make your choices as fast as possible.
You will be given a break at the end of each block.
Let's play!",,,,,,,,0,6,6,6,,,,,,,,,,,,,,,,,,,,,,,,,,,,,,,,,,,,,,,,862.0838879207149,None,862.0838879207149,None,862.0838879207149,None,4,4.168507327325642,862.0838879207149,None,,,,,,,,,,,,,,,,,,,,,,,,,,,,,,,,,,,,,,,,,,,,,,,,,,,,,,,,,,,,,,,,,,,,,,,,,,,,,,,,,,,,,,,,,,,,,,,,,,,,,,,,,,,,,,2019_Oct_09_1333,Mmi_3levels,3.1.5,59.98464465201621,
,,,,,,,,,,,,,,,,,,,,,,,,,,,,,,,,,,,,,,,,,,,,,,,,,,,,,,,,,,,,,,,866.2688770380337,None,space,48.08549584564753,866.2688770380337,None,,,,,,,,,,,,,,,,,,,,,,,,,,,,,,,,,,,,,,,,,,,,,,,,,,,,,,,,,,,,,,,,,,,,,,,,,,,,,,,,,,,,,,,,,,,,,,,,,,,,,,,,2019_Oct_09_1333,Mmi_3levels,3.1.5,59.98464465201621,
,,,1,1,12.9,,,,,,,,,0,0,0,0,0,0,0,14,,,,,,,,,,,,,,,,,,,,,,,,,,,,,,,,,,,,,,,,,,,,,,,,914.3708277948899,None,0.56,7.495928830176126,917.3887005599099,None,None,917.3887005599099,None,921.8737108602072,None,True,True,False,0.56,-0.43999999999999995,-0.43999999999999995,6.6,12.9,6.300000000000001,3.1500000000000004,gamble,win,12.9,12.9,924.9083050839836,None,924.9083050839836,None,924.9083050839836,None,924.9083050839836,None,924.9083050839836,None,924.9083050839836,None,924.9083050839836,None,None,924.9083050839836,None,927.9094067924889,None,927.9094067924889,None,927.9094067924889,None,927.9094067924889,None,927.9094067924889,None,927.9094067924889,None,927.9094067924889,None,931.8943130976986,None,931.8943130976986,None,931.8943130976986,None,931.8943130976986,None,931.8943130976986,None,931.8943130976986,None,931.8943130976986,None,932.8947073192685,None,,,,,,,,,,,,,,,,,,,,,,,,,,,,,,,,2019_Oct_09_1333,Mmi_3levels,3.1.5,59.98464465201621,
,,,1,1,5.7,,,,,,,,,0,0,0,0,0,1,1,22,,,,,,,,,,,,,,,,,,,,,,,,,,,,,,,,,,,,,,,,,,,,,,,,,,,,,,,,,,,True,False,False,0.56,-0.43999999999999995,-0.8799999999999999,-1.613333333333333,5.7,4.086666666666667,2.0433333333333334,gamble,lose,4.086666666666667,16.986666666666668,934.9121234655613,None,934.9121234655613,None,934.9121234655613,None,934.9121234655613,None,934.9121234655613,None,934.9121234655613,None,934.9121234655613,None,1,934.9121234655613,None,937.4797945439932,None,937.4797945439932,None,937.4797945439932,None,937.4797945439932,None,937.4797945439932,None,937.4797945439932,None,937.4797945439932,None,941.4646982892882,None,941.4646982892882,None,941.4646982892882,None,941.4646982892882,None,941.4646982892882,None,941.4646982892882,None,941.4646982892882,None,942.4650537926937,None,2.5346323019475676,,,,,,,,,,,,,,,,,,,,,,,,,,,,,,,2019_Oct_09_1333,Mmi_3levels,3.1.5,59.98464465201621,
,,,1,1,4.9,,,,,,,,,0,0,0,0,0,2,2,7,,,,,,,,,,,,,,,,,,,,,,,,,,,,,,,,,,,,,,,,,,,,,,,,,,,,,,,,,,,True,True,False,0.56,-0.43999999999999995,-1.3199999999999998,7.479999999999999,4.9,-2.5799999999999983,1.160000000000001,gamble,win,4.9,21.88666666666667,944.4824993776274,None,944.4824993776274,None,944.4824993776274,None,944.4824993776274,None,944.4824993776274,None,944.4824993776274,None,944.4824993776274,None,None,944.4824993776274,None,947.483673722716,None,947.483673722716,None,947.483673722716,None,947.483673722716,None,947.483673722716,None,947.483673722716,None,947.483673722716,None,951.4685819478473,None,951.4685819478473,None,951.4685819478473,None,951.4685819478473,None,951.4685819478473,None,951.4685819478473,None,951.4685819478473,None,960.9889512361842,None,,952.4689768094104,None,953.4693307128618,None,0.55,7.519529007608071,956.4704788192175,None,None,956.4704788192175,None,,,,,,,,,,,,,,,,,,,,2019_Oct_09_1333,Mmi_3levels,3.1.5,59.98464465201621,
,,,1,1,2.9,,,,,,,,,0,0,0,0,0,3,3,8,,,,,,,,,,,,,,,,,,,,,,,,,,,,,,,,,,,,,,,,,,,,,,,,,,,,,,,,,,,True,True,True,0.55,-0.44999999999999996,-1.7699999999999998,8.069999999999999,2.9,-5.169999999999998,-1.1349999999999991,gamble,win,2.9,24.78666666666667,963.0064137803274,None,963.0064137803274,None,963.0064137803274,None,963.0064137803274,None,963.0064137803274,None,963.0064137803274,None,963.0064137803274,None,None,963.0064137803274,None,966.0075510072056,None,966.0075510072056,None,966.0075510072056,None,966.0075510072056,None,966.0075510072056,None,966.0075510072056,None,966.0075510072056,None,969.9923997150618,None,969.9923997150618,None,969.9923997150618,None,969.9923997150618,None,969.9923997150618,None,969.9923997150618,None,969.9923997150618,None,970.9927926567034,None,,,,,,,,,,,,,,,,,,,,,,,,,,,,,,,,2019_Oct_09_1333,Mmi_3levels,3.1.5,59.98464465201621,
,,,1,1,8.5,,,,,,,,,0,0,0,0,0,4,4,16,,,,,,,,,,,,,,,,,,,,,,,,,,,,,,,,,,,,,,,,,,,,,,,,,,,,,,,,,,,True,True,False,0.55,-0.44999999999999996,-2.2199999999999998,8.52,8.5,-0.019999999999999574,-0.009999999999999787,gamble,win,8.5,33.28666666666667,973.0102379216696,None,973.0102379216696,None,973.0102379216696,None,973.0102379216696,None,973.0102379216696,None,973.0102379216696,None,973.0102379216696,None,1,973.0102379216696,None,974.5442190540489,None,974.5442190540489,None,974.5442190540489,None,974.5442190540489,None,974.5442190540489,None,974.5442190540489,None,974.5442190540489,None,978.5457492225687,None,978.5457492225687,None,978.5457492225687,None,978.5457492225687,None,978.5457492225687,None,978.5457492225687,None,978.5457492225687,None,988.0327261509956,None,1.5008230014936998,979.5294591036509,None,980.5298814839334,None,0.63,7.50254516111454,983.530971672968,None,None,983.530971672968,None,,,,,,,,,,,,,,,,,,,,2019_Oct_09_1333,Mmi_3levels,3.1.5,59.98464465201621,
,,,1,1,7.1,,,,,,,,,0,0,0,0,0,5,5,19,,,,,,,,,,,,,,,,,,,,,,,,,,,,,,,,,,,,,,,,,,,,,,,,,,,,,,,,,,,True,False,False,0.63,-0.37,-2.59,-1.5108333333333333,7.1,5.589166666666666,2.794583333333333,gamble,lose,5.589166666666666,38.87583333333333,990.0502757310751,None,990.0502757310751,None,990.0502757310751,None,990.0502757310751,None,990.0502757310751,None,990.0502757310751,None,990.0502757310751,None,1,990.0502757310751,None,991.4507623003446,None,991.4507623003446,None,991.4507623003446,None,991.4507623003446,None,991.4507623003446,None,991.4507623003446,None,991.4507623003446,None,995.435604928527,None,995.435604928527,None,995.435604928527,None,995.435604928527,None,995.435604928527,None,995.435604928527,None,995.435604928527,None,996.4360116295284,None,1.3673988351365551,,,,,,,,,,,,,,,,,,,,,,,,,,,,,,,2019_Oct_09_1333,Mmi_3levels,3.1.5,59.98464465201621,
,,,1,1,5.5,,,,,,,,,0,0,0,0,0,6,6,6,,,,,,,,,,,,,,,,,,,,,,,,,,,,,,,,,,,,,,,,,,,,,,,,,,,,,,,,,,,True,False,True,0.63,-0.37,-2.96,-1.5416666666666665,5.5,3.9583333333333335,1.9791666666666667,gamble,lose,3.9583333333333335,42.83416666666667,998.453516731679,None,998.453516731679,None,998.453516731679,None,998.453516731679,None,998.453516731679,None,998.453516731679,None,998.453516731679,None,1,998.453516731679,None,1000.2208188032964,None,1000.2208188032964,None,1000.2208188032964,None,1000.2208188032964,None,1000.2208188032964,None,1000.2208188032964,None,1000.2208188032964,None,1004.2056972698192,None,1004.2056972698192,None,1004.2056972698192,None,1004.2056972698192,None,1004.2056972698192,None,1004.2056972698192,None,1004.2056972698192,None,1005.2060636527021,None,1.7342133775237016,,,,,,,,,,,,,,,,,,,,,,,,,,,,,,,2019_Oct_09_1333,Mmi_3levels,3.1.5,59.98464465201621,
,,,1,1,0.9,,,,,,,,,0,0,0,0,0,7,7,10,,,,,,,,,,,,,,,,,,,,,,,,,,,,,,,,,,,,,,,,,,,,,,,,,,,,,,,,,,,True,False,False,0.63,-0.37,-3.33,-1.5725,0.9,-0.6725,0.11375000000000002,gamble,lose,-0.6725,42.16166666666667,1007.2234903585049,None,1007.2234903585049,None,1007.2234903585049,None,1007.2234903585049,None,1007.2234903585049,None,1007.2234903585049,None,1007.2234903585049,None,1,1007.2234903585049,None,1010.2080050020013,None,1010.2080050020013,None,1010.2080050020013,None,1010.2080050020013,None,1010.2080050020013,None,1010.2080050020013,None,1010.2080050020013,None,1014.1928825085051,None,1014.1928825085051,None,1014.1928825085051,None,1014.1928825085051,None,1014.1928825085051,None,1014.1928825085051,None,1014.1928825085051,None,1023.6965952950413,None,2.951438428775873,1015.1933116084547,None,1016.1936565523501,None,0.4,7.502878905506805,1019.1948328174185,None,None,1019.1948328174185,None,,,,,,,,,,,,,,,,,,,,2019_Oct_09_1333,Mmi_3levels,3.1.5,59.98464465201621,
,,,1,1,11.3,,,,,,,,,0,0,0,0,0,8,8,25,,,,,,,,,,,,,,,,,,,,,,,,,,,,,,,,,,,,,,,,,,,,,,,,,,,,,,,,,,,True,True,False,0.4,-0.6,-3.93,12.33,11.3,-1.0299999999999994,-0.5149999999999997,gamble,win,11.3,53.46166666666667,1025.71401912102,None,1025.71401912102,None,1025.71401912102,None,1025.71401912102,None,1025.71401912102,None,1025.71401912102,None,1025.71401912102,None,None,1025.71401912102,None,1028.7151848265203,None,1028.7151848265203,None,1028.7151848265203,None,1028.7151848265203,None,1028.7151848265203,None,1028.7151848265203,None,1028.7151848265203,None,1032.7167783521,None,1032.7167783521,None,1032.7167783521,None,1032.7167783521,None,1032.7167783521,None,1032.7167783521,None,1032.7167783521,None,1033.7004533548024,None,,,,,,,,,,,,,,,,,,,,,,,,,,,,,,,,2019_Oct_09_1333,Mmi_3levels,3.1.5,59.98464465201621,
,,,1,1,6.5,,,,,,,,,0,0,0,0,0,9,9,21,,,,,,,,,,,,,,,,,,,,,,,,,,,,,,,,,,,,,,,,,,,,,,,,,,,,,,,,,,,True,True,False,0.4,-0.6,-4.53,12.93,6.5,-6.43,0.03500000000000014,certain,certain,0.03500000000000014,53.49666666666667,1035.7179024595534,None,1035.7179024595534,None,1035.7179024595534,None,1035.7179024595534,None,1035.7179024595534,None,1035.7179024595534,None,1035.7179024595534,None,3,1035.7179024595534,None,1038.669047142088,None,1038.669047142088,None,1038.669047142088,None,1038.669047142088,None,1038.669047142088,None,1038.669047142088,None,1038.669047142088,None,1042.6705923498957,None,1042.6705923498957,None,1042.6705923498957,None,1042.6705923498957,None,1042.6705923498957,None,1042.6705923498957,None,1042.6705923498957,None,1052.1576793532004,None,2.9180950265727006,1043.654381907254,None,1044.654752769915,None,0.43,7.502914743847214,1047.655869837734,None,None,1047.655869837734,None,,,,,,,,,,,,,,,,,,,,2019_Oct_09_1333,Mmi_3levels,3.1.5,59.98464465201621,
,,,1,1,3.1,,,,,,,,,0,0,0,0,0,10,10,15,,,,,,,,,,,,,,,,,,,,,,,,,,,,,,,,,,,,,,,,,,,,,,,,,,,,,,,,,,,True,True,True,0.43,-0.5700000000000001,-5.1000000000000005,13.080000000000002,3.1,-9.980000000000002,-3.4400000000000013,gamble,win,3.1,56.59666666666667,1054.1751150186174,None,1054.1751150186174,None,1054.1751150186174,None,1054.1751150186174,None,1054.1751150186174,None,1054.1751150186174,None,1054.1751150186174,None,None,1054.1751150186174,None,1057.1762535254238,None,1057.1762535254238,None,1057.1762535254238,None,1057.1762535254238,None,1057.1762535254238,None,1057.1762535254238,None,1057.1762535254238,None,1061.1610971135087,None,1061.1610971135087,None,1061.1610971135087,None,1061.1610971135087,None,1061.1610971135087,None,1061.1610971135087,None,1061.1610971135087,None,1062.1615431726677,None,,,,,,,,,,,,,,,,,,,,,,,,,,,,,,,,2019_Oct_09_1333,Mmi_3levels,3.1.5,59.98464465201621,
,,,1,1,12.3,,,,,,,,,0,0,0,0,0,11,11,20,,,,,,,,,,,,,,,,,,,,,,,,,,,,,,,,,,,,,,,,,,,,,,,,,,,,,,,,,,,True,True,True,0.43,-0.5700000000000001,-5.670000000000001,13.650000000000002,12.3,-1.3500000000000014,-0.6750000000000007,gamble,win,12.3,68.89666666666668,1064.1789180409396,None,1064.1789180409396,None,1064.1789180409396,None,1064.1789180409396,None,1064.1789180409396,None,1064.1789180409396,None,1064.1789180409396,None,1,1064.1789180409396,None,1065.7461977776256,None,1065.7461977776256,None,1065.7461977776256,None,1065.7461977776256,None,1065.7461977776256,None,1065.7461977776256,None,1065.7461977776256,None,1069.7477769038524,None,1069.7477769038524,None,1069.7477769038524,None,1069.7477769038524,None,1069.7477769038524,None,1069.7477769038524,None,1069.7477769038524,None,1079.2348296687123,None,1.534234240592923,1070.7315152636147,None,1071.731929324218,None,0.72,7.502856506558601,1074.7330185533501,None,None,1074.7330185533501,None,,,,,,,,,,,,,,,,,,,,2019_Oct_09_1333,Mmi_3levels,3.1.5,59.98464465201621,
,,,1,1,6.9,,,,,,,,,0,0,0,0,0,12,12,2,,,,,,,,,,,,,,,,,,,,,,,,,,,,,,,,,,,,,,,,,,,,,,,,,,,,,,,,,,,True,True,True,0.72,-0.28,-5.950000000000001,9.870000000000001,6.9,-2.9700000000000006,1.9649999999999999,gamble,win,6.9,75.79666666666668,1081.2523059722153,None,1081.2523059722153,None,1081.2523059722153,None,1081.2523059722153,None,1081.2523059722153,None,1081.2523059722153,None,1081.2523059722153,None,1,1081.2523059722153,None,1083.219656937581,None,1083.219656937581,None,1083.219656937581,None,1083.219656937581,None,1083.219656937581,None,1083.219656937581,None,1083.219656937581,None,1087.2045997210662,None,1087.2045997210662,None,1087.2045997210662,None,1087.2045997210662,None,1087.2045997210662,None,1087.2045997210662,None,1087.2045997210662,None,1088.204980503302,None,1.9343019494554028,,,,,,,,,,,,,,,,,,,,,,,,,,,,,,,2019_Oct_09_1333,Mmi_3levels,3.1.5,59.98464465201621,
,,,1,1,9.9,,,,,,,,,0,0,0,0,0,13,13,0,,,,,,,,,,,,,,,,,,,,,,,,,,,,,,,,,,,,,,,,,,,,,,,,,,,,,,,,,,,True,True,False,0.72,-0.28,-6.230000000000001,10.150000000000002,9.9,-0.2500000000000018,-0.1250000000000009,gamble,win,9.9,85.69666666666669,1090.2724512710702,None,1090.2724512710702,None,1090.2724512710702,None,1090.2724512710702,None,1090.2724512710702,None,1090.2724512710702,None,1090.2724512710702,None,1,1090.2724512710702,None,1091.6229081777274,None,1091.6229081777274,None,1091.6229081777274,None,1091.6229081777274,None,1091.6229081777274,None,1091.6229081777274,None,1091.6229081777274,None,1095.6078186426894,None,1095.6078186426894,None,1095.6078186426894,None,1095.6078186426894,None,1095.6078186426894,None,1095.6078186426894,None,1095.6078186426894,None,1096.608190465311,None,1.3174782874411903,,,,,,,,,,,,,,,,,,,,,,,,,,,,,,,2019_Oct_09_1333,Mmi_3levels,3.1.5,59.98464465201621,
,,,1,1,1.5,,,,,,,,,0,0,0,0,0,14,14,13,,,,,,,,,,,,,,,,,,,,,,,,,,,,,,,,,,,,,,,,,,,,,,,,,,,,,,,,,,,True,True,True,0.72,-0.28,-6.510000000000002,10.430000000000001,1.5,-8.930000000000001,-3.7150000000000007,gamble,win,1.5,87.19666666666669,1098.6256546094082,None,1098.6256546094082,None,1098.6256546094082,None,1098.6256546094082,None,1098.6256546094082,None,1098.6256546094082,None,1098.6256546094082,None,1,1098.6256546094082,None,1100.209633085935,None,1100.209633085935,None,1100.209633085935,None,1100.209633085935,None,1100.209633085935,None,1100.209633085935,None,1100.209633085935,None,1104.1944808338303,None,1104.1944808338303,None,1104.1944808338303,None,1104.1944808338303,None,1104.1944808338303,None,1104.1944808338303,None,1104.1944808338303,None,1113.69814882247,None,1.5508587438962422,1105.1949003342306,None,1106.1952910359832,None,0.78,7.502749951556325,1109.196402984031,None,None,1109.196402984031,None,,,,,,,,,,,,,,,,,,,,2019_Oct_09_1333,Mmi_3levels,3.1.5,59.98464465201621,
,,,1,1,12.5,,,,,,,,,0,0,0,0,0,15,15,18,,,,,,,,,,,,,,,,,,,,,,,,,,,,,,,,,,,,,,,,,,,,,,,,,,,,,,,,,,,True,True,False,0.78,-0.21999999999999997,-6.730000000000001,9.81,12.5,2.6899999999999995,1.3449999999999998,gamble,win,12.5,99.69666666666669,1115.7155998471426,None,1115.7155998471426,None,1115.7155998471426,None,1115.7155998471426,None,1115.7155998471426,None,1115.7155998471426,None,1115.7155998471426,None,1,1115.7155998471426,None,1117.2162145384355,None,1117.2162145384355,None,1117.2162145384355,None,1117.2162145384355,None,1117.2162145384355,None,1117.2162145384355,None,1117.2162145384355,None,1121.201052366814,None,1121.201052366814,None,1121.201052366814,None,1121.201052366814,None,1121.201052366814,None,1121.201052366814,None,1121.201052366814,None,1122.2014491482987,None,1.4675531958928332,,,,,,,,,,,,,,,,,,,,,,,,,,,,,,,2019_Oct_09_1333,Mmi_3levels,3.1.5,59.98464465201621,
,,,1,1,4.5,,,,,,,,,0,0,0,0,0,16,16,4,,,,,,,,,,,,,,,,,,,,,,,,,,,,,,,,,,,,,,,,,,,,,,,,,,,,,,,,,,,True,True,True,0.78,-0.21999999999999997,-6.950000000000001,10.030000000000001,4.5,-5.530000000000001,-0.5150000000000006,certain,certain,-0.5150000000000006,99.18166666666669,1124.2190089678625,None,1124.2190089678625,None,1124.2190089678625,None,1124.2190089678625,None,1124.2190089678625,None,1124.2190089678625,None,1124.2190089678625,None,3,1124.2190089678625,None,1126.1696567136096,None,1126.1696567136096,None,1126.1696567136096,None,1126.1696567136096,None,1126.1696567136096,None,1126.1696567136096,None,1126.1696567136096,None,1130.1546458949451,None,1130.1546458949451,None,1130.1546458949451,None,1130.1546458949451,None,1130.1546458949451,None,1130.1546458949451,None,1130.1546458949451,None,1139.658246686682,None,1.917586890340317,1131.1549748395337,None,1132.1553127437946,None,0.42,7.502989940345287,1135.1564595701639,None,None,1135.1564595701639,None,,,,,,,,,,,,,,,,,,,,2019_Oct_09_1333,Mmi_3levels,3.1.5,59.98464465201621,
,,,1,1,-1.5,,,,,,,,,0,0,0,0,0,17,17,3,,,,,,,,,,,,,,,,,,,,,,,,,,,,,,,,,,,,,,,,,,,,,,,,,,,,,,,,,,,True,True,False,0.42,-0.5800000000000001,-7.530000000000001,15.650000000000002,-1.5,-17.150000000000002,-9.325000000000001,gamble,win,-1.5,97.68166666666669,1141.6757025111583,None,1141.6757025111583,None,1141.6757025111583,None,1141.6757025111583,None,1141.6757025111583,None,1141.6757025111583,None,1141.6757025111583,None,None,1141.6757025111583,None,1144.6768352582585,None,1144.6768352582585,None,1144.6768352582585,None,1144.6768352582585,None,1144.6768352582585,None,1144.6768352582585,None,1144.6768352582585,None,1148.678443183133,None,1148.678443183133,None,1148.678443183133,None,1148.678443183133,None,1148.678443183133,None,1148.678443183133,None,1148.678443183133,None,1149.6621482644114,None,,,,,,,,,,,,,,,,,,,,,,,,,,,,,,,,2019_Oct_09_1333,Mmi_3levels,3.1.5,59.98464465201621,
,,,1,1,7.3,,,,,,,,,0,0,0,0,0,18,18,24,,,,,,,,,,,,,,,,,,,,,,,,,,,,,,,,,,,,,,,,,,,,,,,,,,,,,,,,,,,True,False,True,0.42,-0.5800000000000001,-8.110000000000001,-2.7058333333333335,7.3,4.594166666666666,2.297083333333333,gamble,lose,4.594166666666666,102.27583333333335,1151.679602168966,None,1151.679602168966,None,1151.679602168966,None,1151.679602168966,None,1151.679602168966,None,1151.679602168966,None,1151.679602168966,None,1,1151.679602168966,None,1152.8467204411863,None,1152.8467204411863,None,1152.8467204411863,None,1152.8467204411863,None,1152.8467204411863,None,1152.8467204411863,None,1152.8467204411863,None,1156.831556029676,None,1156.831556029676,None,1156.831556029676,None,1156.831556029676,None,1156.831556029676,None,1156.831556029676,None,1156.831556029676,None,1157.831961450749,None,1.1338036686647683,,,,,,,,,,,,,,,,,,,,,,,,,,,,,,,2019_Oct_09_1333,Mmi_3levels,3.1.5,59.98464465201621,
,,,1,1,4.7,,,,,,,,,0,0,0,0,0,19,19,17,,,,,,,,,,,,,,,,,,,,,,,,,,,,,,,,,,,,,,,,,,,,,,,,,,,,,,,,,,,True,False,False,0.42,-0.5800000000000001,-8.690000000000001,-2.754166666666667,4.7,1.9458333333333333,0.9729166666666667,gamble,lose,1.9458333333333333,104.22166666666669,1159.8494172752253,None,1159.8494172752253,None,1159.8494172752253,None,1159.8494172752253,None,1159.8494172752253,None,1159.8494172752253,None,1159.8494172752253,None,1,1159.8494172752253,None,1160.8164578550495,None,1160.8164578550495,None,1160.8164578550495,None,1160.8164578550495,None,1160.8164578550495,None,1160.8164578550495,None,1160.8164578550495,None,1164.8013036830816,None,1164.8013036830816,None,1164.8013036830816,None,1164.8013036830816,None,1164.8013036830816,None,1164.8013036830816,None,1164.8013036830816,None,1174.3050439883373,None,0.9339160474482924,1165.8017075042007,None,1166.8020838066004,None,0.62,7.502878905506805,1169.8032667913358,None,None,1169.8032667913358,None,,,,,,,,,,,,,,,,,,,,2019_Oct_09_1333,Mmi_3levels,3.1.5,59.98464465201621,
,,,1,1,1.9,,,,,,,,,0,0,0,0,0,20,20,26,,,,,,,,,,,,,,,,,,,,,,,,,,,,,,,,,,,,,,,,,,,,,,,,,,,,,,,,,,,True,True,False,0.62,-0.38,-9.070000000000002,14.390000000000002,1.9,-12.490000000000002,-5.295000000000001,certain,certain,-5.295000000000001,98.92666666666669,1176.3224847734673,None,1176.3224847734673,None,1176.3224847734673,None,1176.3224847734673,None,1176.3224847734673,None,1176.3224847734673,None,1176.3224847734673,None,3,1176.3224847734673,None,1178.2231985321268,None,1178.2231985321268,None,1178.2231985321268,None,1178.2231985321268,None,1178.2231985321268,None,1178.2231985321268,None,1178.2231985321268,None,1182.2247850180138,None,1182.2247850180138,None,1182.2247850180138,None,1182.2247850180138,None,1182.2247850180138,None,1182.2247850180138,None,1182.2247850180138,None,1183.2084638605593,None,1.8674564324319363,,,,,,,,,,,,,,,,,,,,,,,,,,,,,,,2019_Oct_09_1333,Mmi_3levels,3.1.5,59.98464465201621,
,,,1,1,2.3,,,,,,,,,0,0,0,0,0,21,21,1,,,,,,,,,,,,,,,,,,,,,,,,,,,,,,,,,,,,,,,,,,,,,,,,,,,,,,,,,,,True,False,False,0.62,-0.38,-9.450000000000003,-2.1175,2.3,0.18249999999999966,1.2412499999999997,gamble,lose,0.18249999999999966,99.1091666666667,1185.225896646094,None,1185.225896646094,None,1185.225896646094,None,1185.225896646094,None,1185.225896646094,None,1185.225896646094,None,1185.225896646094,None,1,1185.225896646094,None,1186.4264191176626,None,1186.4264191176626,None,1186.4264191176626,None,1186.4264191176626,None,1186.4264191176626,None,1186.4264191176626,None,1186.4264191176626,None,1190.427917287685,None,1190.427917287685,None,1190.427917287685,None,1190.427917287685,None,1190.427917287685,None,1190.427917287685,None,1190.427917287685,None,1199.9149278145633,None,1.1674264178145677,1191.411628768663,None,1192.4120201104088,None,0.34,7.502825467963703,1195.413196375419,None,None,1195.413196375419,None,,,,,,,,,,,,,,,,,,,,2019_Oct_09_1333,Mmi_3levels,3.1.5,59.98464465201621,
,,,1,1,7.7,,,,,,,,,0,0,0,0,0,22,22,23,,,,,,,,,,,,,,,,,,,,,,,,,,,,,,,,,,,,,,,,,,,,,,,,,,,,,,,,,,,True,True,False,0.34,-0.6599999999999999,-10.110000000000003,19.35,7.7,-11.650000000000002,-1.975000000000001,certain,certain,-1.975000000000001,97.1341666666667,1201.9323813990923,None,1201.9323813990923,None,1201.9323813990923,None,1201.9323813990923,None,1201.9323813990923,None,1201.9323813990923,None,1201.9323813990923,None,3,1201.9323813990923,None,1203.8998072409886,None,1203.8998072409886,None,1203.8998072409886,None,1203.8998072409886,None,1203.8998072409886,None,1203.8998072409886,None,1203.8998072409886,None,1207.901359488489,None,1207.901359488489,None,1207.901359488489,None,1207.901359488489,None,1207.901359488489,None,1207.901359488489,None,1207.901359488489,None,1208.8850984881865,None,1.934144516766537,,,,,,,,,,,,,,,,,,,,,,,,,,,,,,,2019_Oct_09_1333,Mmi_3levels,3.1.5,59.98464465201621,
,,,1,1,-1.1,,,,,,,,,0,0,0,0,0,23,23,5,,,,,,,,,,,,,,,,,,,,,,,,,,,,,,,,,,,,,,,,,,,,,,,,,,,,,,,,,,,True,True,True,0.34,-0.6599999999999999,-10.770000000000003,20.01,-1.1,-21.110000000000003,-11.105000000000002,gamble,win,-1.1,96.0341666666667,1210.9025031150086,None,1210.9025031150086,None,1210.9025031150086,None,1210.9025031150086,None,1210.9025031150086,None,1210.9025031150086,None,1210.9025031150086,None,None,1210.9025031150086,None,1213.9037257779273,None,1213.9037257779273,None,1213.9037257779273,None,1213.9037257779273,None,1213.9037257779273,None,1213.9037257779273,None,1213.9037257779273,None,1217.888568086084,None,1217.888568086084,None,1217.888568086084,None,1217.888568086084,None,1217.888568086084,None,1217.888568086084,None,1217.888568086084,None,1227.3922722330317,None,,1218.888994626177,None,1219.8893437298248,None,0.81,7.502834747545421,1222.890491516213,None,None,1222.890491516213,None,,,,,,,,,,,,,,,,,,,,2019_Oct_09_1333,Mmi_3levels,3.1.5,59.98464465201621,
,,,1,1,13.5,,,,,,,,,0,0,0,0,0,24,24,12,,,,,,,,,,,,,,,,,,,,,,,,,,,,,,,,,,,,,,,,,,,,,,,,,,,,,,,,,,,True,True,True,0.81,-0.18999999999999995,-10.960000000000003,13.620000000000001,13.5,-0.120000000000001,-0.0600000000000005,gamble,win,13.5,109.5341666666667,1229.4097475765739,None,1229.4097475765739,None,1229.4097475765739,None,1229.4097475765739,None,1229.4097475765739,None,1229.4097475765739,None,1229.4097475765739,None,1,1229.4097475765739,None,1231.260439992242,None,1231.260439992242,None,1231.260439992242,None,1231.260439992242,None,1231.260439992242,None,1231.260439992242,None,1231.260439992242,None,1235.2453507771716,None,1235.2453507771716,None,1235.2453507771716,None,1235.2453507771716,None,1235.2453507771716,None,1235.2453507771716,None,1235.2453507771716,None,1236.2456944411388,None,1.8175528439460322,,,,,,,,,,,,,,,,,,,,,,,,,,,,,,,2019_Oct_09_1333,Mmi_3levels,3.1.5,59.98464465201621,
,,,1,1,8.3,,,,,,,,,0,0,0,0,0,25,25,9,,,,,,,,,,,,,,,,,,,,,,,,,,,,,,,,,,,,,,,,,,,,,,,,,,,,,,,,,,,True,True,True,0.81,-0.18999999999999995,-11.150000000000002,13.810000000000002,8.3,-5.510000000000002,1.3949999999999996,certain,certain,1.3949999999999996,110.9291666666667,1238.2631889837794,None,1238.2631889837794,None,1238.2631889837794,None,1238.2631889837794,None,1238.2631889837794,None,1238.2631889837794,None,1238.2631889837794,None,3,1238.2631889837794,None,1240.7808195200632,None,1240.7808195200632,None,1240.7808195200632,None,1240.7808195200632,None,1240.7808195200632,None,1240.7808195200632,None,1240.7808195200632,None,1244.7656778275268,None,1244.7656778275268,None,1244.7656778275268,None,1244.7656778275268,None,1244.7656778275268,None,1244.7656778275268,None,1244.7656778275268,None,1245.766049330181,None,2.484520083235111,,,,,,,,,,,,,,,,,,,,,,,,,,,,,,,2019_Oct_09_1333,Mmi_3levels,3.1.5,59.98464465201621,
,,,1,1,2.5,,,,,,,,,0,0,0,0,0,26,26,11,,,,,,,,,,,,,,,,,,,,,,,,,,,,,,,,,,,,,,,,,,,,,,,,,,,,,,,,,,,True,True,True,0.81,-0.18999999999999995,-11.340000000000002,14.0,2.5,-11.5,-4.5,gamble,win,2.5,113.4291666666667,1247.7835605120054,None,1247.7835605120054,None,1247.7835605120054,None,1247.7835605120054,None,1247.7835605120054,None,1247.7835605120054,None,1247.7835605120054,None,None,1247.7835605120054,None,1250.784674060007,None,1250.784674060007,None,1250.784674060007,None,1250.784674060007,None,1250.784674060007,None,1250.784674060007,None,1250.784674060007,None,1254.7862541461946,None,1254.7862541461946,None,1254.7862541461946,None,1254.7862541461946,None,1254.7862541461946,None,1254.7862541461946,None,1254.7862541461946,None,1264.2732886719168,None,,1255.7699070699164,None,1256.770315050846,None,0.72,7.502871865814086,1259.7714503578027,None,None,1259.7714503578027,None,,,,,,,,,,,,,,,,,,,,2019_Oct_09_1333,Mmi_3levels,3.1.5,59.98464465201621,
,,,2,0,13.9,,,,,,,,,0,1,1,1,0,0,0,18,,,,,,,,,,,,,,,,,,,,,,,,,,,,,,,,,,,,,,,,,,,,,,,,1273.0599655183614,None,0.62,7.501853993337136,1276.0778450030484,None,None,1276.0778450030484,None,1280.5628895417904,None,False,True,False,0.62,0.62,0.62,-9.299999999999999,13.9,4.600000000000001,2.3000000000000007,gamble,lose,4.600000000000001,118.0291666666667,1283.5974696861813,None,1283.5974696861813,None,1283.5974696861813,None,1283.5974696861813,None,1283.5974696861813,None,1283.5974696861813,None,1283.5974696861813,None,1,1283.5974696861813,None,1284.7311655199155,None,1284.7311655199155,None,1284.7311655199155,None,1284.7311655199155,None,1284.7311655199155,None,1284.7311655199155,None,1284.7311655199155,None,1288.7327379264752,None,1288.7327379264752,None,1288.7327379264752,None,1288.7327379264752,None,1288.7327379264752,None,1288.7327379264752,None,1288.7327379264752,None,1289.7164590070024,None,1.1004452272318304,,,,,,,,,,,,1266.2740015986492,None,4,6.769493649248034,1266.2740015986492,None,,,,,,,,,,,,,,2019_Oct_09_1333,Mmi_3levels,3.1.5,59.98464465201621,
,,,2,0,-0.5,,,,,,,,,0,1,1,1,0,1,1,12,,,,,,,,,,,,,,,,,,,,,,,,,,,,,,,,,,,,,,,,,,,,,,,,,,,,,,,,,,,False,True,False,0.62,0.62,1.24,-9.92,-0.5,-10.42,-5.46,gamble,lose,-10.42,107.6091666666667,1291.7338789931382,None,1291.7338789931382,None,1291.7338789931382,None,1291.7338789931382,None,1291.7338789931382,None,1291.7338789931382,None,1291.7338789931382,None,None,1291.7338789931382,None,1294.7350837368867,None,1294.7350837368867,None,1294.7350837368867,None,1294.7350837368867,None,1294.7350837368867,None,1294.7350837368867,None,1294.7350837368867,None,1298.7866205290775,None,1298.7866205290775,None,1298.7866205290775,None,1298.7866205290775,None,1298.7866205290775,None,1298.7866205290775,None,1298.7866205290775,None,1308.2236666702665,None,,1299.7203087471426,None,1300.720741686935,None,0.18,7.502790589584038,1303.7218513950938,None,None,1303.7218513950938,None,,,,,,,,,,,,,,,,,,,,2019_Oct_09_1333,Mmi_3levels,3.1.5,59.98464465201621,
,,,2,0,4.7,,,,,,,,,0,1,1,1,0,2,2,4,,,,,,,,,,,,,,,,,,,,,,,,,,,,,,,,,,,,,,,,,,,,,,,,,,,,,,,,,,,False,True,True,0.18,0.18,1.42,-3.94,4.7,0.7600000000000002,0.3800000000000001,gamble,lose,0.7600000000000002,108.3691666666667,1310.2410924161668,None,1310.2410924161668,None,1310.2410924161668,None,1310.2410924161668,None,1310.2410924161668,None,1310.2410924161668,None,1310.2410924161668,None,1,1310.2410924161668,None,1311.2915051008458,None,1311.2915051008458,None,1311.2915051008458,None,1311.2915051008458,None,1311.2915051008458,None,1311.2915051008458,None,1311.2915051008458,None,1315.2763675680617,None,1315.2763675680617,None,1315.2763675680617,None,1315.2763675680617,None,1315.2763675680617,None,1315.2763675680617,None,1315.2763675680617,None,1316.276735230931,None,1.0171755175688304,,,,,,,,,,,,,,,,,,,,,,,,,,,,,,,2019_Oct_09_1333,Mmi_3levels,3.1.5,59.98464465201621,
,,,2,0,2.9,,,,,,,,,0,1,1,1,0,3,3,5,,,,,,,,,,,,,,,,,,,,,,,,,,,,,,,,,,,,,,,,,,,,,,,,,,,,,,,,,,,False,True,True,0.18,0.18,1.5999999999999999,-4.12,2.9,-1.2200000000000002,0.8399999999999999,gamble,lose,-1.2200000000000002,107.1491666666667,1318.2941996949958,None,1318.2941996949958,None,1318.2941996949958,None,1318.2941996949958,None,1318.2941996949958,None,1318.2941996949958,None,1318.2941996949958,None,1,1318.2941996949958,None,1320.8951991362846,None,1320.8951991362846,None,1320.8951991362846,None,1320.8951991362846,None,1320.8951991362846,None,1320.8951991362846,None,1320.8951991362846,None,1324.8801172808744,None,1324.8801172808744,None,1324.8801172808744,None,1324.8801172808744,None,1324.8801172808744,None,1324.8801172808744,None,1324.8801172808744,None,1334.3838038286776,None,2.5677622741786763,1325.880467344541,None,1326.8808484467445,None,0.37,7.502408207510598,1329.88199975295,None,None,1329.88199975295,None,,,,,,,,,,,,,,,,,,,,2019_Oct_09_1333,Mmi_3levels,3.1.5,59.98464465201621,
,,,2,0,-0.7,,,,,,,,,0,1,1,1,0,4,4,19,,,,,,,,,,,,,,,,,,,,,,,,,,,,,,,,,,,,,,,,,,,,,,,,,,,,,,,,,,,False,True,False,0.37,0.37,1.9699999999999998,-7.1499999999999995,-0.7,-7.85,-4.2749999999999995,gamble,lose,-7.85,99.29916666666671,1336.4012087755254,None,1336.4012087755254,None,1336.4012087755254,None,1336.4012087755254,None,1336.4012087755254,None,1336.4012087755254,None,1336.4012087755254,None,None,1336.4012087755254,None,1339.4023792808293,None,1339.4023792808293,None,1339.4023792808293,None,1339.4023792808293,None,1339.4023792808293,None,1339.4023792808293,None,1339.4023792808293,None,1343.403926088533,None,1343.403926088533,None,1343.403926088533,None,1343.403926088533,None,1343.403926088533,None,1343.403926088533,None,1343.403926088533,None,1344.3876775676617,None,,,,,,,,,,,,,,,,,,,,,,,,,,,,,,,,2019_Oct_09_1333,Mmi_3levels,3.1.5,59.98464465201621,
,,,2,0,9.7,,,,,,,,,0,1,1,1,0,5,5,3,,,,,,,,,,,,,,,,,,,,,,,,,,,,,,,,,,,,,,,,,,,,,,,,,,,,,,,,,,,False,True,False,0.37,0.37,2.34,-7.52,9.7,2.1799999999999997,1.0899999999999999,gamble,lose,2.1799999999999997,101.47916666666671,1346.405143951648,None,1346.405143951648,None,1346.405143951648,None,1346.405143951648,None,1346.405143951648,None,1346.405143951648,None,1346.405143951648,None,1,1346.405143951648,None,1347.5889379248256,None,1347.5889379248256,None,1347.5889379248256,None,1347.5889379248256,None,1347.5889379248256,None,1347.5889379248256,None,1347.5889379248256,None,1351.573755594145,None,1351.573755594145,None,1351.573755594145,None,1351.573755594145,None,1351.573755594145,None,1351.573755594145,None,1351.573755594145,None,1352.5741616551531,None,1.1506755204172805,,,,,,,,,,,,,,,,,,,,,,,,,,,,,,,2019_Oct_09_1333,Mmi_3levels,3.1.5,59.98464465201621,
,,,2,0,13.3,,,,,,,,,0,1,1,1,0,6,6,23,,,,,,,,,,,,,,,,,,,,,,,,,,,,,,,,,,,,,,,,,,,,,,,,,,,,,,,,,,,False,True,False,0.37,0.37,2.71,-7.89,13.3,5.410000000000001,2.7050000000000005,gamble,lose,5.410000000000001,106.88916666666671,1354.5915963606094,None,1354.5915963606094,None,1354.5915963606094,None,1354.5915963606094,None,1354.5915963606094,None,1354.5915963606094,None,1354.5915963606094,None,1,1354.5915963606094,None,1355.7920708344318,None,1355.7920708344318,None,1355.7920708344318,None,1355.7920708344318,None,1355.7920708344318,None,1355.7920708344318,None,1355.7920708344318,None,1359.7769377814257,None,1359.7769377814257,None,1359.7769377814257,None,1359.7769377814257,None,1359.7769377814257,None,1359.7769377814257,None,1359.7769377814257,None,1369.2806326488499,None,1.1673531412379816,1360.777331683028,None,1361.7777185449959,None,0.39,7.502828027878422,1364.7788656913908,None,None,1364.7788656913908,None,,,,,,,,,,,,,,,,,,,,2019_Oct_09_1333,Mmi_3levels,3.1.5,59.98464465201621,
,,,2,0,7.5,,,,,,,,,0,1,1,1,0,7,7,13,,,,,,,,,,,,,,,,,,,,,,,,,,,,,,,,,,,,,,,,,,,,,,,,,,,,,,,,,,,False,True,True,0.39,0.39,3.1,-8.56,7.5,-1.0600000000000005,-0.5300000000000002,gamble,lose,-1.0600000000000005,105.82916666666671,1371.2981198318303,None,1371.2981198318303,None,1371.2981198318303,None,1371.2981198318303,None,1371.2981198318303,None,1371.2981198318303,None,1371.2981198318303,None,1,1371.2981198318303,None,1372.7986874852795,None,1372.7986874852795,None,1372.7986874852795,None,1372.7986874852795,None,1372.7986874852795,None,1372.7986874852795,None,1372.7986874852795,None,1376.783556992188,None,1376.783556992188,None,1376.783556992188,None,1376.783556992188,None,1376.783556992188,None,1376.783556992188,None,1376.783556992188,None,1377.7839416142087,None,1.4674412011518143,,,,,,,,,,,,,,,,,,,,,,,,,,,,,,,2019_Oct_09_1333,Mmi_3levels,3.1.5,59.98464465201621,
,,,2,0,4.1,,,,,,,,,0,1,1,1,0,8,8,0,,,,,,,,,,,,,,,,,,,,,,,,,,,,,,,,,,,,,,,,,,,,,,,,,,,,,,,,,,,False,True,True,0.39,0.39,3.49,-8.95,4.1,-4.85,-0.375,certain,certain,-0.375,105.45416666666671,1379.8013961587567,None,1379.8013961587567,None,1379.8013961587567,None,1379.8013961587567,None,1379.8013961587567,None,1379.8013961587567,None,1379.8013961587567,None,3,1379.8013961587567,None,1381.4520172817283,None,1381.4520172817283,None,1381.4520172817283,None,1381.4520172817283,None,1381.4520172817283,None,1381.4520172817283,None,1381.4520172817283,None,1385.4535701691639,None,1385.4535701691639,None,1385.4535701691639,None,1385.4535701691639,None,1385.4535701691639,None,1385.4535701691639,None,1385.4535701691639,None,1394.957313994295,None,1.6175237892894074,1386.4372986094095,None,1387.4376909110579,None,0.39,7.519445171521511,1390.438877095643,None,None,1390.438877095643,None,,,,,,,,,,,,,,,,,,,,2019_Oct_09_1333,Mmi_3levels,3.1.5,59.98464465201621,
,,,2,0,11.1,,,,,,,,,0,1,1,1,0,9,9,11,,,,,,,,,,,,,,,,,,,,,,,,,,,,,,,,,,,,,,,,,,,,,,,,,,,,,,,,,,,False,True,False,0.39,0.39,3.8800000000000003,-9.34,11.1,1.7599999999999998,0.8799999999999999,gamble,lose,1.7599999999999998,107.21416666666671,1396.9747477397905,None,1396.9747477397905,None,1396.9747477397905,None,1396.9747477397905,None,1396.9747477397905,None,1396.9747477397905,None,1396.9747477397905,None,1,1396.9747477397905,None,1397.9250777403358,None,1397.9250777403358,None,1397.9250777403358,None,1397.9250777403358,None,1397.9250777403358,None,1397.9250777403358,None,1397.9250777403358,None,1401.9099958849838,None,1401.9099958849838,None,1401.9099958849838,None,1401.9099958849838,None,1401.9099958849838,None,1401.9099958849838,None,1401.9099958849838,None,1402.910368027573,None,0.9172128277714364,,,,,,,,,,,,,,,,,,,,,,,,,,,,,,,2019_Oct_09_1333,Mmi_3levels,3.1.5,59.98464465201621,
,,,2,0,7.7,,,,,,,,,0,1,1,1,0,10,10,25,,,,,,,,,,,,,,,,,,,,,,,,,,,,,,,,,,,,,,,,,,,,,,,,,,,,,,,,,,,False,False,False,0.39,0.39,4.2700000000000005,1.7208333333333334,1.925,0.2041666666666666,1.0645833333333332,gamble,win,1.925,109.13916666666671,1404.9277940934408,None,1404.9277940934408,None,1404.9277940934408,None,1404.9277940934408,None,1404.9277940934408,None,1404.9277940934408,None,1404.9277940934408,None,1,1404.9277940934408,None,1406.6784755015979,None,1406.6784755015979,None,1406.6784755015979,None,1406.6784755015979,None,1406.6784755015979,None,1406.6784755015979,None,1406.6784755015979,None,1410.6633254894405,None,1410.6633254894405,None,1410.6633254894405,None,1410.6633254894405,None,1410.6633254894405,None,1410.6633254894405,None,1410.6633254894405,None,1411.6637456297758,None,1.7176327122142538,,,,,,,,,,,,,,,,,,,,,,,,,,,,,,,2019_Oct_09_1333,Mmi_3levels,3.1.5,59.98464465201621,
,,,2,0,9.5,,,,,,,,,0,1,1,1,0,11,11,24,,,,,,,,,,,,,,,,,,,,,,,,,,,,,,,,,,,,,,,,,,,,,,,,,,,,,,,,,,,False,True,True,0.39,0.39,4.66,-10.120000000000001,9.5,-0.620000000000001,-0.3100000000000005,gamble,lose,-0.620000000000001,108.5191666666667,1413.6812305728672,None,1413.6812305728672,None,1413.6812305728672,None,1413.6812305728672,None,1413.6812305728672,None,1413.6812305728672,None,1413.6812305728672,None,1,1413.6812305728672,None,1416.182177088689,None,1416.182177088689,None,1416.182177088689,None,1416.182177088689,None,1416.182177088689,None,1416.182177088689,None,1416.182177088689,None,1420.1670645147096,None,1420.1670645147096,None,1420.1670645147096,None,1420.1670645147096,None,1420.1670645147096,None,1420.1670645147096,None,1420.1670645147096,None,1429.670719383983,None,2.467848862055689,1421.1674360173638,None,1422.1678366386332,None,0.37,7.502748671628069,1425.1689588262234,None,None,1425.1689588262234,None,,,,,,,,,,,,,,,,,,,,2019_Oct_09_1333,Mmi_3levels,3.1.5,59.98464465201621,
,,,2,0,8.7,,,,,,,,,0,1,1,1,0,12,12,2,,,,,,,,,,,,,,,,,,,,,,,,,,,,,,,,,,,,,,,,,,,,,,,,,,,,,,,,,,,False,False,False,0.37,0.37,5.03,1.7141666666666666,2.175,0.4608333333333332,1.3179166666666666,certain,certain,1.3179166666666666,109.83708333333337,1431.688268644095,None,1431.688268644095,None,1431.688268644095,None,1431.688268644095,None,1431.688268644095,None,1431.688268644095,None,1431.688268644095,None,3,1431.688268644095,None,1434.389214135881,None,1434.389214135881,None,1434.389214135881,None,1434.389214135881,None,1434.389214135881,None,1434.389214135881,None,1434.389214135881,None,1438.3740926023456,None,1438.3740926023456,None,1438.3740926023456,None,1438.3740926023456,None,1438.3740926023456,None,1438.3740926023456,None,1438.3740926023456,None,1439.3744868239737,None,2.6677355234278366,,,,,,,,,,,,,,,,,,,,,,,,,,,,,,,2019_Oct_09_1333,Mmi_3levels,3.1.5,59.98464465201621,
,,,2,0,10.9,,,,,,,,,0,1,1,1,0,13,13,26,,,,,,,,,,,,,,,,,,,,,,,,,,,,,,,,,,,,,,,,,,,,,,,,,,,,,,,,,,,False,True,True,0.37,0.37,5.4,-10.58,10.9,0.3200000000000003,0.16000000000000014,gamble,lose,0.3200000000000003,110.15708333333336,1441.3919631274766,None,1441.3919631274766,None,1441.3919631274766,None,1441.3919631274766,None,1441.3919631274766,None,1441.3919631274766,None,1441.3919631274766,None,1,1441.3919631274766,None,1443.442840430478,None,1443.442840430478,None,1443.442840430478,None,1443.442840430478,None,1443.442840430478,None,1443.442840430478,None,1443.442840430478,None,1447.4442806831794,None,1447.4442806831794,None,1447.4442806831794,None,1447.4442806831794,None,1447.4442806831794,None,1447.4442806831794,None,1447.4442806831794,None,1456.9312937699142,None,2.017502542294096,1448.4280049636145,None,1449.428385105799,None,0.44,7.502838587388396,1452.4295341721154,None,None,1452.4295341721154,None,,,,,,,,,,,,,,,,,,,,2019_Oct_09_1333,Mmi_3levels,3.1.5,59.98464465201621,
,,,2,0,3.1,,,,,,,,,0,1,1,1,0,14,14,16,,,,,,,,,,,,,,,,,,,,,,,,,,,,,,,,,,,,,,,,,,,,,,,,,,,,,,,,,,,False,True,True,0.44,0.44,5.840000000000001,-12.0,3.1,-8.9,-2.9000000000000004,certain,certain,-2.9000000000000004,107.25708333333336,1458.9487652736716,None,1458.9487652736716,None,1458.9487652736716,None,1458.9487652736716,None,1458.9487652736716,None,1458.9487652736716,None,1458.9487652736716,None,3,1458.9487652736716,None,1461.2496436966467,None,1461.2496436966467,None,1461.2496436966467,None,1461.2496436966467,None,1461.2496436966467,None,1461.2496436966467,None,1461.2496436966467,None,1465.2345605613082,None,1465.2345605613082,None,1465.2345605613082,None,1465.2345605613082,None,1465.2345605613082,None,1465.2345605613082,None,1465.2345605613082,None,1466.2349007054,None,2.2677660499466583,,,,,,,,,,,,,,,,,,,,,,,,,,,,,,,2019_Oct_09_1333,Mmi_3levels,3.1.5,59.98464465201621,
,,,2,0,2.5,,,,,,,,,0,1,1,1,0,15,15,8,,,,,,,,,,,,,,,,,,,,,,,,,,,,,,,,,,,,,,,,,,,,,,,,,,,,,,,,,,,False,True,False,0.44,0.44,6.280000000000001,-12.440000000000001,2.5,-9.940000000000001,-3.7200000000000006,gamble,lose,-9.940000000000001,97.31708333333336,1468.2524045276223,None,1468.2524045276223,None,1468.2524045276223,None,1468.2524045276223,None,1468.2524045276223,None,1468.2524045276223,None,1468.2524045276223,None,None,1468.2524045276223,None,1471.253556473821,None,1471.253556473821,None,1471.253556473821,None,1471.253556473821,None,1471.253556473821,None,1471.253556473821,None,1471.253556473821,None,1475.2551138410345,None,1475.2551138410345,None,1475.2551138410345,None,1475.2551138410345,None,1475.2551138410345,None,1475.2551138410345,None,1475.2551138410345,None,1484.7421320475405,None,,1476.2388013231684,None,1477.2391856252216,None,0.18,7.502828347845934,1480.240326371917,None,None,1480.240326371917,None,,,,,,,,,,,,,,,,,,,,2019_Oct_09_1333,Mmi_3levels,3.1.5,59.98464465201621,
,,,2,0,11.3,,,,,,,,,0,1,1,1,0,16,16,20,,,,,,,,,,,,,,,,,,,,,,,,,,,,,,,,,,,,,,,,,,,,,,,,,,,,,,,,,,,False,True,True,0.18,0.18,6.460000000000001,-8.98,11.3,2.3200000000000003,1.1600000000000001,gamble,lose,2.3200000000000003,99.63708333333335,1486.7595926718204,None,1486.7595926718204,None,1486.7595926718204,None,1486.7595926718204,None,1486.7595926718204,None,1486.7595926718204,None,1486.7595926718204,None,1,1486.7595926718204,None,1487.776613316615,None,1487.776613316615,None,1487.776613316615,None,1487.776613316615,None,1487.776613316615,None,1487.776613316615,None,1487.776613316615,None,1491.761525381531,None,1491.761525381531,None,1491.761525381531,None,1491.761525381531,None,1491.761525381531,None,1491.761525381531,None,1491.761525381531,None,1492.7618629657663,None,0.9839447500999086,,,,,,,,,,,,,,,,,,,,,,,,,,,,,,,2019_Oct_09_1333,Mmi_3levels,3.1.5,59.98464465201621,
,,,2,0,12.9,,,,,,,,,0,1,1,1,0,17,17,21,,,,,,,,,,,,,,,,,,,,,,,,,,,,,,,,,,,,,,,,,,,,,,,,,,,,,,,,,,,False,True,True,0.18,0.18,6.640000000000001,-9.16,12.9,3.74,1.87,gamble,lose,3.74,103.37708333333335,1494.7793495087535,None,1494.7793495087535,None,1494.7793495087535,None,1494.7793495087535,None,1494.7793495087535,None,1494.7793495087535,None,1494.7793495087535,None,1,1494.7793495087535,None,1496.0298158869846,None,1496.0298158869846,None,1496.0298158869846,None,1496.0298158869846,None,1496.0298158869846,None,1496.0298158869846,None,1496.0298158869846,None,1500.0146917935926,None,1500.0146917935926,None,1500.0146917935926,None,1500.0146917935926,None,1500.0146917935926,None,1500.0146917935926,None,1500.0146917935926,None,1501.015119613614,None,1.2174064827850088,,,,,,,,,,,,,,,,,,,,,,,,,,,,,,,2019_Oct_09_1333,Mmi_3levels,3.1.5,59.98464465201621,
,,,2,0,10.5,,,,,,,,,0,1,1,1,0,18,18,17,,,,,,,,,,,,,,,,,,,,,,,,,,,,,,,,,,,,,,,,,,,,,,,,,,,,,,,,,,,False,False,True,0.18,0.18,6.82,1.1983333333333333,2.625,1.4266666666666667,0.7133333333333334,gamble,win,2.625,106.00208333333335,1503.0325261603575,None,1503.0325261603575,None,1503.0325261603575,None,1503.0325261603575,None,1503.0325261603575,None,1503.0325261603575,None,1503.0325261603575,None,1,1503.0325261603575,None,1504.2329785551992,None,1504.2329785551992,None,1504.2329785551992,None,1504.2329785551992,None,1504.2329785551992,None,1504.2329785551992,None,1504.2329785551992,None,1508.2179107791744,None,1508.2179107791744,None,1508.2179107791744,None,1508.2179107791744,None,1508.2179107791744,None,1508.2179107791744,None,1508.2179107791744,None,1517.72154740931,None,1.1673566611134447,1509.2182595629129,None,1510.2186608241173,None,0.56,7.502812988590449,1513.2197807718185,None,None,1513.2197807718185,None,,,,,,,,,,,,,,,,,,,,2019_Oct_09_1333,Mmi_3levels,3.1.5,59.98464465201621,
,,,2,0,0.1,,,,,,,,,0,1,1,1,0,19,19,6,,,,,,,,,,,,,,,,,,,,,,,,,,,,,,,,,,,,,,,,,,,,,,,,,,,,,,,,,,,False,True,False,0.56,0.56,7.380000000000001,-15.220000000000002,0.1,-15.120000000000003,-7.510000000000002,gamble,lose,-15.120000000000003,90.88208333333334,1519.7389901143615,None,1519.7389901143615,None,1519.7389901143615,None,1519.7389901143615,None,1519.7389901143615,None,1519.7389901143615,None,1519.7389901143615,None,None,1519.7389901143615,None,1522.7401574198157,None,1522.7401574198157,None,1522.7401574198157,None,1522.7401574198157,None,1522.7401574198157,None,1522.7401574198157,None,1522.7401574198157,None,1526.7250576452934,None,1526.7250576452934,None,1526.7250576452934,None,1526.7250576452934,None,1526.7250576452934,None,1526.7250576452934,None,1526.7250576452934,None,1527.7254211482941,None,,,,,,,,,,,,,,,,,,,,,,,,,,,,,,,,2019_Oct_09_1333,Mmi_3levels,3.1.5,59.98464465201621,
,,,2,0,-0.1,,,,,,,,,0,1,1,1,0,20,20,10,,,,,,,,,,,,,,,,,,,,,,,,,,,,,,,,,,,,,,,,,,,,,,,,,,,,,,,,,,,False,True,False,0.56,0.56,7.940000000000001,-15.780000000000001,-0.1,-15.88,-7.99,certain,certain,-7.99,82.89208333333335,1529.7428971318295,None,1529.7428971318295,None,1529.7428971318295,None,1529.7428971318295,None,1529.7428971318295,None,1529.7428971318295,None,1529.7428971318295,None,3,1529.7428971318295,None,1532.3272474309779,None,1532.3272474309779,None,1532.3272474309779,None,1532.3272474309779,None,1532.3272474309779,None,1532.3272474309779,None,1532.3272474309779,None,1536.3287926387857,None,1536.3287926387857,None,1536.3287926387857,None,1536.3287926387857,None,1536.3287926387857,None,1536.3287926387857,None,1536.3287926387857,None,1545.8158284444944,None,2.551197608059738,1537.312474681181,None,1538.3128698627115,None,0.11,7.502781630086247,1541.3140704465914,None,None,1541.3140704465914,None,,,,,,,,,,,,,,,,,,,,2019_Oct_09_1333,Mmi_3levels,3.1.5,59.98464465201621,
,,,2,0,5.7,,,,,,,,,0,1,1,1,0,21,21,14,,,,,,,,,,,,,,,,,,,,,,,,,,,,,,,,,,,,,,,,,,,,,,,,,,,,,,,,,,,False,True,False,0.11,0.11,8.05,-9.59,5.7,-3.8899999999999997,0.9050000000000002,certain,certain,0.9050000000000002,83.79708333333335,1547.8332231517998,None,1547.8332231517998,None,1547.8332231517998,None,1547.8332231517998,None,1547.8332231517998,None,1547.8332231517998,None,1547.8332231517998,None,3,1547.8332231517998,None,1549.667299703753,None,1549.667299703753,None,1549.667299703753,None,1549.667299703753,None,1549.667299703753,None,1549.667299703753,None,1549.667299703753,None,1553.6522504868335,None,1553.6522504868335,None,1553.6522504868335,None,1553.6522504868335,None,1553.6522504868335,None,1553.6522504868335,None,1553.6522504868335,None,1554.6525375134079,None,1.80098721786635,,,,,,,,,,,,,,,,,,,,,,,,,,,,,,,2019_Oct_09_1333,Mmi_3levels,3.1.5,59.98464465201621,
,,,2,0,4.9,,,,,,,,,0,1,1,1,0,22,22,1,,,,,,,,,,,,,,,,,,,,,,,,,,,,,,,,,,,,,,,,,,,,,,,,,,,,,,,,,,,False,True,False,0.11,0.11,8.16,-9.7,4.9,-4.799999999999999,0.05000000000000071,certain,certain,0.05000000000000071,83.84708333333334,1556.6699930179166,None,1556.6699930179166,None,1556.6699930179166,None,1556.6699930179166,None,1556.6699930179166,None,1556.6699930179166,None,1556.6699930179166,None,3,1556.6699930179166,None,1559.6544836625108,None,1559.6544836625108,None,1559.6544836625108,None,1559.6544836625108,None,1559.6544836625108,None,1559.6544836625108,None,1559.6544836625108,None,1563.6560301502468,None,1563.6560301502468,None,1563.6560301502468,None,1563.6560301502468,None,1563.6560301502468,None,1563.6560301502468,None,1563.6560301502468,None,1573.1430397171644,None,2.9514182697748765,1564.639776189637,None,1565.6402398479986,None,0.44,7.502761470968835,1568.641328757105,None,None,1568.641328757105,None,,,,,,,,,,,,,,,,,,,,2019_Oct_09_1333,Mmi_3levels,3.1.5,59.98464465201621,
,,,2,0,7.9,,,,,,,,,0,1,1,1,0,23,23,15,,,,,,,,,,,,,,,,,,,,,,,,,,,,,,,,,,,,,,,,,,,,,,,,,,,,,,,,,,,False,True,True,0.44,0.44,8.6,-14.76,7.9,-6.859999999999999,0.5200000000000005,certain,certain,0.5200000000000005,84.36708333333334,1575.1604949016473,None,1575.1604949016473,None,1575.1604949016473,None,1575.1604949016473,None,1575.1604949016473,None,1575.1604949016473,None,1575.1604949016473,None,3,1575.1604949016473,None,1577.8449278849293,None,1577.8449278849293,None,1577.8449278849293,None,1577.8449278849293,None,1577.8449278849293,None,1577.8449278849293,None,1577.8449278849293,None,1581.8297541938373,None,1581.8297541938373,None,1581.8297541938373,None,1581.8297541938373,None,1581.8297541938373,None,1581.8297541938373,None,1581.8297541938373,None,1582.8301656946423,None,2.65134108933853,,,,,,,,,,,,,,,,,,,,,,,,,,,,,,,2019_Oct_09_1333,Mmi_3levels,3.1.5,59.98464465201621,
,,,2,0,6.5,,,,,,,,,0,1,1,1,0,24,24,7,,,,,,,,,,,,,,,,,,,,,,,,,,,,,,,,,,,,,,,,,,,,,,,,,,,,,,,,,,,False,True,False,0.44,0.44,9.04,-15.2,6.5,-8.7,-1.0999999999999996,certain,certain,-1.0999999999999996,83.26708333333335,1584.8475808809744,None,1584.8475808809744,None,1584.8475808809744,None,1584.8475808809744,None,1584.8475808809744,None,1584.8475808809744,None,1584.8475808809744,None,3,1584.8475808809744,None,1587.6153770095552,None,1587.6153770095552,None,1587.6153770095552,None,1587.6153770095552,None,1587.6153770095552,None,1587.6153770095552,None,1587.6153770095552,None,1591.6002106781234,None,1591.6002106781234,None,1591.6002106781234,None,1591.6002106781234,None,1591.6002106781234,None,1591.6002106781234,None,1591.6002106781234,None,1592.6006090595038,None,2.734657516819425,,,,,,,,,,,,,,,,,,,,,,,,,,,,,,,2019_Oct_09_1333,Mmi_3levels,3.1.5,59.98464465201621,
,,,2,0,11.5,,,,,,,,,0,1,1,1,0,25,25,9,,,,,,,,,,,,,,,,,,,,,,,,,,,,,,,,,,,,,,,,,,,,,,,,,,,,,,,,,,,False,True,False,0.44,0.44,9.479999999999999,-15.639999999999999,11.5,-4.139999999999999,-2.0699999999999994,gamble,lose,-4.139999999999999,79.12708333333335,1594.6180639240192,None,1594.6180639240192,None,1594.6180639240192,None,1594.6180639240192,None,1594.6180639240192,None,1594.6180639240192,None,1594.6180639240192,None,1,1594.6180639240192,None,1597.3024124312797,None,1597.3024124312797,None,1597.3024124312797,None,1597.3024124312797,None,1597.3024124312797,None,1597.3024124312797,None,1597.3024124312797,None,1601.2873193764244,None,1601.2873193764244,None,1601.2873193764244,None,1601.2873193764244,None,1601.2873193764244,None,1601.2873193764244,None,1601.2873193764244,None,1610.7909902448882,None,2.651236454199534,1602.2877241575043,None,1603.2881225388846,None,0.36,7.50280626892345,1606.2892399266711,None,None,1606.2892399266711,None,,,,,,,,,,,,,,,,,,,,2019_Oct_09_1333,Mmi_3levels,3.1.5,59.98464465201621,
,,,2,0,1.9,,,,,,,,,0,1,1,1,0,26,26,22,,,,,,,,,,,,,,,,,,,,,,,,,,,,,,,,,,,,,,,,,,,,,,,,,,,,,,,,,,,False,False,False,0.36,0.36,9.839999999999998,2.08,0.475,-1.605,-0.565,gamble,win,0.475,79.60208333333334,1612.80842847022,None,1612.80842847022,None,1612.80842847022,None,1612.80842847022,None,1612.80842847022,None,1612.80842847022,None,1612.80842847022,None,1,1612.80842847022,None,1615.3594312073546,None,1615.3594312073546,None,1615.3594312073546,None,1615.3594312073546,None,1615.3594312073546,None,1615.3594312073546,None,1615.3594312073546,None,1619.360991774418,None,1619.360991774418,None,1619.360991774418,None,1619.360991774418,None,1619.360991774418,None,1619.360991774418,None,1619.360991774418,None,1620.3447141349316,None,2.5178788446937688,,,,,,,,,,,,,,,,,,,,,,,,,,,,,,,2019_Oct_09_1333,Mmi_3levels,3.1.5,59.98464465201621,
,,,3,1,-1.1,,,,,,,,,0,2,2,2,0,0,0,22,,,,,,,,,,,,,,,,,,,,,,,,,,,,,,,,,,,,,,,,,,,,,,,,1627.5308094405336,None,0.42,7.501886951853521,1630.548722523672,None,None,1630.548722523672,None,1635.0336976256222,None,True,True,False,0.42,-0.5800000000000001,-0.5800000000000001,8.700000000000001,-1.1,-9.8,-5.45,gamble,win,-1.1,78.50208333333335,1638.0682550510974,None,1638.0682550510974,None,1638.0682550510974,None,1638.0682550510974,None,1638.0682550510974,None,1638.0682550510974,None,1638.0682550510974,None,1,1638.0682550510974,None,1640.2691435855813,None,1640.2691435855813,None,1640.2691435855813,None,1640.2691435855813,None,1640.2691435855813,None,1640.2691435855813,None,1640.2691435855813,None,1644.2706868734676,None,1644.2706868734676,None,1644.2706868734676,None,1644.2706868734676,None,1644.2706868734676,None,1644.2706868734676,None,1644.2706868734676,None,1653.7576497225673,None,2.1678356787306257,1645.254398034478,None,1646.2547519379877,None,0.6,7.5026254773838446,1649.2558907647617,None,None,1649.2558907647617,None,1622.3454731394886,None,4,5.1689985044067726,1622.3454731394886,None,,,,,,,,,,,,,,2019_Oct_09_1333,Mmi_3levels,3.1.5,59.98464465201621,
,,,3,1,9.1,,,,,,,,,0,2,2,2,0,1,1,16,,,,,,,,,,,,,,,,,,,,,,,,,,,,,,,,,,,,,,,,,,,,,,,,,,,,,,,,,,,True,True,False,0.6,-0.4,-0.9800000000000001,6.580000000000001,9.1,2.5199999999999987,1.2599999999999993,gamble,win,9.1,87.60208333333334,1655.7751087468932,None,1655.7751087468932,None,1655.7751087468932,None,1655.7751087468932,None,1655.7751087468932,None,1655.7751087468932,None,1655.7751087468932,None,1,1655.7751087468932,None,1656.825532311108,None,1656.825532311108,None,1656.825532311108,None,1656.825532311108,None,1656.825532311108,None,1656.825532311108,None,1656.825532311108,None,1660.810448855802,None,1660.810448855802,None,1660.810448855802,None,1660.810448855802,None,1660.810448855802,None,1660.810448855802,None,1660.810448855802,None,1661.8107726806775,None,1.0173281504539773,,,,,,,,,,,,,,,,,,,,,,,,,,,,,,,2019_Oct_09_1333,Mmi_3levels,3.1.5,59.98464465201621,
,,,3,1,4.3,,,,,,,,,0,2,2,2,0,2,2,19,,,,,,,,,,,,,,,,,,,,,,,,,,,,,,,,,,,,,,,,,,,,,,,,,,,,,,,,,,,True,True,True,0.6,-0.4,-1.3800000000000001,6.98,4.3,-2.6800000000000006,0.8099999999999996,gamble,win,4.3,91.90208333333334,1663.8282176256762,None,1663.8282176256762,None,1663.8282176256762,None,1663.8282176256762,None,1663.8282176256762,None,1663.8282176256762,None,1663.8282176256762,None,1,1663.8282176256762,None,1665.5789527912857,None,1665.5789527912857,None,1665.5789527912857,None,1665.5789527912857,None,1665.5789527912857,None,1665.5789527912857,None,1665.5789527912857,None,1669.5805034388322,None,1669.5805034388322,None,1669.5805034388322,None,1669.5805034388322,None,1669.5805034388322,None,1669.5805034388322,None,1669.5805034388322,None,1670.5641630822793,None,1.7174509606556967,,,,,,,,,,,,,,,,,,,,,,,,,,,,,,,2019_Oct_09_1333,Mmi_3levels,3.1.5,59.98464465201621,
,,,3,1,11.5,,,,,,,,,0,2,2,2,0,3,3,21,,,,,,,,,,,,,,,,,,,,,,,,,,,,,,,,,,,,,,,,,,,,,,,,,,,,,,,,,,,True,False,False,0.6,-0.4,-1.7800000000000002,-1.5483333333333336,11.5,9.951666666666666,4.975833333333333,gamble,lose,9.951666666666666,101.85375,1672.581619226723,None,1672.581619226723,None,1672.581619226723,None,1672.581619226723,None,1672.581619226723,None,1672.581619226723,None,1672.581619226723,None,1,1672.581619226723,None,1673.532006824622,None,1673.532006824622,None,1673.532006824622,None,1673.532006824622,None,1673.532006824622,None,1673.532006824622,None,1673.532006824622,None,1677.5168913708185,None,1677.5168913708185,None,1677.5168913708185,None,1677.5168913708185,None,1677.5168913708185,None,1677.5168913708185,None,1677.5168913708185,None,1687.0205478399876,None,0.9172784247784875,1678.5173380699707,None,1679.517764929973,None,0.69,7.502748351544142,1682.518825680425,None,None,1682.518825680425,None,,,,,,,,,,,,,,,,,,,,2019_Oct_09_1333,Mmi_3levels,3.1.5,59.98464465201621,
,,,3,1,4.9,,,,,,,,,0,2,2,2,0,4,4,12,,,,,,,,,,,,,,,,,,,,,,,,,,,,,,,,,,,,,,,,,,,,,,,,,,,,,,,,,,,True,True,True,0.69,-0.31000000000000005,-2.0900000000000003,6.4300000000000015,4.9,-1.5300000000000011,1.6849999999999996,gamble,win,4.9,106.75375000000001,1689.0380555020529,None,1689.0380555020529,None,1689.0380555020529,None,1689.0380555020529,None,1689.0380555020529,None,1689.0380555020529,None,1689.0380555020529,None,1,1689.0380555020529,None,1690.47191363218,None,1690.47191363218,None,1690.47191363218,None,1690.47191363218,None,1690.47191363218,None,1690.47191363218,None,1690.47191363218,None,1694.4567639399902,None,1694.4567639399902,None,1694.4567639399902,None,1694.4567639399902,None,1694.4567639399902,None,1694.4567639399902,None,1694.4567639399902,None,1695.4571872801753,None,1.4007499169674702,,,,,,,,,,,,,,,,,,,,,,,,,,,,,,,2019_Oct_09_1333,Mmi_3levels,3.1.5,59.98464465201621,
,,,3,1,11.3,,,,,,,,,0,2,2,2,0,5,5,15,,,,,,,,,,,,,,,,,,,,,,,,,,,,,,,,,,,,,,,,,,,,,,,,,,,,,,,,,,,True,True,True,0.69,-0.31000000000000005,-2.4000000000000004,6.740000000000001,11.3,4.56,2.28,gamble,win,11.3,118.05375000000001,1697.4746453445405,None,1697.4746453445405,None,1697.4746453445405,None,1697.4746453445405,None,1697.4746453445405,None,1697.4746453445405,None,1697.4746453445405,None,1,1697.4746453445405,None,1698.391652741935,None,1698.391652741935,None,1698.391652741935,None,1698.391652741935,None,1698.391652741935,None,1698.391652741935,None,1698.391652741935,None,1702.3765244887327,None,1702.3765244887327,None,1702.3765244887327,None,1702.3765244887327,None,1702.3765244887327,None,1702.3765244887327,None,1702.3765244887327,None,1711.8802481548046,None,0.8838931045029312,1703.376895031426,None,1704.3772889330285,None,0.71,7.50277715025004,1707.3784824772738,None,None,1707.3784824772738,None,,,,,,,,,,,,,,,,,,,,2019_Oct_09_1333,Mmi_3levels,3.1.5,59.98464465201621,
,,,3,1,-0.3,,,,,,,,,0,2,2,2,0,6,6,6,,,,,,,,,,,,,,,,,,,,,,,,,,,,,,,,,,,,,,,,,,,,,,,,,,,,,,,,,,,True,True,False,0.71,-0.29000000000000004,-2.6900000000000004,6.750000000000001,-0.3,-7.050000000000001,-3.6750000000000003,gamble,win,-0.3,117.75375000000001,1713.8976934197708,None,1713.8976934197708,None,1713.8976934197708,None,1713.8976934197708,None,1713.8976934197708,None,1713.8976934197708,None,1713.8976934197708,None,1,1713.8976934197708,None,1716.131841840339,None,1716.131841840339,None,1716.131841840339,None,1716.131841840339,None,1716.131841840339,None,1716.131841840339,None,1716.131841840339,None,1720.1334036873304,None,1720.1334036873304,None,1720.1334036873304,None,1720.1334036873304,None,1720.1334036873304,None,1720.1334036873304,None,1720.1334036873304,None,1721.1171737256227,None,2.2010776456445456,,,,,,,,,,,,,,,,,,,,,,,,,,,,,,,2019_Oct_09_1333,Mmi_3levels,3.1.5,59.98464465201621,
,,,3,1,3.7,,,,,,,,,0,2,2,2,0,7,7,26,,,,,,,,,,,,,,,,,,,,,,,,,,,,,,,,,,,,,,,,,,,,,,,,,,,,,,,,,,,True,True,False,0.71,-0.29000000000000004,-2.9800000000000004,7.040000000000001,3.7,-3.3400000000000007,0.17999999999999972,gamble,win,3.7,121.45375000000001,1723.134589551948,None,1723.134589551948,None,1723.134589551948,None,1723.134589551948,None,1723.134589551948,None,1723.134589551948,None,1723.134589551948,None,1,1723.134589551948,None,1724.5184896961437,None,1724.5184896961437,None,1724.5184896961437,None,1724.5184896961437,None,1724.5184896961437,None,1724.5184896961437,None,1724.5184896961437,None,1728.5033150450909,None,1728.5033150450909,None,1728.5033150450909,None,1728.5033150450909,None,1728.5033150450909,None,1728.5033150450909,None,1728.5033150450909,None,1738.007008312561,None,1.3507618524017744,1729.5036967872875,None,1730.5040849291254,None,0.74,7.502189017715864,1733.5052317555528,None,None,1733.5052317555528,None,,,,,,,,,,,,,,,,,,,,2019_Oct_09_1333,Mmi_3levels,3.1.5,59.98464465201621,
,,,3,1,5.9,,,,,,,,,0,2,2,2,0,8,8,18,,,,,,,,,,,,,,,,,,,,,,,,,,,,,,,,,,,,,,,,,,,,,,,,,,,,,,,,,,,True,True,False,0.74,-0.26,-3.24,6.880000000000001,5.9,-0.9800000000000004,-0.4900000000000002,gamble,win,5.9,127.35375000000002,1740.024465736933,None,1740.024465736933,None,1740.024465736933,None,1740.024465736933,None,1740.024465736933,None,1740.024465736933,None,1740.024465736933,None,1,1740.024465736933,None,1741.0748637023498,None,1741.0748637023498,None,1741.0748637023498,None,1741.0748637023498,None,1741.0748637023498,None,1741.0748637023498,None,1741.0748637023498,None,1745.0597556082066,None,1745.0597556082066,None,1745.0597556082066,None,1745.0597556082066,None,1745.0597556082066,None,1745.0597556082066,None,1745.0597556082066,None,1746.0601693488425,None,1.0172929520485923,,,,,,,,,,,,,,,,,,,,,,,,,,,,,,,2019_Oct_09_1333,Mmi_3levels,3.1.5,59.98464465201621,
,,,3,1,6.5,,,,,,,,,0,2,2,2,0,9,9,24,,,,,,,,,,,,,,,,,,,,,,,,,,,,,,,,,,,,,,,,,,,,,,,,,,,,,,,,,,,True,False,False,0.74,-0.26,-3.5,-1.2016666666666667,6.5,5.298333333333334,2.649166666666667,gamble,lose,5.298333333333334,132.65208333333337,1748.077613013913,None,1748.077613013913,None,1748.077613013913,None,1748.077613013913,None,1748.077613013913,None,1748.077613013913,None,1748.077613013913,None,1,1748.077613013913,None,1749.261357709358,None,1749.261357709358,None,1749.261357709358,None,1749.261357709358,None,1749.261357709358,None,1749.261357709358,None,1749.261357709358,None,1753.2462339359336,None,1753.2462339359336,None,1753.2462339359336,None,1753.2462339359336,None,1753.2462339359336,None,1753.2462339359336,None,1753.2462339359336,None,1754.2466799950926,None,1.1506659208680503,,,,,,,,,,,,,,,,,,,,,,,,,,,,,,,2019_Oct_09_1333,Mmi_3levels,3.1.5,59.98464465201621,
,,,3,1,12.5,,,,,,,,,0,2,2,2,0,10,10,14,,,,,,,,,,,,,,,,,,,,,,,,,,,,,,,,,,,,,,,,,,,,,,,,,,,,,,,,,,,True,True,False,0.74,-0.26,-3.76,7.4,12.5,5.1,2.55,gamble,win,12.5,145.15208333333337,1756.264122060209,None,1756.264122060209,None,1756.264122060209,None,1756.264122060209,None,1756.264122060209,None,1756.264122060209,None,1756.264122060209,None,1,1756.264122060209,None,1757.3478291893844,None,1757.3478291893844,None,1757.3478291893844,None,1757.3478291893844,None,1757.3478291893844,None,1757.3478291893844,None,1757.3478291893844,None,1761.3327034960967,None,1761.3327034960967,None,1761.3327034960967,None,1761.3327034960967,None,1761.3327034960967,None,1761.3327034960967,None,1761.3327034960967,None,1770.8363967635087,None,1.0504885212285444,1762.333101877477,None,1763.3334999388899,None,0.69,7.502788349753246,1766.3346307660104,None,None,1766.3346307660104,None,,,,,,,,,,,,,,,,,,,,2019_Oct_09_1333,Mmi_3levels,3.1.5,59.98464465201621,
,,,3,1,5.3,,,,,,,,,0,2,2,2,0,11,11,3,,,,,,,,,,,,,,,,,,,,,,,,,,,,,,,,,,,,,,,,,,,,,,,,,,,,,,,,,,,True,False,True,0.69,-0.31000000000000005,-4.07,-1.4241666666666668,5.3,3.875833333333333,1.9379166666666665,gamble,lose,3.875833333333333,149.0279166666667,1772.8538449083571,None,1772.8538449083571,None,1772.8538449083571,None,1772.8538449083571,None,1772.8538449083571,None,1772.8538449083571,None,1772.8538449083571,None,1,1772.8538449083571,None,1773.8209530050517,None,1773.8209530050517,None,1773.8209530050517,None,1773.8209530050517,None,1773.8209530050517,None,1773.8209530050517,None,1773.8209530050517,None,1777.805769394443,None,1777.805769394443,None,1777.805769394443,None,1777.805769394443,None,1777.805769394443,None,1777.805769394443,None,1777.805769394443,None,1778.806179935229,None,0.933991243946366,,,,,,,,,,,,,,,,,,,,,,,,,,,,,,,2019_Oct_09_1333,Mmi_3levels,3.1.5,59.98464465201621,
,,,3,1,6.3,,,,,,,,,0,2,2,2,0,12,12,13,,,,,,,,,,,,,,,,,,,,,,,,,,,,,,,,,,,,,,,,,,,,,,,,,,,,,,,,,,,True,False,True,0.69,-0.31000000000000005,-4.380000000000001,-1.4500000000000002,6.3,4.85,2.425,gamble,lose,4.85,153.8779166666667,1780.8236232802738,None,1780.8236232802738,None,1780.8236232802738,None,1780.8236232802738,None,1780.8236232802738,None,1780.8236232802738,None,1780.8236232802738,None,1,1780.8236232802738,None,1781.7906661000452,None,1781.7906661000452,None,1781.7906661000452,None,1781.7906661000452,None,1781.7906661000452,None,1781.7906661000452,None,1781.7906661000452,None,1785.775549686281,None,1785.775549686281,None,1785.775549686281,None,1785.775549686281,None,1785.775549686281,None,1785.775549686281,None,1785.775549686281,None,1795.2792080753716,None,0.9340162028092891,1786.7759544673609,None,1787.7763029311318,None,0.68,7.502867386036087,1790.7774567971937,None,None,1790.7774567971937,None,,,,,,,,,,,,,,,,,,,,2019_Oct_09_1333,Mmi_3levels,3.1.5,59.98464465201621,
,,,3,1,4.5,,,,,,,,,0,2,2,2,0,13,13,25,,,,,,,,,,,,,,,,,,,,,,,,,,,,,,,,,,,,,,,,,,,,,,,,,,,,,,,,,,,True,False,True,0.68,-0.31999999999999995,-4.700000000000001,-1.5116666666666667,4.5,2.9883333333333333,1.4941666666666666,gamble,lose,2.9883333333333333,156.86625000000004,1797.2967083777767,None,1797.2967083777767,None,1797.2967083777767,None,1797.2967083777767,None,1797.2967083777767,None,1797.2967083777767,None,1797.2967083777767,None,1,1797.2967083777767,None,1798.180393491988,None,1798.180393491988,None,1798.180393491988,None,1798.180393491988,None,1798.180393491988,None,1798.180393491988,None,1798.180393491988,None,1802.16524251987,None,1802.16524251987,None,1802.16524251987,None,1802.16524251987,None,1802.16524251987,None,1802.16524251987,None,1802.16524251987,None,1803.1656255419366,None,0.850567941495683,,,,,,,,,,,,,,,,,,,,,,,,,,,,,,,2019_Oct_09_1333,Mmi_3levels,3.1.5,59.98464465201621,
,,,3,1,0.9,,,,,,,,,0,2,2,2,0,14,14,10,,,,,,,,,,,,,,,,,,,,,,,,,,,,,,,,,,,,,,,,,,,,,,,,,,,,,,,,,,,True,True,True,0.68,-0.31999999999999995,-5.020000000000001,9.5,0.9,-8.6,-3.8499999999999996,gamble,win,0.9,157.76625000000004,1805.183024089085,None,1805.183024089085,None,1805.183024089085,None,1805.183024089085,None,1805.183024089085,None,1805.183024089085,None,1805.183024089085,None,1,1805.183024089085,None,1806.6669608395896,None,1806.6669608395896,None,1806.6669608395896,None,1806.6669608395896,None,1806.6669608395896,None,1806.6669608395896,None,1806.6669608395896,None,1810.6685540451435,None,1810.6685540451435,None,1810.6685540451435,None,1810.6685540451435,None,1810.6685540451435,None,1810.6685540451435,None,1810.6685540451435,None,1811.6522258479963,None,1.4508256574044935,,,,,,,,,,,,,,,,,,,,,,,,,,,,,,,2019_Oct_09_1333,Mmi_3levels,3.1.5,59.98464465201621,
,,,3,1,8.5,,,,,,,,,0,2,2,2,0,15,15,11,,,,,,,,,,,,,,,,,,,,,,,,,,,,,,,,,,,,,,,,,,,,,,,,,,,,,,,,,,,True,False,True,0.68,-0.31999999999999995,-5.340000000000002,-1.565,8.5,6.9350000000000005,3.4675000000000002,gamble,lose,6.9350000000000005,164.70125000000004,1813.6697312701144,None,1813.6697312701144,None,1813.6697312701144,None,1813.6697312701144,None,1813.6697312701144,None,1813.6697312701144,None,1813.6697312701144,None,1,1813.6697312701144,None,1814.5366798862815,None,1814.5366798862815,None,1814.5366798862815,None,1814.5366798862815,None,1814.5366798862815,None,1814.5366798862815,None,1814.5366798862815,None,1818.5216098703677,None,1818.5216098703677,None,1818.5216098703677,None,1818.5216098703677,None,1818.5216098703677,None,1818.5216098703677,None,1818.5216098703677,None,1828.0253047377337,None,0.8338759213220328,1819.5219484145637,None,1820.5223115975969,None,0.72,7.502841467270628,1823.5235227409867,None,None,1823.5235227409867,None,,,,,,,,,,,,,,,,,,,,2019_Oct_09_1333,Mmi_3levels,3.1.5,59.98464465201621,
,,,3,1,8.3,,,,,,,,,0,2,2,2,0,16,16,8,,,,,,,,,,,,,,,,,,,,,,,,,,,,,,,,,,,,,,,,,,,,,,,,,,,,,,,,,,,True,True,True,0.72,-0.28,-5.620000000000002,9.540000000000003,8.3,-1.240000000000002,-0.620000000000001,gamble,win,8.3,173.00125000000006,1830.042694325326,None,1830.042694325326,None,1830.042694325326,None,1830.042694325326,None,1830.042694325326,None,1830.042694325326,None,1830.042694325326,None,1,1830.042694325326,None,1831.3265751423896,None,1831.3265751423896,None,1831.3265751423896,None,1831.3265751423896,None,1831.3265751423896,None,1831.3265751423896,None,1831.3265751423896,None,1835.3280921914848,None,1835.3280921914848,None,1835.3280921914848,None,1835.3280921914848,None,1835.3280921914848,None,1835.3280921914848,None,1835.3280921914848,None,1836.3118407907896,None,1.2507185264257714,,,,,,,,,,,,,,,,,,,,,,,,,,,,,,,2019_Oct_09_1333,Mmi_3levels,3.1.5,59.98464465201621,
,,,3,1,11.1,,,,,,,,,0,2,2,2,0,17,17,2,,,,,,,,,,,,,,,,,,,,,,,,,,,,,,,,,,,,,,,,,,,,,,,,,,,,,,,,,,,True,False,False,0.72,-0.28,-5.900000000000002,-1.471666666666667,11.1,9.628333333333332,4.814166666666666,gamble,lose,9.628333333333332,182.6295833333334,1838.329270056507,None,1838.329270056507,None,1838.329270056507,None,1838.329270056507,None,1838.329270056507,None,1838.329270056507,None,1838.329270056507,None,1,1838.329270056507,None,1839.2963106363313,None,1839.2963106363313,None,1839.2963106363313,None,1839.2963106363313,None,1839.2963106363313,None,1839.2963106363313,None,1839.2963106363313,None,1843.2978340851841,None,1843.2978340851841,None,1843.2978340851841,None,1843.2978340851841,None,1843.2978340851841,None,1843.2978340851841,None,1843.2978340851841,None,1852.7848586913897,None,0.9339374864357524,1844.2816015635617,None,1845.2819634666666,None,0.68,7.502341650601011,1848.2830917339306,None,None,1848.2830917339306,None,,,,,,,,,,,,,,,,,,,,2019_Oct_09_1333,Mmi_3levels,3.1.5,59.98464465201621,
,,,3,1,8.9,,,,,,,,,0,2,2,2,0,18,18,5,,,,,,,,,,,,,,,,,,,,,,,,,,,,,,,,,,,,,,,,,,,,,,,,,,,,,,,,,,,True,True,False,0.68,-0.31999999999999995,-6.220000000000002,10.700000000000003,8.9,-1.8000000000000025,-0.9000000000000012,gamble,win,8.9,191.5295833333334,1854.802297876624,None,1854.802297876624,None,1854.802297876624,None,1854.802297876624,None,1854.802297876624,None,1854.802297876624,None,1854.802297876624,None,1,1854.802297876624,None,1856.3195713096065,None,1856.3195713096065,None,1856.3195713096065,None,1856.3195713096065,None,1856.3195713096065,None,1856.3195713096065,None,1856.3195713096065,None,1860.3044292970444,None,1860.3044292970444,None,1860.3044292970444,None,1860.3044292970444,None,1860.3044292970444,None,1860.3044292970444,None,1860.3044292970444,None,1861.3048187188688,None,1.483974508708343,,,,,,,,,,,,,,,,,,,,,,,,,,,,,,,2019_Oct_09_1333,Mmi_3levels,3.1.5,59.98464465201621,
,,,3,1,12.3,,,,,,,,,0,2,2,2,0,19,19,9,,,,,,,,,,,,,,,,,,,,,,,,,,,,,,,,,,,,,,,,,,,,,,,,,,,,,,,,,,,True,True,True,0.68,-0.31999999999999995,-6.540000000000003,11.020000000000003,12.3,1.2799999999999976,0.6399999999999988,gamble,win,12.3,203.8295833333334,1863.3222678236198,None,1863.3222678236198,None,1863.3222678236198,None,1863.3222678236198,None,1863.3222678236198,None,1863.3222678236198,None,1863.3222678236198,None,1,1863.3222678236198,None,1864.622827861458,None,1864.622827861458,None,1864.622827861458,None,1864.622827861458,None,1864.622827861458,None,1864.622827861458,None,1864.622827861458,None,1868.607670809608,None,1868.607670809608,None,1868.607670809608,None,1868.607670809608,None,1868.607670809608,None,1868.607670809608,None,1868.607670809608,None,1878.1113951156149,None,1.2674595043063164,1869.6080650311778,None,1870.608476531983,None,0.68,7.502799869165756,1873.6095846401877,None,None,1873.6095846401877,None,,,,,,,,,,,,,,,,,,,,2019_Oct_09_1333,Mmi_3levels,3.1.5,59.98464465201621,
,,,3,1,12.9,,,,,,,,,0,2,2,2,0,20,20,1,,,,,,,,,,,,,,,,,,,,,,,,,,,,,,,,,,,,,,,,,,,,,,,,,,,,,,,,,,,True,True,True,0.68,-0.31999999999999995,-6.860000000000003,11.340000000000003,12.9,1.559999999999997,0.7799999999999985,gamble,win,12.9,216.7295833333334,1880.1287642241223,None,1880.1287642241223,None,1880.1287642241223,None,1880.1287642241223,None,1880.1287642241223,None,1880.1287642241223,None,1880.1287642241223,None,1,1880.1287642241223,None,1881.095860161411,None,1881.095860161411,None,1881.095860161411,None,1881.095860161411,None,1881.095860161411,None,1881.095860161411,None,1881.095860161411,None,1885.080688710208,None,1885.080688710208,None,1885.080688710208,None,1885.080688710208,None,1885.080688710208,None,1885.080688710208,None,1885.080688710208,None,1886.0810998909874,None,0.9339698049006984,,,,,,,,,,,,,,,,,,,,,,,,,,,,,,,2019_Oct_09_1333,Mmi_3levels,3.1.5,59.98464465201621,
,,,3,1,8.1,,,,,,,,,0,2,2,2,0,21,21,17,,,,,,,,,,,,,,,,,,,,,,,,,,,,,,,,,,,,,,,,,,,,,,,,,,,,,,,,,,,True,False,False,0.68,-0.31999999999999995,-7.180000000000003,-1.7183333333333335,8.1,6.381666666666666,3.190833333333333,gamble,lose,6.381666666666666,223.11125000000007,1888.098583234183,None,1888.098583234183,None,1888.098583234183,None,1888.098583234183,None,1888.098583234183,None,1888.098583234183,None,1888.098583234183,None,1,1888.098583234183,None,1889.6158585870871,None,1889.6158585870871,None,1889.6158585870871,None,1889.6158585870871,None,1889.6158585870871,None,1889.6158585870871,None,1889.6158585870871,None,1893.6007303338847,None,1893.6007303338847,None,1893.6007303338847,None,1893.6007303338847,None,1893.6007303338847,None,1893.6007303338847,None,1893.6007303338847,None,1894.6010970367352,None,1.4841249016462825,,,,,,,,,,,,,,,,,,,,,,,,,,,,,,,2019_Oct_09_1333,Mmi_3levels,3.1.5,59.98464465201621,
,,,3,1,-0.1,,,,,,,,,0,2,2,2,0,22,22,23,,,,,,,,,,,,,,,,,,,,,,,,,,,,,,,,,,,,,,,,,,,,,,,,,,,,,,,,,,,True,True,True,0.68,-0.31999999999999995,-7.5000000000000036,11.980000000000004,-0.1,-12.080000000000004,-6.090000000000002,gamble,win,-0.1,223.01125000000008,1896.6185279023484,None,1896.6185279023484,None,1896.6185279023484,None,1896.6185279023484,None,1896.6185279023484,None,1896.6185279023484,None,1896.6185279023484,None,1,1896.6185279023484,None,1898.1524635968963,None,1898.1524635968963,None,1898.1524635968963,None,1898.1524635968963,None,1898.1524635968963,None,1898.1524635968963,None,1898.1524635968963,None,1902.1539979251684,None,1902.1539979251684,None,1902.1539979251684,None,1902.1539979251684,None,1902.1539979251684,None,1902.1539979251684,None,1902.1539979251684,None,1911.641063169518,None,1.5008076422964223,1903.1378345203702,None,1904.1381132273236,None,0.71,7.502854266669601,1907.139285652549,None,None,1907.139285652549,None,,,,,,,,,,,,,,,,,,,,2019_Oct_09_1333,Mmi_3levels,3.1.5,59.98464465201621,
,,,3,1,3.3,,,,,,,,,0,2,2,2,0,23,23,7,,,,,,,,,,,,,,,,,,,,,,,,,,,,,,,,,,,,,,,,,,,,,,,,,,,,,,,,,,,True,True,False,0.71,-0.29000000000000004,-7.790000000000004,11.850000000000005,3.3,-8.550000000000004,-2.625000000000002,gamble,win,3.3,226.3112500000001,1913.6584869954386,None,1913.6584869954386,None,1913.6584869954386,None,1913.6584869954386,None,1913.6584869954386,None,1913.6584869954386,None,1913.6584869954386,None,1,1913.6584869954386,None,1915.0756771043525,None,1915.0756771043525,None,1915.0756771043525,None,1915.0756771043525,None,1915.0756771043525,None,1915.0756771043525,None,1915.0756771043525,None,1919.060615088034,None,1919.060615088034,None,1919.060615088034,None,1919.060615088034,None,1919.060615088034,None,1919.060615088034,None,1919.060615088034,None,1920.0609910704661,None,1.3841442927950993,,,,,,,,,,,,,,,,,,,,,,,,,,,,,,,2019_Oct_09_1333,Mmi_3levels,3.1.5,59.98464465201621,
,,,3,1,13.5,,,,,,,,,0,2,2,2,0,24,24,0,,,,,,,,,,,,,,,,,,,,,,,,,,,,,,,,,,,,,,,,,,,,,,,,,,,,,,,,,,,True,True,True,0.71,-0.29000000000000004,-8.080000000000004,12.140000000000004,13.5,1.3599999999999959,0.6799999999999979,gamble,win,13.5,239.8112500000001,1922.0784164963407,None,1922.0784164963407,None,1922.0784164963407,None,1922.0784164963407,None,1922.0784164963407,None,1922.0784164963407,None,1922.0784164963407,None,1,1922.0784164963407,None,1922.828720962163,None,1922.828720962163,None,1922.828720962163,None,1922.828720962163,None,1922.828720962163,None,1922.828720962163,None,1922.828720962163,None,1926.8135597504443,None,1926.8135597504443,None,1926.8135597504443,None,1926.8135597504443,None,1926.8135597504443,None,1926.8135597504443,None,1926.8135597504443,None,1936.3172536579077,None,0.7171892129117623,1927.813972851145,None,1928.8143587531522,None,0.67,7.5030529773794115,1931.8155494175153,None,None,1931.8155494175153,None,,,,,,,,,,,,,,,,,,,,2019_Oct_09_1333,Mmi_3levels,3.1.5,59.98464465201621,
,,,3,1,13.1,,,,,,,,,0,2,2,2,0,25,25,20,,,,,,,,,,,,,,,,,,,,,,,,,,,,,,,,,,,,,,,,,,,,,,,,,,,,,,,,,,,True,True,False,0.67,-0.32999999999999996,-8.410000000000004,13.030000000000003,13.1,0.06999999999999673,0.034999999999998366,gamble,win,13.1,252.91125000000008,1938.3347530002939,None,1938.3347530002939,None,1938.3347530002939,None,1938.3347530002939,None,1938.3347530002939,None,1938.3347530002939,None,1938.3347530002939,None,1,1938.3347530002939,None,1939.6018835599534,None,1939.6018835599534,None,1939.6018835599534,None,1939.6018835599534,None,1939.6018835599534,None,1939.6018835599534,None,1939.6018835599534,None,1943.5867348277243,None,1943.5867348277243,None,1943.5867348277243,None,1943.5867348277243,None,1943.5867348277243,None,1943.5867348277243,None,1943.5867348277243,None,1944.5871056903852,None,1.2339980275719427,,,,,,,,,,,,,,,,,,,,,,,,,,,,,,,2019_Oct_09_1333,Mmi_3levels,3.1.5,59.98464465201621,
,,,3,1,5.5,,,,,,,,,0,2,2,2,0,26,26,4,,,,,,,,,,,,,,,,,,,,,,,,,,,,,,,,,,,,,,,,,,,,,,,,,,,,,,,,,,,True,False,True,0.67,-0.32999999999999996,-8.740000000000004,-1.8833333333333333,5.5,3.6166666666666667,1.8083333333333333,gamble,lose,3.6166666666666667,256.5279166666667,1946.6045890335809,None,1946.6045890335809,None,1946.6045890335809,None,1946.6045890335809,None,1946.6045890335809,None,1946.6045890335809,None,1946.6045890335809,None,1,1946.6045890335809,None,1948.2052476907847,None,1948.2052476907847,None,1948.2052476907847,None,1948.2052476907847,None,1948.2052476907847,None,1948.2052476907847,None,1948.2052476907847,None,1952.1901171976933,None,1952.1901171976933,None,1952.1901171976933,None,1952.1901171976933,None,1952.1901171976933,None,1952.1901171976933,None,1952.1901171976933,None,1961.6937381485477,None,1.5675370046519674,1953.1904935001512,None,1954.1908797220676,None,0.73,7.502358929777984,1957.1919993497431,None,None,1957.1919993497431,None,,,,,,,,,,,,,,,,,,,,2019_Oct_09_1333,Mmi_3levels,3.1.5,59.98464465201621,
,,,,,,,,,,,,,,,,,,,,,,,,,,,,,,0,0,0,0,,,,,,,,,,,,,,,,,,,,,,,,,,,,,,,,,,,,,,,,,,,,,,,,,,,,,,,,,,,,,,,,,,,,,,,,,,,,,,,,,,,,,,,,,,,,,,,,,,,,,,,,,,,,,,,,,,,,,,,,1963.6945864288718,None,4,3.5182100292295218,1963.6945864288718,None,256.5279166666667,5,1967.24593730981,None,1967.24593730981,None,1967.24593730981,None,4,12.254950648697559,1967.24593730981,None,,2019_Oct_09_1333,Mmi_3levels,3.1.5,59.98464465201621,
