currSlide,currImage,currText,blockNum,targetHappiness,highAmount,instructionLoop1.thisRepN,instructionLoop1.thisTrialN,instructionLoop1.thisN,instructionLoop1.thisIndex,instructionLoop2.thisRepN,instructionLoop2.thisTrialN,instructionLoop2.thisN,instructionLoop2.thisIndex,blockLoop.thisRepN,blockLoop.thisTrialN,blockLoop.thisN,blockLoop.thisIndex,trialLoop.thisRepN,trialLoop.thisTrialN,trialLoop.thisN,trialLoop.thisIndex,doRatingLoop.thisRepN,doRatingLoop.thisTrialN,doRatingLoop.thisN,doRatingLoop.thisIndex,trialHappyLoop.thisRepN,trialHappyLoop.thisTrialN,trialHappyLoop.thisN,trialHappyLoop.thisIndex,logWinningsLoop.thisRepN,logWinningsLoop.thisTrialN,logWinningsLoop.thisN,logWinningsLoop.thisIndex,instrImage.started,instrImage.stopped,instrText.started,instrText.stopped,instrContinueText.started,instrContinueText.stopped,instrKeyResp.keys,instrKeyResp.rt,instrKeyResp.started,instrKeyResp.stopped,lifeHappyText.started,lifeHappyText.stopped,lifeHappySlider.response,lifeHappySlider.rt,lifeHappySlider.started,lifeHappySlider.stopped,lifeHappyResp.keys,lifeHappyResp.started,lifeHappyResp.stopped,instrImage_2.started,instrImage_2.stopped,instrText_2.started,instrText_2.stopped,instrContinueText_2.started,instrContinueText_2.stopped,instrKeyResp_2.keys,instrKeyResp_2.rt,instrKeyResp_2.started,instrKeyResp_2.stopped,localizing.started,localizing.stopped,start_exp.keys,start_exp.rt,start_exp.started,start_exp.stopped,blockHappyText.started,blockHappyText.stopped,blockHappySlider.response,blockHappySlider.rt,blockHappySlider.started,blockHappySlider.stopped,blockHappyResp.keys,blockHappyResp.started,blockHappyResp.stopped,blankText.started,blankText.stopped,isHappyBlock,isCongruent,isWinOnTop,lastHappyRating,diff,sumDiff,RPE,winAmount,loseAmount,certainAmount,choice,outcome,outcomeAmount,currentWinnings,fixCross.started,fixCross.stopped,certainBox.started,certainBox.stopped,outcome1Box.started,outcome1Box.stopped,outcome2Box.started,outcome2Box.stopped,certainText.started,certainText.stopped,outcome1Text.started,outcome1Text.stopped,outcome2Text.started,outcome2Text.stopped,choiceKey.keys,choiceKey.rt,choiceKey.started,choiceKey.stopped,fixCross_2.started,fixCross_2.stopped,certainBox_2.started,certainBox_2.stopped,outcome1Box_2.started,outcome1Box_2.stopped,outcome2Box_2.started,outcome2Box_2.stopped,certainText_2.started,certainText_2.stopped,outcome1Text_2.started,outcome1Text_2.stopped,outcome2Text_2.started,outcome2Text_2.stopped,fixCross_3.started,fixCross_3.stopped,certainBox_3.started,certainBox_3.stopped,outcome1Box_3.started,outcome1Box_3.stopped,outcome2Box_3.started,outcome2Box_3.stopped,certainText_3.started,certainText_3.stopped,outcome1Text_3.started,outcome1Text_3.stopped,outcome2Text_3.started,outcome2Text_3.stopped,fixCross_ITI.started,fixCross_ITI.stopped,fixCross_ISI.started,fixCross_ISI.stopped,happyText.started,happyText.stopped,happySlider.response,happySlider.rt,happySlider.started,happySlider.stopped,happyResp.keys,happyResp.started,happyResp.stopped,endOfBlockText.started,endOfBlockText.stopped,restKeyResp.keys,restKeyResp.rt,restKeyResp.started,restKeyResp.stopped,finalWinnings,cashBonus,goodbyeText.started,goodbyeText.stopped,finalWinningsText.started,finalWinningsText.stopped,spaceToContinue.started,spaceToContinue.stopped,goodbyeKeyResp_2.keys,goodbyeKeyResp_2.rt,goodbyeKeyResp_2.started,goodbyeKeyResp_2.stopped,participant,date,expName,psychopyVersion,frameRate,
1,black.png,"Welcome! You are about to play our gambling task.
This task has 3 blocks and takes about 15 minutes.",,,,0,0,0,0,,,,,,,,,,,,,,,,,,,,,,,,,12.289926999073941,None,12.289926999073941,None,12.289926999073941,None,4,712.5181900737225,12.289926999073941,None,,,,,,,,,,,,,,,,,,,,,,,,,,,,,,,,,,,,,,,,,,,,,,,,,,,,,,,,,,,,,,,,,,,,,,,,,,,,,,,,,,,,,,,,,,,,,,,,,,,,,,,,,,,,,,,,,,,,,,,,,,,,,,,,24213,2019_Sep_23_1700,Mmi_3levels,3.1.5,59.97650964758672,
2,black.png,"In this game, you may win or lose points. Your goal is to get as many points as possible. These points will be converted to a cash bonus at the end.
Sometimes we will ask you to rate your mood.",,,,0,1,1,1,,,,,,,,,,,,,,,,,,,,,,,,,724.857869629981,None,724.857869629981,None,724.857869629981,None,4,17.22355580475414,724.857869629981,None,,,,,,,,,,,,,,,,,,,,,,,,,,,,,,,,,,,,,,,,,,,,,,,,,,,,,,,,,,,,,,,,,,,,,,,,,,,,,,,,,,,,,,,,,,,,,,,,,,,,,,,,,,,,,,,,,,,,,,,,,,,,,,,,24213,2019_Sep_23_1700,Mmi_3levels,3.1.5,59.97650964758672,
3,black.png,"On the next screen, please rate how you feel about your life these days. Use the LEFT (green) and RIGHT (blue) buttons to move the slider (you can press and hold them to slide gradually) and the TOP (red) button to lock in your response.
Make your rating as accurately and quickly as you can!",,,,0,2,2,2,,,,,,,,,,,,,,,,,,,,,,,,,742.131161992671,None,742.131161992671,None,742.131161992671,None,4,26.793842951068655,742.131161992671,None,,,,,,,,,,,,,,,,,,,,,,,,,,,,,,,,,,,,,,,,,,,,,,,,,,,,,,,,,,,,,,,,,,,,,,,,,,,,,,,,,,,,,,,,,,,,,,,,,,,,,,,,,,,,,,,,,,,,,,,,,,,,,,,,24213,2019_Sep_23_1700,Mmi_3levels,3.1.5,59.97650964758672,
,,,,,,,,,,,,,,,,,,,,,,,,,,,,,,,,,,,,,,,,,,,,768.9414059925475,None,1.0,10.502836649306118,772.9429406310082,None,None,772.9429406310082,None,,,,,,,,,,,,,,,,,,,,,,,,,,,,,,,,,,,,,,,,,,,,,,,,,,,,,,,,,,,,,,,,,,,,,,,,,,,,,,,,,,,,,,,,,,,,,,,,,,,,,,,,,,,,,,,,,,,,,,,24213,2019_Sep_23_1700,Mmi_3levels,3.1.5,59.97650964758672,
4,black.png,"In this game you can win money by earning points according to your choices. You will decide whether to gamble a number of points or stick with a guaranteed number of points. 
Make your choice by pressing the left or right arrow key once. An example of one trial is shown on the next screen.",,,,,,,,0,0,0,0,,,,,,,,,,,,,,,,,,,,,,,,,,,,,,,,,,,,,,,,779.4787691278034,None,779.4787691278034,None,779.4787691278034,None,4,21.84191655740142,779.4787691278034,None,,,,,,,,,,,,,,,,,,,,,,,,,,,,,,,,,,,,,,,,,,,,,,,,,,,,,,,,,,,,,,,,,,,,,,,,,,,,,,,,,,,,,,,,,,,,,,,,,,,,,,,,,,,,,24213,2019_Sep_23_1700,Mmi_3levels,3.1.5,59.97650964758672,
5,example_start.png,"The GAMBLING OPTION will be shown on the RIGHT SIDE. 
Select this option using the RIGHT (blue) button on your keypad.",,,,,,,,0,1,1,1,,,,,,,,,,,,,,,,,,,,,,,,,,,,,,,,,,,,,,,,801.3871711134561,None,801.3871711134561,None,801.3871711134561,None,4,8.303374924696982,801.3871711134561,None,,,,,,,,,,,,,,,,,,,,,,,,,,,,,,,,,,,,,,,,,,,,,,,,,,,,,,,,,,,,,,,,,,,,,,,,,,,,,,,,,,,,,,,,,,,,,,,,,,,,,,,,,,,,,24213,2019_Sep_23_1700,Mmi_3levels,3.1.5,59.97650964758672,
6,example_gamble.png,"Once you select the gambling choice, the choice you made will remain on the screen.",,,,,,,,0,2,2,2,,,,,,,,,,,,,,,,,,,,,,,,,,,,,,,,,,,,,,,,809.723714836291,None,809.723714836291,None,809.723714836291,None,4,5.6189930390683,809.723714836291,None,,,,,,,,,,,,,,,,,,,,,,,,,,,,,,,,,,,,,,,,,,,,,,,,,,,,,,,,,,,,,,,,,,,,,,,,,,,,,,,,,,,,,,,,,,,,,,,,,,,,,,,,,,,,,24213,2019_Sep_23_1700,Mmi_3levels,3.1.5,59.97650964758672,
7,example_win.png,"The outcome you received will then be shown on the screen. In this example , you WON 10 points.",,,,,,,,0,3,3,3,,,,,,,,,,,,,,,,,,,,,,,,,,,,,,,,,,,,,,,,815.3758542746073,None,815.3758542746073,None,815.3758542746073,None,4,6.319288639351726,815.3758542746073,None,,,,,,,,,,,,,,,,,,,,,,,,,,,,,,,,,,,,,,,,,,,,,,,,,,,,,,,,,,,,,,,,,,,,,,,,,,,,,,,,,,,,,,,,,,,,,,,,,,,,,,,,,,,,,24213,2019_Sep_23_1700,Mmi_3levels,3.1.5,59.97650964758672,
8,example_start.png,"The GUARANTEED OPTION will be shown on the LEFT SIDE. You are 100% guaranteed to gain or lose this amount. In this example, you have a 100% chance of winning 1 point. Select this option using the LEFT (green) button on your keyboard.",,,,,,,,0,4,4,4,,,,,,,,,,,,,,,,,,,,,,,,,,,,,,,,,,,,,,,,821.744982506556,None,821.744982506556,None,821.744982506556,None,4,8.553419242380187,821.744982506556,None,,,,,,,,,,,,,,,,,,,,,,,,,,,,,,,,,,,,,,,,,,,,,,,,,,,,,,,,,,,,,,,,,,,,,,,,,,,,,,,,,,,,,,,,,,,,,,,,,,,,,,,,,,,,,24213,2019_Sep_23_1700,Mmi_3levels,3.1.5,59.97650964758672,
9,example_certain.png,"Once you select the guaranteed choice, your selection will remain on the screen.",,,,,,,,0,5,5,5,,,,,,,,,,,,,,,,,,,,,,,,,,,,,,,,,,,,,,,,830.3315651072771,None,830.3315651072771,None,830.3315651072771,None,4,11.654643305344507,830.3315651072771,None,,,,,,,,,,,,,,,,,,,,,,,,,,,,,,,,,,,,,,,,,,,,,,,,,,,,,,,,,,,,,,,,,,,,,,,,,,,,,,,,,,,,,,,,,,,,,,,,,,,,,,,,,,,,,24213,2019_Sep_23_1700,Mmi_3levels,3.1.5,59.97650964758672,
10,black.png,"Please make your choices as fast as possible.
You will be given a break at the end of each block.
Let's play!",,,,,,,,0,6,6,6,,,,,,,,,,,,,,,,,,,,,,,,,,,,,,,,,,,,,,,,842.0193583316868,None,842.0193583316868,None,842.0193583316868,None,4,5.469074602704495,842.0193583316868,None,,,,,,,,,,,,,,,,,,,,,,,,,,,,,,,,,,,,,,,,,,,,,,,,,,,,,,,,,,,,,,,,,,,,,,,,,,,,,,,,,,,,,,,,,,,,,,,,,,,,,,,,,,,,,24213,2019_Sep_23_1700,Mmi_3levels,3.1.5,59.97650964758672,
,,,,,,,,,,,,,,,,,,,,,,,,,,,,,,,,,,,,,,,,,,,,,,,,,,,,,,,,,,,,,,,847.5047853458091,None,space,23.409171224804595,847.5047853458091,None,,,,,,,,,,,,,,,,,,,,,,,,,,,,,,,,,,,,,,,,,,,,,,,,,,,,,,,,,,,,,,,,,,,,,,,,,,,,,,,,,,,,,,,,,,,,,,,,,,,,,,,24213,2019_Sep_23_1700,Mmi_3levels,3.1.5,59.97650964758672,
,,,1,1,10.1,,,,,,,,,0,0,0,0,0,0,0,16,,,,,,,,,,,,,,,,,,,,,,,,,,,,,,,,,,,,,,,,,,,,,,,,870.9304008171312,None,0.93,7.495906137453858,873.9482280301163,None,None,873.9482280301163,None,878.4332720246166,None,True,False,True,0.93,-0.06999999999999995,-0.06999999999999995,-0.25083333333333313,10.1,9.849166666666667,4.9245833333333335,gamble,lose,9.849166666666667,9.849166666666667,881.467768432165,None,881.467768432165,None,881.467768432165,None,881.467768432165,None,881.467768432165,None,881.467768432165,None,881.467768432165,None,1,1.417478303599637,881.467768432165,None,882.9183665763703,None,882.9183665763703,None,882.9183665763703,None,882.9183665763703,None,882.9183665763703,None,882.9183665763703,None,882.9183665763703,None,886.9032281805412,None,886.9032281805412,None,886.9032281805412,None,886.9032281805412,None,886.9032281805412,None,886.9032281805412,None,886.9032281805412,None,887.903567042551,None,,,,,,,,,,,,,,,,,,,,,,,,,,,,,,24213,2019_Sep_23_1700,Mmi_3levels,3.1.5,59.97650964758672,
,,,1,1,13.7,,,,,,,,,0,0,0,0,0,1,1,1,,,,,,,,,,,,,,,,,,,,,,,,,,,,,,,,,,,,,,,,,,,,,,,,,,,,,,,,,,,True,True,True,0.93,-0.06999999999999995,-0.1399999999999999,1.1199999999999992,13.7,12.58,6.29,gamble,win,13.7,23.549166666666665,889.9210457940353,None,889.9210457940353,None,889.9210457940353,None,889.9210457940353,None,889.9210457940353,None,889.9210457940353,None,889.9210457940353,None,1,1.6840209448128007,889.9210457940353,None,891.6384179272573,None,891.6384179272573,None,891.6384179272573,None,891.6384179272573,None,891.6384179272573,None,891.6384179272573,None,891.6384179272573,None,895.6232273741625,None,895.6232273741625,None,895.6232273741625,None,895.6232273741625,None,895.6232273741625,None,895.6232273741625,None,895.6232273741625,None,896.6235649562441,None,,,,,,,,,,,,,,,,,,,,,,,,,,,,,,24213,2019_Sep_23_1700,Mmi_3levels,3.1.5,59.97650964758672,
,,,1,1,6.5,,,,,,,,,0,0,0,0,0,2,2,20,,,,,,,,,,,,,,,,,,,,,,,,,,,,,,,,,,,,,,,,,,,,,,,,,,,,,,,,,,,True,True,False,0.93,-0.06999999999999995,-0.20999999999999985,1.189999999999999,6.5,5.3100000000000005,2.6550000000000002,gamble,win,6.5,30.049166666666665,898.6409547525109,None,898.6409547525109,None,898.6409547525109,None,898.6409547525109,None,898.6409547525109,None,898.6409547525109,None,898.6409547525109,None,1,2.3678508597658947,898.6409547525109,None,901.0419440119294,None,901.0419440119294,None,901.0419440119294,None,901.0419440119294,None,901.0419440119294,None,901.0419440119294,None,901.0419440119294,None,905.0268222552259,None,905.0268222552259,None,905.0268222552259,None,905.0268222552259,None,905.0268222552259,None,905.0268222552259,None,905.0268222552259,None,914.5304111845908,None,906.0272260737838,None,907.0275460567791,None,0.93,7.502835049410351,910.0286931958399,None,None,910.0286931958399,None,,,,,,,,,,,,,,,,,,,24213,2019_Sep_23_1700,Mmi_3levels,3.1.5,59.97650964758672,
,,,1,1,2.9,,,,,,,,,0,0,0,0,0,3,3,17,,,,,,,,,,,,,,,,,,,,,,,,,,,,,,,,,,,,,,,,,,,,,,,,,,,,,,,,,,,True,True,True,0.93,-0.06999999999999995,-0.2799999999999998,1.2599999999999991,2.9,1.6400000000000008,0.8200000000000004,gamble,win,2.9,32.94916666666666,916.5478518581367,None,916.5478518581367,None,916.5478518581367,None,916.5478518581367,None,916.5478518581367,None,916.5478518581367,None,916.5478518581367,None,1,1.1340773578267545,916.5478518581367,None,917.7150023391005,None,917.7150023391005,None,917.7150023391005,None,917.7150023391005,None,917.7150023391005,None,917.7150023391005,None,917.7150023391005,None,921.6998169057188,None,921.6998169057188,None,921.6998169057188,None,921.6998169057188,None,921.6998169057188,None,921.6998169057188,None,921.6998169057188,None,922.7001996054314,None,,,,,,,,,,,,,,,,,,,,,,,,,,,,,,24213,2019_Sep_23_1700,Mmi_3levels,3.1.5,59.97650964758672,
,,,1,1,0.7,,,,,,,,,0,0,0,0,0,4,4,8,,,,,,,,,,,,,,,,,,,,,,,,,,,,,,,,,,,,,,,,,,,,,,,,,,,,,,,,,,,True,False,True,0.93,-0.06999999999999995,-0.34999999999999976,-0.27416666666666645,0.7,0.4258333333333335,0.5629166666666667,gamble,lose,0.4258333333333335,33.375,924.7176866764785,None,924.7176866764785,None,924.7176866764785,None,924.7176866764785,None,924.7176866764785,None,924.7176866764785,None,924.7176866764785,None,1,2.201082438463345,924.7176866764785,None,926.9518239991157,None,926.9518239991157,None,926.9518239991157,None,926.9518239991157,None,926.9518239991157,None,926.9518239991157,None,926.9518239991157,None,930.9366795236128,None,930.9366795236128,None,930.9366795236128,None,930.9366795236128,None,930.9366795236128,None,930.9366795236128,None,930.9366795236128,None,940.4403206101852,None,931.937066063052,None,932.9374503626605,None,0.76,7.502702256431803,935.938577662746,None,None,935.938577662746,None,,,,,,,,,,,,,,,,,,,24213,2019_Sep_23_1700,Mmi_3levels,3.1.5,59.97650964758672,
,,,1,1,9.5,,,,,,,,,0,0,0,0,0,5,5,14,,,,,,,,,,,,,,,,,,,,,,,,,,,,,,,,,,,,,,,,,,,,,,,,,,,,,,,,,,,True,True,True,0.76,-0.24,-0.5899999999999997,3.9499999999999997,9.5,5.550000000000001,2.7750000000000004,gamble,win,9.5,42.875,942.4577939219889,None,942.4577939219889,None,942.4577939219889,None,942.4577939219889,None,942.4577939219889,None,942.4577939219889,None,942.4577939219889,None,1,1.200691739213653,942.4577939219889,None,943.6915562245413,None,943.6915562245413,None,943.6915562245413,None,943.6915562245413,None,943.6915562245413,None,943.6915562245413,None,943.6915562245413,None,947.6764162287582,None,947.6764162287582,None,947.6764162287582,None,947.6764162287582,None,947.6764162287582,None,947.6764162287582,None,947.6764162287582,None,948.6768395662657,None,,,,,,,,,,,,,,,,,,,,,,,,,,,,,,24213,2019_Sep_23_1700,Mmi_3levels,3.1.5,59.97650964758672,
,,,1,1,12.5,,,,,,,,,0,0,0,0,0,6,6,12,,,,,,,,,,,,,,,,,,,,,,,,,,,,,,,,,,,,,,,,,,,,,,,,,,,,,,,,,,,True,True,False,0.76,-0.24,-0.8299999999999997,4.1899999999999995,12.5,8.31,4.155,gamble,win,12.5,55.375,950.694243121834,None,950.694243121834,None,950.694243121834,None,950.694243121834,None,950.694243121834,None,950.694243121834,None,950.694243121834,None,1,1.1673738291137852,950.694243121834,None,951.8947924686363,None,951.8947924686363,None,951.8947924686363,None,951.8947924686363,None,951.8947924686363,None,951.8947924686363,None,951.8947924686363,None,955.8795971157961,None,955.8795971157961,None,955.8795971157961,None,955.8795971157961,None,955.8795971157961,None,955.8795971157961,None,955.8795971157961,None,956.8799372577341,None,,,,,,,,,,,,,,,,,,,,,,,,,,,,,,24213,2019_Sep_23_1700,Mmi_3levels,3.1.5,59.97650964758672,
,,,1,1,11.9,,,,,,,,,0,0,0,0,0,7,7,25,,,,,,,,,,,,,,,,,,,,,,,,,,,,,,,,,,,,,,,,,,,,,,,,,,,,,,,,,,,True,False,True,0.76,-0.24,-1.0699999999999998,-0.9291666666666666,11.9,10.970833333333333,5.485416666666667,gamble,lose,10.970833333333333,66.34583333333333,958.897377291345,None,958.897377291345,None,958.897377291345,None,958.897377291345,None,958.897377291345,None,958.897377291345,None,958.897377291345,None,1,1.1339989620028064,958.897377291345,None,960.0644605758716,None,960.0644605758716,None,960.0644605758716,None,960.0644605758716,None,960.0644605758716,None,960.0644605758716,None,960.0644605758716,None,964.0493458587443,None,964.0493458587443,None,964.0493458587443,None,964.0493458587443,None,964.0493458587443,None,964.0493458587443,None,964.0493458587443,None,973.5529834255576,None,965.0497237587115,None,966.0501074183267,None,0.84,7.502891046460718,969.0512519975309,None,None,969.0512519975309,None,,,,,,,,,,,,,,,,,,,24213,2019_Sep_23_1700,Mmi_3levels,3.1.5,59.97650964758672,
,,,1,1,11.7,,,,,,,,,0,0,0,0,0,8,8,23,,,,,,,,,,,,,,,,,,,,,,,,,,,,,,,,,,,,,,,,,,,,,,,,,,,,,,,,,,,True,True,False,0.84,-0.16000000000000003,-1.23,3.47,11.7,8.229999999999999,4.114999999999999,gamble,win,11.7,78.04583333333333,975.5703921007807,None,975.5703921007807,None,975.5703921007807,None,975.5703921007807,None,975.5703921007807,None,975.5703921007807,None,975.5703921007807,None,1,1.0507301051984541,975.5703921007807,None,976.6542055686004,None,976.6542055686004,None,976.6542055686004,None,976.6542055686004,None,976.6542055686004,None,976.6542055686004,None,976.6542055686004,None,980.6390527735348,None,980.6390527735348,None,980.6390527735348,None,980.6390527735348,None,980.6390527735348,None,980.6390527735348,None,980.6390527735348,None,981.6394034749246,None,,,,,,,,,,,,,,,,,,,,,,,,,,,,,,24213,2019_Sep_23_1700,Mmi_3levels,3.1.5,59.97650964758672,
,,,1,1,-1.1,,,,,,,,,0,0,0,0,0,9,9,4,,,,,,,,,,,,,,,,,,,,,,,,,,,,,,,,,,,,,,,,,,,,,,,,,,,,,,,,,,,True,True,False,0.84,-0.16000000000000003,-1.3900000000000001,3.6300000000000003,-1.1,-4.73,-2.915,certain,certain,-2.915,75.13083333333333,983.6568406286533,None,983.6568406286533,None,983.6568406286533,None,983.6568406286533,None,983.6568406286533,None,983.6568406286533,None,983.6568406286533,None,3,2.834700300707482,983.6568406286533,None,986.5245730946772,None,986.5245730946772,None,986.5245730946772,None,986.5245730946772,None,986.5245730946772,None,986.5245730946772,None,986.5245730946772,None,990.5094554977259,None,990.5094554977259,None,990.5094554977259,None,990.5094554977259,None,990.5094554977259,None,990.5094554977259,None,990.5094554977259,None,1000.0130786652444,None,991.5098426771583,None,992.5102228169562,None,0.42,7.502775212575216,995.5114147536806,None,None,995.5114147536806,None,,,,,,,,,,,,,,,,,,,24213,2019_Sep_23_1700,Mmi_3levels,3.1.5,59.97650964758672,
,,,1,1,-0.5,,,,,,,,,0,0,0,0,0,10,10,19,,,,,,,,,,,,,,,,,,,,,,,,,,,,,,,,,,,,,,,,,,,,,,,,,,,,,,,,,,,True,False,False,0.42,-0.5800000000000001,-1.9700000000000002,-2.194166666666667,-0.5,-2.694166666666667,-1.5970833333333334,certain,certain,-1.5970833333333334,73.53375,1002.0305465373676,None,1002.0305465373676,None,1002.0305465373676,None,1002.0305465373676,None,1002.0305465373676,None,1002.0305465373676,None,1002.0305465373676,None,3,1.834338079963345,1002.0305465373676,None,1003.8979103830061,None,1003.8979103830061,None,1003.8979103830061,None,1003.8979103830061,None,1003.8979103830061,None,1003.8979103830061,None,1003.8979103830061,None,1007.899442781636,None,1007.899442781636,None,1007.899442781636,None,1007.899442781636,None,1007.899442781636,None,1007.899442781636,None,1007.899442781636,None,1008.8831553268246,None,,,,,,,,,,,,,,,,,,,,,,,,,,,,,,24213,2019_Sep_23_1700,Mmi_3levels,3.1.5,59.97650964758672,
,,,1,1,6.7,,,,,,,,,0,0,0,0,0,11,11,10,,,,,,,,,,,,,,,,,,,,,,,,,,,,,,,,,,,,,,,,,,,,,,,,,,,,,,,,,,,True,False,True,0.42,-0.5800000000000001,-2.5500000000000003,-2.2425,6.7,4.4575,2.22875,gamble,lose,4.4575,77.99125,1010.9005857608863,None,1010.9005857608863,None,1010.9005857608863,None,1010.9005857608863,None,1010.9005857608863,None,1010.9005857608863,None,1010.9005857608863,None,1,2.0510596876847558,1010.9005857608863,None,1012.984717291838,None,1012.984717291838,None,1012.984717291838,None,1012.984717291838,None,1012.984717291838,None,1012.984717291838,None,1012.984717291838,None,1016.9695760161267,None,1016.9695760161267,None,1016.9695760161267,None,1016.9695760161267,None,1016.9695760161267,None,1016.9695760161267,None,1016.9695760161267,None,1026.4732094231294,None,1017.9699567959178,None,1018.9703897329164,None,0.69,7.502792491635773,1021.9714875945938,None,None,1021.9714875945938,None,,,,,,,,,,,,,,,,,,,24213,2019_Sep_23_1700,Mmi_3levels,3.1.5,59.97650964758672,
,,,1,1,9.3,,,,,,,,,0,0,0,0,0,12,12,0,,,,,,,,,,,,,,,,,,,,,,,,,,,,,,,,,,,,,,,,,,,,,,,,,,,,,,,,,,,True,True,True,0.69,-0.31000000000000005,-2.8600000000000003,7.200000000000001,9.3,2.0999999999999996,1.0499999999999998,gamble,win,9.3,87.29124999999999,1028.4906484967796,None,1028.4906484967796,None,1028.4906484967796,None,1028.4906484967796,None,1028.4906484967796,None,1028.4906484967796,None,1028.4906484967796,None,1,1.2340710861608386,1028.4906484967796,None,1029.757799745712,None,1029.757799745712,None,1029.757799745712,None,1029.757799745712,None,1029.757799745712,None,1029.757799745712,None,1029.757799745712,None,1033.7426584700006,None,1033.7426584700006,None,1033.7426584700006,None,1033.7426584700006,None,1033.7426584700006,None,1033.7426584700006,None,1033.7426584700006,None,1034.743036049942,None,,,,,,,,,,,,,,,,,,,,,,,,,,,,,,24213,2019_Sep_23_1700,Mmi_3levels,3.1.5,59.97650964758672,
,,,1,1,7.3,,,,,,,,,0,0,0,0,0,13,13,2,,,,,,,,,,,,,,,,,,,,,,,,,,,,,,,,,,,,,,,,,,,,,,,,,,,,,,,,,,,True,True,True,0.69,-0.31000000000000005,-3.1700000000000004,7.510000000000002,7.3,-0.21000000000000174,-0.10500000000000087,gamble,win,7.3,94.59124999999999,1036.7604719237424,None,1036.7604719237424,None,1036.7604719237424,None,1036.7604719237424,None,1036.7604719237424,None,1036.7604719237424,None,1036.7604719237424,None,1,2.0843996766489,1036.7604719237424,None,1038.8779972008197,None,1038.8779972008197,None,1038.8779972008197,None,1038.8779972008197,None,1038.8779972008197,None,1038.8779972008197,None,1038.8779972008197,None,1042.8628056877642,None,1042.8628056877642,None,1042.8628056877642,None,1042.8628056877642,None,1042.8628056877642,None,1042.8628056877642,None,1042.8628056877642,None,1043.8631906273076,None,,,,,,,,,,,,,,,,,,,,,,,,,,,,,,24213,2019_Sep_23_1700,Mmi_3levels,3.1.5,59.97650964758672,
,,,1,1,0.5,,,,,,,,,0,0,0,0,0,14,14,3,,,,,,,,,,,,,,,,,,,,,,,,,,,,,,,,,,,,,,,,,,,,,,,,,,,,,,,,,,,True,False,True,0.69,-0.31000000000000005,-3.4800000000000004,-1.3750000000000002,0.5,-0.8750000000000002,-0.1875000000000001,certain,certain,-0.1875000000000001,94.40374999999999,1045.9306241652812,None,1045.9306241652812,None,1045.9306241652812,None,1045.9306241652812,None,1045.9306241652812,None,1045.9306241652812,None,1045.9306241652812,None,3,2.5179164882865734,1045.9306241652812,None,1048.4816236961633,None,1048.4816236961633,None,1048.4816236961633,None,1048.4816236961633,None,1048.4816236961633,None,1048.4816236961633,None,1048.4816236961633,None,1052.483148735133,None,1052.483148735133,None,1052.483148735133,None,1052.483148735133,None,1052.483148735133,None,1052.483148735133,None,1052.483148735133,None,1061.9701551853796,None,1053.4668340818025,None,1054.4672449399368,None,0.77,7.502742574317381,1057.468389519141,None,None,1057.468389519141,None,,,,,,,,,,,,,,,,,,,24213,2019_Sep_23_1700,Mmi_3levels,3.1.5,59.97650964758672,
,,,1,1,10.5,,,,,,,,,0,0,0,0,0,15,15,9,,,,,,,,,,,,,,,,,,,,,,,,,,,,,,,,,,,,,,,,,,,,,,,,,,,,,,,,,,,True,True,True,0.77,-0.22999999999999998,-3.7100000000000004,6.93,10.5,3.5700000000000003,1.7850000000000001,gamble,win,10.5,104.90374999999999,1063.9875373020186,None,1063.9875373020186,None,1063.9875373020186,None,1063.9875373020186,None,1063.9875373020186,None,1063.9875373020186,None,1063.9875373020186,None,1,1.1339922423358075,1063.9875373020186,None,1065.1546733837458,None,1065.1546733837458,None,1065.1546733837458,None,1065.1546733837458,None,1065.1546733837458,None,1065.1546733837458,None,1065.1546733837458,None,1069.1561965028523,None,1069.1561965028523,None,1069.1561965028523,None,1069.1561965028523,None,1069.1561965028523,None,1069.1561965028523,None,1069.1561965028523,None,1070.139997683349,None,,,,,,,,,,,,,,,,,,,,,,,,,,,,,,24213,2019_Sep_23_1700,Mmi_3levels,3.1.5,59.97650964758672,
,,,1,1,8.1,,,,,,,,,0,0,0,0,0,16,16,11,,,,,,,,,,,,,,,,,,,,,,,,,,,,,,,,,,,,,,,,,,,,,,,,,,,,,,,,,,,True,True,False,0.77,-0.22999999999999998,-3.9400000000000004,7.16,8.1,0.9399999999999995,0.46999999999999975,gamble,win,8.1,113.00374999999998,1072.157343641913,None,1072.157343641913,None,1072.157343641913,None,1072.157343641913,None,1072.157343641913,None,1072.157343641913,None,1072.157343641913,None,1,1.5842137665604241,1072.157343641913,None,1073.7746276517864,None,1073.7746276517864,None,1073.7746276517864,None,1073.7746276517864,None,1073.7746276517864,None,1073.7746276517864,None,1073.7746276517864,None,1077.7594991754158,None,1077.7594991754158,None,1077.7594991754158,None,1077.7594991754158,None,1077.7594991754158,None,1077.7594991754158,None,1077.7594991754158,None,1087.2631313024904,None,1078.7599084336543,None,1079.7602450557752,None,0.83,7.50282385002356,1082.7613947546924,None,None,1082.7613947546924,None,,,,,,,,,,,,,,,,,,,24213,2019_Sep_23_1700,Mmi_3levels,3.1.5,59.97650964758672,
,,,1,1,3.3,,,,,,,,,0,0,0,0,0,17,17,15,,,,,,,,,,,,,,,,,,,,,,,,,,,,,,,,,,,,,,,,,,,,,,,,,,,,,,,,,,,True,True,True,0.83,-0.17000000000000004,-4.11,6.490000000000001,3.3,-3.1900000000000013,0.05499999999999927,certain,certain,0.05499999999999927,113.05874999999997,1089.3018226872082,None,1089.3018226872082,None,1089.3018226872082,None,1089.3018226872082,None,1089.3018226872082,None,1089.3018226872082,None,1089.3018226872082,None,3,2.0631457656854764,1089.3018226872082,None,1091.3980274967616,None,1091.3980274967616,None,1091.3980274967616,None,1091.3980274967616,None,1091.3980274967616,None,1091.3980274967616,None,1091.3980274967616,None,1095.3995589354308,None,1095.3995589354308,None,1095.3995589354308,None,1095.3995589354308,None,1095.3995589354308,None,1095.3995589354308,None,1095.3995589354308,None,1096.3832737205084,None,,,,,,,,,,,,,,,,,,,,,,,,,,,,,,24213,2019_Sep_23_1700,Mmi_3levels,3.1.5,59.97650964758672,
,,,1,1,0.3,,,,,,,,,0,0,0,0,0,18,18,26,,,,,,,,,,,,,,,,,,,,,,,,,,,,,,,,,,,,,,,,,,,,,,,,,,,,,,,,,,,True,True,False,0.83,-0.17000000000000004,-4.28,6.660000000000001,0.3,-6.360000000000001,-3.0300000000000007,gamble,win,0.3,113.35874999999997,1098.4007073544199,None,1098.4007073544199,None,1098.4007073544199,None,1098.4007073544199,None,1098.4007073544199,None,1098.4007073544199,None,1098.4007073544199,None,None,,1098.4007073544199,None,1101.4018759323517,None,1101.4018759323517,None,1101.4018759323517,None,1101.4018759323517,None,1101.4018759323517,None,1101.4018759323517,None,1101.4018759323517,None,1105.403384332254,None,1105.403384332254,None,1105.403384332254,None,1105.403384332254,None,1105.403384332254,None,1105.403384332254,None,1105.403384332254,None,1106.387046960066,None,,,,,,,,,,,,,,,,,,,,,,,,,,,,,,24213,2019_Sep_23_1700,Mmi_3levels,3.1.5,59.97650964758672,
,,,1,1,8.3,,,,,,,,,0,0,0,0,0,19,19,18,,,,,,,,,,,,,,,,,,,,,,,,,,,,,,,,,,,,,,,,,,,,,,,,,,,,,,,,,,,True,False,True,0.83,-0.17000000000000004,-4.45,-0.9658333333333335,8.3,7.334166666666667,3.6670833333333337,gamble,lose,7.334166666666667,120.69291666666663,1108.4045791487442,None,1108.4045791487442,None,1108.4045791487442,None,1108.4045791487442,None,1108.4045791487442,None,1108.4045791487442,None,1108.4045791487442,None,1,0.8838884079013951,1108.4045791487442,None,1109.3215406797826,None,1109.3215406797826,None,1109.3215406797826,None,1109.3215406797826,None,1109.3215406797826,None,1109.3215406797826,None,1109.3215406797826,None,1113.3063971641823,None,1113.3063971641823,None,1113.3063971641823,None,1113.3063971641823,None,1113.3063971641823,None,1113.3063971641823,None,1113.3063971641823,None,1122.8100360109238,None,1114.3067894633277,None,1115.30715168413,None,0.62,7.502806250937283,1118.308318662108,None,None,1118.308318662108,None,,,,,,,,,,,,,,,,,,,24213,2019_Sep_23_1700,Mmi_3levels,3.1.5,59.97650964758672,
,,,1,1,12.9,,,,,,,,,0,0,0,0,0,20,20,5,,,,,,,,,,,,,,,,,,,,,,,,,,,,,,,,,,,,,,,,,,,,,,,,,,,,,,,,,,,True,True,True,0.62,-0.38,-4.83,10.15,12.9,2.75,1.375,gamble,win,12.9,133.59291666666664,1124.8274814842152,None,1124.8274814842152,None,1124.8274814842152,None,1124.8274814842152,None,1124.8274814842152,None,1124.8274814842152,None,1124.8274814842152,None,1,0.9006027200375684,1124.8274814842152,None,1125.7611704466399,None,1125.7611704466399,None,1125.7611704466399,None,1125.7611704466399,None,1125.7611704466399,None,1125.7611704466399,None,1125.7611704466399,None,1129.762695165642,None,1129.762695165642,None,1129.762695165642,None,1129.762695165642,None,1129.762695165642,None,1129.762695165642,None,1129.762695165642,None,1130.7464073908632,None,,,,,,,,,,,,,,,,,,,,,,,,,,,,,,24213,2019_Sep_23_1700,Mmi_3levels,3.1.5,59.97650964758672,
,,,1,1,1.1,,,,,,,,,0,0,0,0,0,21,21,22,,,,,,,,,,,,,,,,,,,,,,,,,,,,,,,,,,,,,,,,,,,,,,,,,,,,,,,,,,,True,True,True,0.62,-0.38,-5.21,10.530000000000001,1.1,-9.430000000000001,-4.165000000000001,certain,certain,-4.165000000000001,129.42791666666665,1132.7638253456098,None,1132.7638253456098,None,1132.7638253456098,None,1132.7638253456098,None,1132.7638253456098,None,1132.7638253456098,None,1132.7638253456098,None,3,1.8509906354011036,1132.7638253456098,None,1134.6478996635997,None,1134.6478996635997,None,1134.6478996635997,None,1134.6478996635997,None,1134.6478996635997,None,1134.6478996635997,None,1134.6478996635997,None,1138.6327555080643,None,1138.6327555080643,None,1138.6327555080643,None,1138.6327555080643,None,1138.6327555080643,None,1138.6327555080643,None,1138.6327555080643,None,1148.13648267003,None,1139.6332306828117,None,1140.633531466825,None,0.39,7.502707056235522,1143.6347451623296,None,None,1143.6347451623296,None,,,,,,,,,,,,,,,,,,,24213,2019_Sep_23_1700,Mmi_3levels,3.1.5,59.97650964758672,
,,,1,1,9.7,,,,,,,,,0,0,0,0,0,22,22,6,,,,,,,,,,,,,,,,,,,,,,,,,,,,,,,,,,,,,,,,,,,,,,,,,,,,,,,,,,,True,True,True,0.39,-0.61,-5.82,14.36,9.7,-4.66,-2.33,gamble,win,9.7,139.12791666666664,1150.153830228548,None,1150.153830228548,None,1150.153830228548,None,1150.153830228548,None,1150.153830228548,None,1150.153830228548,None,1150.153830228548,None,1,0.7505486108711921,1150.153830228548,None,1150.9374554823735,None,1150.9374554823735,None,1150.9374554823735,None,1150.9374554823735,None,1150.9374554823735,None,1150.9374554823735,None,1150.9374554823735,None,1154.9223148466554,None,1154.9223148466554,None,1154.9223148466554,None,1154.9223148466554,None,1154.9223148466554,None,1154.9223148466554,None,1154.9223148466554,None,1155.9227004261338,None,,,,,,,,,,,,,,,,,,,,,,,,,,,,,,24213,2019_Sep_23_1700,Mmi_3levels,3.1.5,59.97650964758672,
,,,1,1,7.9,,,,,,,,,0,0,0,0,0,23,23,13,,,,,,,,,,,,,,,,,,,,,,,,,,,,,,,,,,,,,,,,,,,,,,,,,,,,,,,,,,,True,True,False,0.39,-0.61,-6.430000000000001,14.969999999999999,7.9,-7.0699999999999985,0.4150000000000009,gamble,win,7.9,147.02791666666664,1157.9401359799667,None,1157.9401359799667,None,1157.9401359799667,None,1157.9401359799667,None,1157.9401359799667,None,1157.9401359799667,None,1157.9401359799667,None,1,0.8005488348426297,1157.9401359799667,None,1158.773832174018,None,1158.773832174018,None,1158.773832174018,None,1158.773832174018,None,1158.773832174018,None,1158.773832174018,None,1158.773832174018,None,1162.758653780329,None,1162.758653780329,None,1162.758653780329,None,1162.758653780329,None,1162.758653780329,None,1162.758653780329,None,1162.758653780329,None,1172.262279507704,None,1163.7590240006684,None,1164.7594115000684,None,0.77,7.502815210435074,1167.7605116016348,None,None,1167.7605116016348,None,,,,,,,,,,,,,,,,,,,24213,2019_Sep_23_1700,Mmi_3levels,3.1.5,59.97650964758672,
,,,1,1,13.5,,,,,,,,,0,0,0,0,0,24,24,21,,,,,,,,,,,,,,,,,,,,,,,,,,,,,,,,,,,,,,,,,,,,,,,,,,,,,,,,,,,True,True,True,0.77,-0.22999999999999998,-6.66,9.879999999999999,13.5,3.620000000000001,1.8100000000000005,gamble,win,13.5,160.52791666666664,1174.2797153815045,None,1174.2797153815045,None,1174.2797153815045,None,1174.2797153815045,None,1174.2797153815045,None,1174.2797153815045,None,1174.2797153815045,None,1,0.9006097595556639,1174.2797153815045,None,1175.2135003388976,None,1175.2135003388976,None,1175.2135003388976,None,1175.2135003388976,None,1175.2135003388976,None,1175.2135003388976,None,1175.2135003388976,None,1179.214933862735,None,1179.214933862735,None,1179.214933862735,None,1179.214933862735,None,1179.214933862735,None,1179.214933862735,None,1179.214933862735,None,1180.1986451279954,None,,,,,,,,,,,,,,,,,,,,,,,,,,,,,,24213,2019_Sep_23_1700,Mmi_3levels,3.1.5,59.97650964758672,
,,,1,1,1.5,,,,,,,,,0,0,0,0,0,25,25,24,,,,,,,,,,,,,,,,,,,,,,,,,,,,,,,,,,,,,,,,,,,,,,,,,,,,,,,,,,,True,True,False,0.77,-0.22999999999999998,-6.890000000000001,10.11,1.5,-8.61,-3.5549999999999997,gamble,win,1.5,162.02791666666664,1182.2160810017958,None,1182.2160810017958,None,1182.2160810017958,None,1182.2160810017958,None,1182.2160810017958,None,1182.2160810017958,None,1182.2160810017958,None,1,1.1507039946154691,1182.2160810017958,None,1183.399876038602,None,1183.399876038602,None,1183.399876038602,None,1183.399876038602,None,1183.399876038602,None,1183.399876038602,None,1183.399876038602,None,1187.384723563504,None,1187.384723563504,None,1187.384723563504,None,1187.384723563504,None,1187.384723563504,None,1187.384723563504,None,1187.384723563504,None,1188.3851104229689,None,,,,,,,,,,,,,,,,,,,,,,,,,,,,,,24213,2019_Sep_23_1700,Mmi_3levels,3.1.5,59.97650964758672,
,,,1,1,9.9,,,,,,,,,0,0,0,0,0,26,26,7,,,,,,,,,,,,,,,,,,,,,,,,,,,,,,,,,,,,,,,,,,,,,,,,,,,,,,,,,,,True,True,False,0.77,-0.22999999999999998,-7.120000000000001,10.34,9.9,-0.4399999999999995,-0.21999999999999975,gamble,win,9.9,171.92791666666665,1190.4025475766975,None,1190.4025475766975,None,1190.4025475766975,None,1190.4025475766975,None,1190.4025475766975,None,1190.4025475766975,None,1190.4025475766975,None,1,0.550474438816309,1190.4025475766975,None,1190.9861060180701,None,1190.9861060180701,None,1190.9861060180701,None,1190.9861060180701,None,1190.9861060180701,None,1190.9861060180701,None,1190.9861060180701,None,1194.9709625024698,None,1194.9709625024698,None,1194.9709625024698,None,1194.9709625024698,None,1194.9709625024698,None,1194.9709625024698,None,1194.9709625024698,None,1204.474593989551,None,1195.9713413623394,None,1196.971724062052,None,0.81,7.5028363293386064,1199.972876960761,None,None,1199.972876960761,None,,,,,,,,,,,,,,,,,,,24213,2019_Sep_23_1700,Mmi_3levels,3.1.5,59.97650964758672,
,,,2,0,8.1,,,,,,,,,0,1,1,1,0,0,0,2,,,,,,,,,,,,,,,,,,,,,,,,,,,,,,,,,,,,,,,,,,,,,,,,1210.626945256663,None,0.77,7.501824863080401,1213.644763830176,None,None,1213.644763830176,None,1218.129792465421,None,False,True,True,0.77,0.77,0.77,-11.55,2.025,-9.525,-3.75,gamble,lose,-9.525,162.40291666666664,1221.16430167231,None,1221.16430167231,None,1221.16430167231,None,1221.16430167231,None,1221.16430167231,None,1221.16430167231,None,1221.16430167231,None,1,0.7505575704271905,1221.16430167231,None,1221.9479381255223,None,1221.9479381255223,None,1221.9479381255223,None,1221.9479381255223,None,1221.9479381255223,None,1221.9479381255223,None,1221.9479381255223,None,1225.9495175616466,None,1225.9495175616466,None,1225.9495175616466,None,1225.9495175616466,None,1225.9495175616466,None,1225.9495175616466,None,1225.9495175616466,None,1226.9331705899676,None,,,,,,,,,,,,1206.475358748925,None,4,4.135136181546841,1206.475358748925,None,,,,,,,,,,,,,24213,2019_Sep_23_1700,Mmi_3levels,3.1.5,59.97650964758672,
,,,2,0,6.3,,,,,,,,,0,1,1,1,0,1,1,20,,,,,,,,,,,,,,,,,,,,,,,,,,,,,,,,,,,,,,,,,,,,,,,,,,,,,,,,,,,False,True,True,0.77,0.77,1.54,-12.32,1.575,-10.745000000000001,-4.585000000000001,certain,certain,-4.585000000000001,157.81791666666663,1228.9506119035068,None,1228.9506119035068,None,1228.9506119035068,None,1228.9506119035068,None,1228.9506119035068,None,1228.9506119035068,None,1228.9506119035068,None,3,0.833913782495074,1228.9506119035068,None,1229.817701523716,None,1229.817701523716,None,1229.817701523716,None,1229.817701523716,None,1229.817701523716,None,1229.817701523716,None,1229.817701523716,None,1233.819200644095,None,1233.819200644095,None,1233.819200644095,None,1233.819200644095,None,1233.819200644095,None,1233.819200644095,None,1233.819200644095,None,1243.3060893405345,None,1234.8028546323767,None,1235.8032325322856,None,0.3,7.502818410284817,1238.804386710981,None,None,1238.804386710981,None,,,,,,,,,,,,,,,,,,,24213,2019_Sep_23_1700,Mmi_3levels,3.1.5,59.97650964758672,
,,,2,0,-0.9,,,,,,,,,0,1,1,1,0,2,2,8,,,,,,,,,,,,,,,,,,,,,,,,,,,,,,,,,,,,,,,,,,,,,,,,,,,,,,,,,,,False,True,False,0.3,0.3,1.84,-6.04,-0.225,-6.265,-3.2449999999999997,gamble,lose,-6.265,151.55291666666665,1245.3235405735322,None,1245.3235405735322,None,1245.3235405735322,None,1245.3235405735322,None,1245.3235405735322,None,1245.3235405735322,None,1245.3235405735322,None,1,0.8672720104805194,1245.3235405735322,None,1246.2239561034366,None,1246.2239561034366,None,1246.2239561034366,None,1246.2239561034366,None,1246.2239561034366,None,1246.2239561034366,None,1246.2239561034366,None,1250.2087546709809,None,1250.2087546709809,None,1250.2087546709809,None,1250.2087546709809,None,1250.2087546709809,None,1250.2087546709809,None,1250.2087546709809,None,1251.2091584895388,None,,,,,,,,,,,,,,,,,,,,,,,,,,,,,,24213,2019_Sep_23_1700,Mmi_3levels,3.1.5,59.97650964758672,
,,,2,0,0.9,,,,,,,,,0,1,1,1,0,3,3,0,,,,,,,,,,,,,,,,,,,,,,,,,,,,,,,,,,,,,,,,,,,,,,,,,,,,,,,,,,,False,True,True,0.3,0.3,2.14,-6.34,0.225,-6.115,-2.9450000000000003,gamble,lose,-6.115,145.43791666666664,1253.226564924873,None,1253.226564924873,None,1253.226564924873,None,1253.226564924873,None,1253.226564924873,None,1253.226564924873,None,1253.226564924873,None,1,1.5675292128580622,1253.226564924873,None,1254.8271787802805,None,1254.8271787802805,None,1254.8271787802805,None,1254.8271787802805,None,1254.8271787802805,None,1254.8271787802805,None,1254.8271787802805,None,1258.8287543765618,None,1258.8287543765618,None,1258.8287543765618,None,1258.8287543765618,None,1258.8287543765618,None,1258.8287543765618,None,1258.8287543765618,None,1268.3157128293533,None,1259.8125136392773,None,1260.8128867394407,None,0.05,7.502743534278125,1263.8140383582795,None,None,1263.8140383582795,None,,,,,,,,,,,,,,,,,,,24213,2019_Sep_23_1700,Mmi_3levels,3.1.5,59.97650964758672,
,,,2,0,6.1,,,,,,,,,0,1,1,1,0,4,4,18,,,,,,,,,,,,,,,,,,,,,,,,,,,,,,,,,,,,,,,,,,,,,,,,,,,,,,,,,,,False,True,False,0.05,0.05,2.19,-2.89,1.525,-1.3650000000000002,0.07999999999999985,certain,certain,0.07999999999999985,145.51791666666665,1270.333101025666,None,1270.333101025666,None,1270.333101025666,None,1270.333101025666,None,1270.333101025666,None,1270.333101025666,None,1270.333101025666,None,3,1.2007269373862073,1270.333101025666,None,1271.5669046060648,None,1271.5669046060648,None,1271.5669046060648,None,1271.5669046060648,None,1271.5669046060648,None,1271.5669046060648,None,1271.5669046060648,None,1275.5517617303994,None,1275.5517617303994,None,1275.5517617303994,None,1275.5517617303994,None,1275.5517617303994,None,1275.5517617303994,None,1275.5517617303994,None,1276.5521501898183,None,,,,,,,,,,,,,,,,,,,,,,,,,,,,,,24213,2019_Sep_23_1700,Mmi_3levels,3.1.5,59.97650964758672,
,,,2,0,12.1,,,,,,,,,0,1,1,1,0,5,5,11,,,,,,,,,,,,,,,,,,,,,,,,,,,,,,,,,,,,,,,,,,,,,,,,,,,,,,,,,,,False,True,False,0.05,0.05,2.2399999999999998,-2.94,3.025,0.08499999999999996,1.555,gamble,lose,0.08499999999999996,145.60291666666666,1278.5695870235213,None,1278.5695870235213,None,1278.5695870235213,None,1278.5695870235213,None,1278.5695870235213,None,1278.5695870235213,None,1278.5695870235213,None,1,0.7172063820180483,1278.5695870235213,None,1279.3198671686696,None,1279.3198671686696,None,1279.3198671686696,None,1279.3198671686696,None,1279.3198671686696,None,1279.3198671686696,None,1279.3198671686696,None,1283.304729732743,None,1283.304729732743,None,1283.304729732743,None,1283.304729732743,None,1283.304729732743,None,1283.304729732743,None,1283.304729732743,None,1284.3051073126844,None,,,,,,,,,,,,,,,,,,,,,,,,,,,,,,24213,2019_Sep_23_1700,Mmi_3levels,3.1.5,59.97650964758672,
,,,2,0,10.7,,,,,,,,,0,1,1,1,0,6,6,13,,,,,,,,,,,,,,,,,,,,,,,,,,,,,,,,,,,,,,,,,,,,,,,,,,,,,,,,,,,False,True,True,0.05,0.05,2.2899999999999996,-2.9899999999999998,2.675,-0.31499999999999995,1.18,gamble,lose,-0.31499999999999995,145.28791666666666,1286.3225499061518,None,1286.3225499061518,None,1286.3225499061518,None,1286.3225499061518,None,1286.3225499061518,None,1286.3225499061518,None,1286.3225499061518,None,1,0.983971411420498,1286.3225499061518,None,1287.3396053201868,None,1287.3396053201868,None,1287.3396053201868,None,1287.3396053201868,None,1287.3396053201868,None,1287.3396053201868,None,1287.3396053201868,None,1291.3244394058129,None,1291.3244394058129,None,1291.3244394058129,None,1291.3244394058129,None,1291.3244394058129,None,1291.3244394058129,None,1291.3244394058129,None,1300.8280971315107,None,1292.3248419443844,None,1293.325234883523,None,0.35,7.5029812816064805,1296.3264140209067,None,None,1296.3264140209067,None,,,,,,,,,,,,,,,,,,,24213,2019_Sep_23_1700,Mmi_3levels,3.1.5,59.97650964758672,
,,,2,0,12.5,,,,,,,,,0,1,1,1,0,7,7,24,,,,,,,,,,,,,,,,,,,,,,,,,,,,,,,,,,,,,,,,,,,,,,,,,,,,,,,,,,,False,False,True,0.35,0.35,2.6399999999999997,1.4449999999999998,3.125,1.6800000000000002,0.8400000000000001,gamble,win,3.125,148.41291666666666,1302.8668249942712,None,1302.8668249942712,None,1302.8668249942712,None,1302.8668249942712,None,1302.8668249942712,None,1302.8668249942712,None,1302.8668249942712,None,1,0.7125832675374113,1302.8668249942712,None,1303.612492264423,None,1303.612492264423,None,1303.612492264423,None,1303.612492264423,None,1303.612492264423,None,1303.612492264423,None,1303.612492264423,None,1307.6140173033928,None,1307.6140173033928,None,1307.6140173033928,None,1307.6140173033928,None,1307.6140173033928,None,1307.6140173033928,None,1307.6140173033928,None,1308.5977551272372,None,,,,,,,,,,,,,,,,,,,,,,,,,,,,,,24213,2019_Sep_23_1700,Mmi_3levels,3.1.5,59.97650964758672,
,,,2,0,-0.7,,,,,,,,,0,1,1,1,0,8,8,3,,,,,,,,,,,,,,,,,,,,,,,,,,,,,,,,,,,,,,,,,,,,,,,,,,,,,,,,,,,False,False,False,0.35,0.35,2.9899999999999998,1.4741666666666666,-0.175,-1.6491666666666667,-0.9120833333333334,gamble,win,-0.175,148.23791666666665,1310.6151615626295,None,1310.6151615626295,None,1310.6151615626295,None,1310.6151615626295,None,1310.6151615626295,None,1310.6151615626295,None,1310.6151615626295,None,1,0.7171619043801911,1310.6151615626295,None,1311.3654061896377,None,1311.3654061896377,None,1311.3654061896377,None,1311.3654061896377,None,1311.3654061896377,None,1311.3654061896377,None,1311.3654061896377,None,1315.3669837058405,None,1315.3669837058405,None,1315.3669837058405,None,1315.3669837058405,None,1315.3669837058405,None,1315.3669837058405,None,1315.3669837058405,None,1324.853945678391,None,1316.3506920912187,None,1317.35108151054,None,0.59,7.502822250069585,1320.3522216100246,None,None,1320.3522216100246,None,,,,,,,,,,,,,,,,,,,24213,2019_Sep_23_1700,Mmi_3levels,3.1.5,59.97650964758672,
,,,2,0,10.5,,,,,,,,,0,1,1,1,0,9,9,12,,,,,,,,,,,,,,,,,,,,,,,,,,,,,,,,,,,,,,,,,,,,,,,,,,,,,,,,,,,False,True,False,0.59,0.59,3.5799999999999996,-11.84,2.625,-9.215,-3.295,certain,certain,-3.295,144.94291666666666,1326.8713802722632,None,1326.8713802722632,None,1326.8713802722632,None,1326.8713802722632,None,1326.8713802722632,None,1326.8713802722632,None,1326.8713802722632,None,3,1.0504920379025862,1326.8713802722632,None,1327.9551284635672,None,1327.9551284635672,None,1327.9551284635672,None,1327.9551284635672,None,1327.9551284635672,None,1327.9551284635672,None,1327.9551284635672,None,1331.9399811082403,None,1331.9399811082403,None,1331.9399811082403,None,1331.9399811082403,None,1331.9399811082403,None,1331.9399811082403,None,1331.9399811082403,None,1332.940367327712,None,,,,,,,,,,,,,,,,,,,,,,,,,,,,,,24213,2019_Sep_23_1700,Mmi_3levels,3.1.5,59.97650964758672,
,,,2,0,9.3,,,,,,,,,0,1,1,1,0,10,10,26,,,,,,,,,,,,,,,,,,,,,,,,,,,,,,,,,,,,,,,,,,,,,,,,,,,,,,,,,,,False,True,False,0.59,0.59,4.17,-12.43,2.325,-10.105,-3.89,certain,certain,-3.89,141.05291666666668,1334.9578032015124,None,1334.9578032015124,None,1334.9578032015124,None,1334.9578032015124,None,1334.9578032015124,None,1334.9578032015124,None,1334.9578032015124,None,3,1.0840265764854848,1334.9578032015124,None,1336.074904501089,None,1336.074904501089,None,1336.074904501089,None,1336.074904501089,None,1336.074904501089,None,1336.074904501089,None,1336.074904501089,None,1340.0764273001696,None,1340.0764273001696,None,1340.0764273001696,None,1340.0764273001696,None,1340.0764273001696,None,1340.0764273001696,None,1340.0764273001696,None,1341.0601395253907,None,,,,,,,,,,,,,,,,,,,,,,,,,,,,,,24213,2019_Sep_23_1700,Mmi_3levels,3.1.5,59.97650964758672,
,,,2,0,4.7,,,,,,,,,0,1,1,1,0,11,11,14,,,,,,,,,,,,,,,,,,,,,,,,,,,,,,,,,,,,,,,,,,,,,,,,,,,,,,,,,,,False,True,False,0.59,0.59,4.76,-13.02,1.175,-11.844999999999999,-5.334999999999999,gamble,lose,-11.844999999999999,129.20791666666668,1343.077576999145,None,1343.077576999145,None,1343.077576999145,None,1343.077576999145,None,1343.077576999145,None,1343.077576999145,None,1343.077576999145,None,1,1.0840128172421828,1343.077576999145,None,1344.1946706190938,None,1344.1946706190938,None,1344.1946706190938,None,1344.1946706190938,None,1344.1946706190938,None,1344.1946706190938,None,1344.1946706190938,None,1348.1961956581217,None,1348.1961956581217,None,1348.1961956581217,None,1348.1961956581217,None,1348.1961956581217,None,1348.1961956581217,None,1348.1961956581217,None,1357.6831598705612,None,1349.1799088432454,None,1350.1802931428538,None,0.09,7.502818410284817,1353.1814393219538,None,None,1353.1814393219538,None,,,,,,,,,,,,,,,,,,,24213,2019_Sep_23_1700,Mmi_3levels,3.1.5,59.97650964758672,
,,,2,0,1.7,,,,,,,,,0,1,1,1,0,12,12,19,,,,,,,,,,,,,,,,,,,,,,,,,,,,,,,,,,,,,,,,,,,,,,,,,,,,,,,,,,,False,True,True,0.09,0.09,4.85,-6.109999999999999,0.425,-5.685,-2.63,gamble,lose,-5.685,123.52291666666667,1359.7219123720424,None,1359.7219123720424,None,1359.7219123720424,None,1359.7219123720424,None,1359.7219123720424,None,1359.7219123720424,None,1359.7219123720424,None,1,0.9459926288691349,1359.7219123720424,None,1360.7009810038726,None,1360.7009810038726,None,1360.7009810038726,None,1360.7009810038726,None,1360.7009810038726,None,1360.7009810038726,None,1360.7009810038726,None,1364.6858390882262,None,1364.6858390882262,None,1364.6858390882262,None,1364.6858390882262,None,1364.6858390882262,None,1364.6858390882262,None,1364.6858390882262,None,1365.6862173081608,None,,,,,,,,,,,,,,,,,,,,,,,,,,,,,,24213,2019_Sep_23_1700,Mmi_3levels,3.1.5,59.97650964758672,
,,,2,0,10.3,,,,,,,,,0,1,1,1,0,13,13,7,,,,,,,,,,,,,,,,,,,,,,,,,,,,,,,,,,,,,,,,,,,,,,,,,,,,,,,,,,,False,True,True,0.09,0.09,4.9399999999999995,-6.199999999999999,2.575,-3.624999999999999,-0.5249999999999995,certain,certain,-0.5249999999999995,122.99791666666667,1367.7036589416675,None,1367.7036589416675,None,1367.7036589416675,None,1367.7036589416675,None,1367.7036589416675,None,1367.7036589416675,None,1367.7036589416675,None,3,1.4672634989838116,1367.7036589416675,None,1369.2041785940528,None,1369.2041785940528,None,1369.2041785940528,None,1369.2041785940528,None,1369.2041785940528,None,1369.2041785940528,None,1369.2041785940528,None,1373.2057609100011,None,1373.2057609100011,None,1373.2057609100011,None,1373.2057609100011,None,1373.2057609100011,None,1373.2057609100011,None,1373.2057609100011,None,1382.6927161629428,None,1374.189468015451,None,1375.1898558348767,None,0.2,7.502913445234299,1378.1909783352166,None,None,1378.1909783352166,None,,,,,,,,,,,,,,,,,,,24213,2019_Sep_23_1700,Mmi_3levels,3.1.5,59.97650964758672,
,,,2,0,0.3,,,,,,,,,0,1,1,1,0,14,14,10,,,,,,,,,,,,,,,,,,,,,,,,,,,,,,,,,,,,,,,,,,,,,,,,,,,,,,,,,,,False,True,True,0.2,0.2,5.14,-7.9399999999999995,0.075,-7.864999999999999,-3.8949999999999996,gamble,lose,-7.864999999999999,115.13291666666667,1384.710155876528,None,1384.710155876528,None,1384.710155876528,None,1384.710155876528,None,1384.710155876528,None,1384.710155876528,None,1384.710155876528,None,1,0.7005256681004539,1384.710155876528,None,1385.4437757866108,None,1385.4437757866108,None,1385.4437757866108,None,1385.4437757866108,None,1385.4437757866108,None,1385.4437757866108,None,1385.4437757866108,None,1389.4452985857497,None,1389.4452985857497,None,1389.4452985857497,None,1389.4452985857497,None,1389.4452985857497,None,1389.4452985857497,None,1389.4452985857497,None,1390.429012090899,None,,,,,,,,,,,,,,,,,,,,,,,,,,,,,,24213,2019_Sep_23_1700,Mmi_3levels,3.1.5,59.97650964758672,
,,,2,0,3.3,,,,,,,,,0,1,1,1,0,15,15,25,,,,,,,,,,,,,,,,,,,,,,,,,,,,,,,,,,,,,,,,,,,,,,,,,,,,,,,,,,,False,False,False,0.2,0.2,5.34,1.145,0.825,-0.32000000000000006,0.25249999999999995,certain,certain,0.25249999999999995,115.38541666666667,1392.4464559642947,None,1392.4464559642947,None,1392.4464559642947,None,1392.4464559642947,None,1392.4464559642947,None,1392.4464559642947,None,1392.4464559642947,None,3,1.1173483264865354,1392.4464559642947,None,1393.5968921331223,None,1393.5968921331223,None,1393.5968921331223,None,1393.5968921331223,None,1393.5968921331223,None,1393.5968921331223,None,1393.5968921331223,None,1397.5983739743824,None,1397.5983739743824,None,1397.5983739743824,None,1397.5983739743824,None,1397.5983739743824,None,1397.5983739743824,None,1397.5983739743824,None,1407.085375944851,None,1398.5821277973591,None,1399.5825498549384,None,0.18,7.502898406004533,1402.583655076276,None,None,1402.583655076276,None,,,,,,,,,,,,,,,,,,,24213,2019_Sep_23_1700,Mmi_3levels,3.1.5,59.97650964758672,
,,,2,0,13.5,,,,,,,,,0,1,1,1,0,16,16,21,,,,,,,,,,,,,,,,,,,,,,,,,,,,,,,,,,,,,,,,,,,,,,,,,,,,,,,,,,,False,False,True,0.18,0.18,5.52,1.0899999999999999,3.375,2.285,1.1425,gamble,win,3.375,118.76041666666667,1409.1241502051707,None,1409.1241502051707,None,1409.1241502051707,None,1409.1241502051707,None,1409.1241502051707,None,1409.1241502051707,None,1409.1241502051707,None,1,0.5958352292655036,1409.1241502051707,None,1409.7530620773323,None,1409.7530620773323,None,1409.7530620773323,None,1409.7530620773323,None,1409.7530620773323,None,1409.7530620773323,None,1409.7530620773323,None,1413.737920161686,None,1413.737920161686,None,1413.737920161686,None,1413.737920161686,None,1413.737920161686,None,1413.737920161686,None,1413.737920161686,None,1414.7383047812618,None,,,,,,,,,,,,,,,,,,,,,,,,,,,,,,24213,2019_Sep_23_1700,Mmi_3levels,3.1.5,59.97650964758672,
,,,2,0,11.3,,,,,,,,,0,1,1,1,0,17,17,22,,,,,,,,,,,,,,,,,,,,,,,,,,,,,,,,,,,,,,,,,,,,,,,,,,,,,,,,,,,False,False,False,0.18,0.18,5.699999999999999,1.105,2.825,1.7200000000000002,0.8600000000000001,gamble,win,2.825,121.58541666666667,1416.7557428949513,None,1416.7557428949513,None,1416.7557428949513,None,1416.7557428949513,None,1416.7557428949513,None,1416.7557428949513,None,1416.7557428949513,None,1,0.5337991645792499,1416.7557428949513,None,1417.3226686198614,None,1417.3226686198614,None,1417.3226686198614,None,1417.3226686198614,None,1417.3226686198614,None,1417.3226686198614,None,1417.3226686198614,None,1421.3074825465446,None,1421.3074825465446,None,1421.3074825465446,None,1421.3074825465446,None,1421.3074825465446,None,1421.3074825465446,None,1421.3074825465446,None,1422.3078498870018,None,,,,,,,,,,,,,,,,,,,,,,,,,,,,,,24213,2019_Sep_23_1700,Mmi_3levels,3.1.5,59.97650964758672,
,,,2,0,1.9,,,,,,,,,0,1,1,1,0,18,18,6,,,,,,,,,,,,,,,,,,,,,,,,,,,,,,,,,,,,,,,,,,,,,,,,,,,,,,,,,,,False,True,True,0.18,0.18,5.879999999999999,-8.399999999999999,0.475,-7.924999999999999,-3.7249999999999996,certain,certain,-3.7249999999999996,117.86041666666668,1424.3253011199995,None,1424.3253011199995,None,1424.3253011199995,None,1424.3253011199995,None,1424.3253011199995,None,1424.3253011199995,None,1424.3253011199995,None,3,1.3841303149820305,1424.3253011199995,None,1425.7425115978112,None,1425.7425115978112,None,1425.7425115978112,None,1425.7425115978112,None,1425.7425115978112,None,1425.7425115978112,None,1425.7425115978112,None,1429.727368082211,None,1429.727368082211,None,1429.727368082211,None,1429.727368082211,None,1429.727368082211,None,1429.727368082211,None,1429.727368082211,None,1439.2310782851418,None,1430.727743742289,None,1431.7280877240119,None,0.61,7.5028289697365835,1434.7292809406063,None,None,1434.7292809406063,None,,,,,,,,,,,,,,,,,,,24213,2019_Sep_23_1700,Mmi_3levels,3.1.5,59.97650964758672,
,,,2,0,4.3,,,,,,,,,0,1,1,1,0,19,19,23,,,,,,,,,,,,,,,,,,,,,,,,,,,,,,,,,,,,,,,,,,,,,,,,,,,,,,,,,,,False,False,False,0.61,0.61,6.489999999999999,2.6758333333333333,1.075,-1.6008333333333333,-0.2629166666666667,gamble,win,1.075,118.93541666666668,1441.2484360830858,None,1441.2484360830858,None,1441.2484360830858,None,1441.2484360830858,None,1441.2484360830858,None,1441.2484360830858,None,1441.2484360830858,None,1,1.2005499867373146,1441.2484360830858,None,1442.4822908607312,None,1442.4822908607312,None,1442.4822908607312,None,1442.4822908607312,None,1442.4822908607312,None,1442.4822908607312,None,1442.4822908607312,None,1446.4671156668337,None,1446.4671156668337,None,1446.4671156668337,None,1446.4671156668337,None,1446.4671156668337,None,1446.4671156668337,None,1446.4671156668337,None,1447.4675274849287,None,,,,,,,,,,,,,,,,,,,,,,,,,,,,,,24213,2019_Sep_23_1700,Mmi_3levels,3.1.5,59.97650964758672,
,,,2,0,13.3,,,,,,,,,0,1,1,1,0,20,20,17,,,,,,,,,,,,,,,,,,,,,,,,,,,,,,,,,,,,,,,,,,,,,,,,,,,,,,,,,,,False,True,True,0.61,0.61,7.1,-15.639999999999999,3.325,-12.314999999999998,-4.494999999999999,gamble,lose,-12.314999999999998,106.62041666666669,1449.48488880269,None,1449.48488880269,None,1449.48488880269,None,1449.48488880269,None,1449.48488880269,None,1449.48488880269,None,1449.48488880269,None,1,1.7509623488294892,1449.48488880269,None,1451.268936754088,None,1451.268936754088,None,1451.268936754088,None,1451.268936754088,None,1451.268936754088,None,1451.268936754088,None,1451.268936754088,None,1455.2537881187745,None,1455.2537881187745,None,1455.2537881187745,None,1455.2537881187745,None,1455.2537881187745,None,1455.2537881187745,None,1455.2537881187745,None,1464.7574215257773,None,1456.2541740182787,None,1457.2545583178871,None,0.23,7.502762093266938,1460.2556859379984,None,None,1460.2556859379984,None,,,,,,,,,,,,,,,,,,,24213,2019_Sep_23_1700,Mmi_3levels,3.1.5,59.97650964758672,
,,,2,0,12.3,,,,,,,,,0,1,1,1,0,21,21,4,,,,,,,,,,,,,,,,,,,,,,,,,,,,,,,,,,,,,,,,,,,,,,,,,,,,,,,,,,,False,True,False,0.23,0.23,7.33,-10.55,3.075,-7.4750000000000005,-2.2,gamble,lose,-7.4750000000000005,99.14541666666669,1466.7961369092227,None,1466.7961369092227,None,1466.7961369092227,None,1466.7961369092227,None,1466.7961369092227,None,1466.7961369092227,None,1466.7961369092227,None,1,1.89639430353418,1466.7961369092227,None,1468.725609455607,None,1468.725609455607,None,1468.725609455607,None,1468.725609455607,None,1468.725609455607,None,1468.725609455607,None,1468.725609455607,None,1472.7271732125664,None,1472.7271732125664,None,1472.7271732125664,None,1472.7271732125664,None,1472.7271732125664,None,1472.7271732125664,None,1472.7271732125664,None,1473.7108873576508,None,,,,,,,,,,,,,,,,,,,,,,,,,,,,,,24213,2019_Sep_23_1700,Mmi_3levels,3.1.5,59.97650964758672,
,,,2,0,8.9,,,,,,,,,0,1,1,1,0,22,22,1,,,,,,,,,,,,,,,,,,,,,,,,,,,,,,,,,,,,,,,,,,,,,,,,,,,,,,,,,,,False,True,False,0.23,0.23,7.5600000000000005,-10.780000000000001,2.225,-8.555000000000001,-3.165000000000001,certain,certain,-3.165000000000001,95.98041666666668,1475.7282838735846,None,1475.7282838735846,None,1475.7282838735846,None,1475.7282838735846,None,1475.7282838735846,None,1475.7282838735846,None,1475.7282838735846,None,3,1.8843184650177136,1475.7282838735846,None,1477.6456853811978,None,1477.6456853811978,None,1477.6456853811978,None,1477.6456853811978,None,1477.6456853811978,None,1477.6456853811978,None,1477.6456853811978,None,1481.6306177016231,None,1481.6306177016231,None,1481.6306177016231,None,1481.6306177016231,None,1481.6306177016231,None,1481.6306177016231,None,1481.6306177016231,None,1491.134246628848,None,1482.6310173603706,None,1483.6313981401618,None,0.42,7.502748014056124,1486.6324550440186,None,None,1486.6324550440186,None,,,,,,,,,,,,,,,,,,,24213,2019_Sep_23_1700,Mmi_3levels,3.1.5,59.97650964758672,
,,,2,0,8.3,,,,,,,,,0,1,1,1,0,23,23,16,,,,,,,,,,,,,,,,,,,,,,,,,,,,,,,,,,,,,,,,,,,,,,,,,,,,,,,,,,,False,True,False,0.42,0.42,7.98,-13.86,2.075,-11.785,-4.855,certain,certain,-4.855,91.12541666666668,1493.1516127463547,None,1493.1516127463547,None,1493.1516127463547,None,1493.1516127463547,None,1493.1516127463547,None,1493.1516127463547,None,1493.1516127463547,None,3,1.8843360640457831,1493.1516127463547,None,1495.0690558517817,None,1495.0690558517817,None,1495.0690558517817,None,1495.0690558517817,None,1495.0690558517817,None,1495.0690558517817,None,1495.0690558517817,None,1499.0538633787655,None,1499.0538633787655,None,1499.0538633787655,None,1499.0538633787655,None,1499.0538633787655,None,1499.0538633787655,None,1499.0538633787655,None,1500.054252158152,None,,,,,,,,,,,,,,,,,,,,,,,,,,,,,,24213,2019_Sep_23_1700,Mmi_3levels,3.1.5,59.97650964758672,
,,,2,0,2.7,,,,,,,,,0,1,1,1,0,24,24,5,,,,,,,,,,,,,,,,,,,,,,,,,,,,,,,,,,,,,,,,,,,,,,,,,,,,,,,,,,,False,True,True,0.42,0.42,8.4,-14.280000000000001,0.675,-13.605,-6.465,certain,certain,-6.465,84.66041666666668,1502.071670432866,None,1502.071670432866,None,1502.071670432866,None,1502.071670432866,None,1502.071670432866,None,1502.071670432866,None,1502.071670432866,None,3,2.0843827175558545,1502.071670432866,None,1504.1891333132517,None,1504.1891333132517,None,1504.1891333132517,None,1504.1891333132517,None,1504.1891333132517,None,1504.1891333132517,None,1504.1891333132517,None,1508.1740214760066,None,1508.1740214760066,None,1508.1740214760066,None,1508.1740214760066,None,1508.1740214760066,None,1508.1740214760066,None,1508.1740214760066,None,1509.174404815596,None,,,,,,,,,,,,,,,,,,,,,,,,,,,,,,24213,2019_Sep_23_1700,Mmi_3levels,3.1.5,59.97650964758672,
,,,2,0,-1.1,,,,,,,,,0,1,1,1,0,25,25,15,,,,,,,,,,,,,,,,,,,,,,,,,,,,,,,,,,,,,,,,,,,,,,,,,,,,,,,,,,,False,True,True,0.42,0.42,8.82,-14.7,-0.275,-14.975,-7.625,certain,certain,-7.625,77.03541666666668,1511.1918416493572,None,1511.1918416493572,None,1511.1918416493572,None,1511.1918416493572,None,1511.1918416493572,None,1511.1918416493572,None,1511.1918416493572,None,3,2.1010477523086593,1511.1918416493572,None,1513.3260393207893,None,1513.3260393207893,None,1513.3260393207893,None,1513.3260393207893,None,1513.3260393207893,None,1513.3260393207893,None,1513.3260393207893,None,1517.3275240419316,None,1517.3275240419316,None,1517.3275240419316,None,1517.3275240419316,None,1517.3275240419316,None,1517.3275240419316,None,1517.3275240419316,None,1526.814473535167,None,1518.3112263476942,None,1519.3116080873879,None,0.56,7.502672498056199,1522.3127600261942,None,None,1522.3127600261942,None,,,,,,,,,,,,,,,,,,,24213,2019_Sep_23_1700,Mmi_3levels,3.1.5,59.97650964758672,
,,,2,0,-0.5,,,,,,,,,0,1,1,1,0,26,26,9,,,,,,,,,,,,,,,,,,,,,,,,,,,,,,,,,,,,,,,,,,,,,,,,,,,,,,,,,,,False,True,True,0.56,0.56,9.38,-17.220000000000002,-0.125,-17.345000000000002,-8.735000000000001,certain,certain,-8.735000000000001,68.30041666666668,1528.8531985181035,None,1528.8531985181035,None,1528.8531985181035,None,1528.8531985181035,None,1528.8531985181035,None,1528.8531985181035,None,1528.8531985181035,None,3,1.913058378326241,1528.8531985181035,None,1530.7993392990902,None,1530.7993392990902,None,1530.7993392990902,None,1530.7993392990902,None,1530.7993392990902,None,1530.7993392990902,None,1530.7993392990902,None,1534.8008659380139,None,1534.8008659380139,None,1534.8008659380139,None,1534.8008659380139,None,1534.8008659380139,None,1534.8008659380139,None,1534.8008659380139,None,1535.7845580042922,None,,,,,,,,,,,,,,,,,,,,,,,,,,,,,,24213,2019_Sep_23_1700,Mmi_3levels,3.1.5,59.97650964758672,
,,,3,1,3.5,,,,,,,,,0,2,2,2,0,0,0,3,,,,,,,,,,,,,,,,,,,,,,,,,,,,,,,,,,,,,,,,,,,,,,,,1541.2367045462597,None,0.5,7.502108048007358,1544.2378081676434,None,None,1544.2378081676434,None,1548.739518156799,None,True,False,True,0.5,-0.5,-0.5,-1.7916666666666667,3.5,1.7083333333333333,0.8541666666666666,gamble,lose,1.7083333333333333,70.00875,1551.7740657616523,None,1551.7740657616523,None,1551.7740657616523,None,1551.7740657616523,None,1551.7740657616523,None,1551.7740657616523,None,1551.7740657616523,None,1,0.8172049100976437,1551.7740657616523,None,1552.6244372298825,None,1552.6244372298825,None,1552.6244372298825,None,1552.6244372298825,None,1552.6244372298825,None,1552.6244372298825,None,1552.6244372298825,None,1556.60919771943,None,1556.60919771943,None,1556.60919771943,None,1556.60919771943,None,1556.60919771943,None,1556.60919771943,None,1556.60919771943,None,1566.1128330462961,None,1557.6095621800632,None,1558.6099637587322,None,0.61,7.502875047270209,1561.611127856886,None,None,1561.611127856886,None,1537.7853403627523,None,4,3.434869059768971,1537.7853403627523,None,,,,,,,,,,,,,24213,2019_Sep_23_1700,Mmi_3levels,3.1.5,59.97650964758672,
,,,3,1,1.1,,,,,,,,,0,2,2,2,0,1,1,0,,,,,,,,,,,,,,,,,,,,,,,,,,,,,,,,,,,,,,,,,,,,,,,,,,,,,,,,,,,True,False,False,0.61,-0.39,-0.89,-1.4391666666666667,1.1,-0.3391666666666666,0.38041666666666674,gamble,lose,-0.3391666666666666,69.66958333333334,1568.1302231625305,None,1568.1302231625305,None,1568.1302231625305,None,1568.1302231625305,None,1568.1302231625305,None,1568.1302231625305,None,1568.1302231625305,None,1,1.6510018988046795,1568.1302231625305,None,1569.814347141888,None,1569.814347141888,None,1569.814347141888,None,1569.814347141888,None,1569.814347141888,None,1569.814347141888,None,1569.814347141888,None,1573.8158789005247,None,1573.8158789005247,None,1573.8158789005247,None,1573.8158789005247,None,1573.8158789005247,None,1573.8158789005247,None,1573.8158789005247,None,1574.7994916110183,None,,,,,,,,,,,,,,,,,,,,,,,,,,,,,,24213,2019_Sep_23_1700,Mmi_3levels,3.1.5,59.97650964758672,
,,,3,1,3.9,,,,,,,,,0,2,2,2,0,2,2,23,,,,,,,,,,,,,,,,,,,,,,,,,,,,,,,,,,,,,,,,,,,,,,,,,,,,,,,,,,,True,True,True,0.61,-0.39,-1.28,6.74,3.9,-2.8400000000000003,0.5299999999999998,gamble,win,3.9,73.56958333333334,1576.8169335644925,None,1576.8169335644925,None,1576.8169335644925,None,1576.8169335644925,None,1576.8169335644925,None,1576.8169335644925,None,1576.8169335644925,None,1,2.2677966546616517,1576.8169335644925,None,1579.1178894177428,None,1579.1178894177428,None,1579.1178894177428,None,1579.1178894177428,None,1579.1178894177428,None,1579.1178894177428,None,1579.1178894177428,None,1583.1193798985332,None,1583.1193798985332,None,1583.1193798985332,None,1583.1193798985332,None,1583.1193798985332,None,1583.1193798985332,None,1583.1193798985332,None,1584.1030617253855,None,,,,,,,,,,,,,,,,,,,,,,,,,,,,,,24213,2019_Sep_23_1700,Mmi_3levels,3.1.5,59.97650964758672,
,,,3,1,3.3,,,,,,,,,0,2,2,2,0,3,3,1,,,,,,,,,,,,,,,,,,,,,,,,,,,,,,,,,,,,,,,,,,,,,,,,,,,,,,,,,,,True,False,True,0.61,-0.39,-1.67,-1.5041666666666667,3.3,1.7958333333333332,0.8979166666666666,gamble,lose,1.7958333333333332,75.36541666666668,1586.1204819200211,None,1586.1204819200211,None,1586.1204819200211,None,1586.1204819200211,None,1586.1204819200211,None,1586.1204819200211,None,1586.1204819200211,None,1,0.8505916165886447,1586.1204819200211,None,1587.004152419453,None,1587.004152419453,None,1587.004152419453,None,1587.004152419453,None,1587.004152419453,None,1587.004152419453,None,1587.004152419453,None,1590.9890069839312,None,1590.9890069839312,None,1590.9890069839312,None,1590.9890069839312,None,1590.9890069839312,None,1590.9890069839312,None,1590.9890069839312,None,1600.4926410309272,None,1591.9893948033568,None,1592.9897781430045,None,0.63,7.5027966514462605,1595.9909236821695,None,None,1595.9909236821695,None,,,,,,,,,,,,,,,,,,,24213,2019_Sep_23_1700,Mmi_3levels,3.1.5,59.97650964758672,
,,,3,1,0.1,,,,,,,,,0,2,2,2,0,4,4,22,,,,,,,,,,,,,,,,,,,,,,,,,,,,,,,,,,,,,,,,,,,,,,,,,,,,,,,,,,,True,True,False,0.63,-0.37,-2.04,7.22,0.1,-7.12,-3.5100000000000002,certain,certain,-3.5100000000000002,71.85541666666667,1602.5100817044731,None,1602.5100817044731,None,1602.5100817044731,None,1602.5100817044731,None,1602.5100817044731,None,1602.5100817044731,None,1602.5100817044731,None,3,2.034374813956674,1602.5100817044731,None,1604.5775360412663,None,1604.5775360412663,None,1604.5775360412663,None,1604.5775360412663,None,1604.5775360412663,None,1604.5775360412663,None,1604.5775360412663,None,1608.579118037247,None,1608.579118037247,None,1608.579118037247,None,1608.579118037247,None,1608.579118037247,None,1608.579118037247,None,1608.579118037247,None,1609.5627768253325,None,,,,,,,,,,,,,,,,,,,,,,,,,,,,,,24213,2019_Sep_23_1700,Mmi_3levels,3.1.5,59.97650964758672,
,,,3,1,0.7,,,,,,,,,0,2,2,2,0,5,5,12,,,,,,,,,,,,,,,,,,,,,,,,,,,,,,,,,,,,,,,,,,,,,,,,,,,,,,,,,,,True,True,True,0.63,-0.37,-2.41,7.59,0.7,-6.89,-3.0949999999999998,certain,certain,-3.0949999999999998,68.76041666666667,1611.5802165389177,None,1611.5802165389177,None,1611.5802165389177,None,1611.5802165389177,None,1611.5802165389177,None,1611.5802165389177,None,1611.5802165389177,None,3,1.6342235900228843,1611.5802165389177,None,1613.2475366108702,None,1613.2475366108702,None,1613.2475366108702,None,1613.2475366108702,None,1613.2475366108702,None,1613.2475366108702,None,1613.2475366108702,None,1617.2490277316538,None,1617.2490277316538,None,1617.2490277316538,None,1617.2490277316538,None,1617.2490277316538,None,1617.2490277316538,None,1617.2490277316538,None,1626.7360073032905,None,1618.2327725951327,None,1619.233191772888,None,0.58,7.502735214715358,1622.234272035479,None,None,1622.234272035479,None,,,,,,,,,,,,,,,,,,,24213,2019_Sep_23_1700,Mmi_3levels,3.1.5,59.97650964758672,
,,,3,1,5.7,,,,,,,,,0,2,2,2,0,6,6,6,,,,,,,,,,,,,,,,,,,,,,,,,,,,,,,,,,,,,,,,,,,,,,,,,,,,,,,,,,,True,True,True,0.58,-0.42000000000000004,-2.83,8.71,5.7,-3.0100000000000007,1.3449999999999998,gamble,win,5.7,74.46041666666667,1628.7534879747545,None,1628.7534879747545,None,1628.7534879747545,None,1628.7534879747545,None,1628.7534879747545,None,1628.7534879747545,None,1628.7534879747545,None,1,0.7505041332333349,1628.7534879747545,None,1629.5370764305117,None,1629.5370764305117,None,1629.5370764305117,None,1629.5370764305117,None,1629.5370764305117,None,1629.5370764305117,None,1629.5370764305117,None,1633.5386533067212,None,1633.5386533067212,None,1633.5386533067212,None,1633.5386533067212,None,1633.5386533067212,None,1633.5386533067212,None,1633.5386533067212,None,1634.522359772236,None,,,,,,,,,,,,,,,,,,,,,,,,,,,,,,24213,2019_Sep_23_1700,Mmi_3levels,3.1.5,59.97650964758672,
,,,3,1,12.9,,,,,,,,,0,2,2,2,0,7,7,24,,,,,,,,,,,,,,,,,,,,,,,,,,,,,,,,,,,,,,,,,,,,,,,,,,,,,,,,,,,True,True,True,0.58,-0.42000000000000004,-3.25,9.13,12.9,3.7699999999999996,1.8849999999999998,gamble,win,12.9,87.36041666666668,1636.5397524483851,None,1636.5397524483851,None,1636.5397524483851,None,1636.5397524483851,None,1636.5397524483851,None,1636.5397524483851,None,1636.5397524483851,None,1,1.0339793150196783,1636.5397524483851,None,1637.6067828076775,None,1637.6067828076775,None,1637.6067828076775,None,1637.6067828076775,None,1637.6067828076775,None,1637.6067828076775,None,1637.6067828076775,None,1641.5916885695187,None,1641.5916885695187,None,1641.5916885695187,None,1641.5916885695187,None,1641.5916885695187,None,1641.5916885695187,None,1641.5916885695187,None,1651.0953190966393,None,1642.5920687093167,None,1643.5924546088208,None,0.72,7.502883366832975,1646.5935988680576,None,None,1646.5935988680576,None,,,,,,,,,,,,,,,,,,,24213,2019_Sep_23_1700,Mmi_3levels,3.1.5,59.97650964758672,
,,,3,1,12.3,,,,,,,,,0,2,2,2,0,8,8,8,,,,,,,,,,,,,,,,,,,,,,,,,,,,,,,,,,,,,,,,,,,,,,,,,,,,,,,,,,,True,False,True,0.72,-0.28,-3.5300000000000002,-1.274166666666667,12.3,11.025833333333335,5.512916666666667,gamble,lose,11.025833333333335,98.38625000000002,1653.1127613701392,None,1653.1127613701392,None,1653.1127613701392,None,1653.1127613701392,None,1653.1127613701392,None,1653.1127613701392,None,1653.1127613701392,None,1,0.6838558336021379,1653.1127613701392,None,1653.8296957665589,None,1653.8296957665589,None,1653.8296957665589,None,1653.8296957665589,None,1653.8296957665589,None,1653.8296957665589,None,1653.8296957665589,None,1657.831231685006,None,1657.831231685006,None,1657.831231685006,None,1657.831231685006,None,1657.831231685006,None,1657.831231685006,None,1657.831231685006,None,1658.8150171862799,None,,,,,,,,,,,,,,,,,,,,,,,,,,,,,,24213,2019_Sep_23_1700,Mmi_3levels,3.1.5,59.97650964758672,
,,,3,1,2.3,,,,,,,,,0,2,2,2,0,9,9,14,,,,,,,,,,,,,,,,,,,,,,,,,,,,,,,,,,,,,,,,,,,,,,,,,,,,,,,,,,,True,False,False,0.72,-0.28,-3.8100000000000005,-1.2975,2.3,1.0024999999999997,1.6512499999999997,gamble,lose,1.0024999999999997,99.38875000000002,1660.8323868236039,None,1660.8323868236039,None,1660.8323868236039,None,1660.8323868236039,None,1660.8323868236039,None,1660.8323868236039,None,1660.8323868236039,None,1,0.7505399713409133,1660.8323868236039,None,1661.6160063177813,None,1661.6160063177813,None,1661.6160063177813,None,1661.6160063177813,None,1661.6160063177813,None,1661.6160063177813,None,1661.6160063177813,None,1665.60086504207,None,1665.60086504207,None,1665.60086504207,None,1665.60086504207,None,1665.60086504207,None,1665.60086504207,None,1665.60086504207,None,1666.6012493416201,None,,,,,,,,,,,,,,,,,,,,,,,,,,,,,,24213,2019_Sep_23_1700,Mmi_3levels,3.1.5,59.97650964758672,
,,,3,1,6.7,,,,,,,,,0,2,2,2,0,10,10,16,,,,,,,,,,,,,,,,,,,,,,,,,,,,,,,,,,,,,,,,,,,,,,,,,,,,,,,,,,,True,False,True,0.72,-0.28,-4.090000000000001,-1.3208333333333335,6.7,5.379166666666666,2.689583333333333,gamble,lose,5.379166666666666,104.76791666666668,1668.6186858554138,None,1668.6186858554138,None,1668.6186858554138,None,1668.6186858554138,None,1668.6186858554138,None,1668.6186858554138,None,1668.6186858554138,None,1,0.5004607755108736,1668.6186858554138,None,1669.1522187941591,None,1669.1522187941591,None,1669.1522187941591,None,1669.1522187941591,None,1669.1522187941591,None,1669.1522187941591,None,1669.1522187941591,None,1673.1371536743827,None,1673.1371536743827,None,1673.1371536743827,None,1673.1371536743827,None,1673.1371536743827,None,1673.1371536743827,None,1673.1371536743827,None,1682.6407592428732,None,1674.137460538128,None,1675.1378525173059,None,0.84,7.5026916970382445,1678.1390553333913,None,None,1678.1390553333913,None,,,,,,,,,,,,,,,,,,,24213,2019_Sep_23_1700,Mmi_3levels,3.1.5,59.97650964758672,
,,,3,1,4.1,,,,,,,,,0,2,2,2,0,11,11,5,,,,,,,,,,,,,,,,,,,,,,,,,,,,,,,,,,,,,,,,,,,,,,,,,,,,,,,,,,,True,True,True,0.84,-0.16000000000000003,-4.250000000000001,6.490000000000001,4.1,-2.3900000000000015,0.8549999999999991,gamble,win,4.1,108.86791666666667,1684.6794499875978,None,1684.6794499875978,None,1684.6794499875978,None,1684.6794499875978,None,1684.6794499875978,None,1684.6794499875978,None,1684.6794499875978,None,1,1.6294184052967466,1684.6794499875978,None,1686.342123266426,None,1686.342123266426,None,1686.342123266426,None,1686.342123266426,None,1686.342123266426,None,1686.342123266426,None,1686.342123266426,None,1690.326981670747,None,1690.326981670747,None,1690.326981670747,None,1690.326981670747,None,1690.326981670747,None,1690.326981670747,None,1690.326981670747,None,1691.3273198927636,None,,,,,,,,,,,,,,,,,,,,,,,,,,,,,,24213,2019_Sep_23_1700,Mmi_3levels,3.1.5,59.97650964758672,
,,,3,1,2.5,,,,,,,,,0,2,2,2,0,12,12,10,,,,,,,,,,,,,,,,,,,,,,,,,,,,,,,,,,,,,,,,,,,,,,,,,,,,,,,,,,,True,True,False,0.84,-0.16000000000000003,-4.410000000000001,6.650000000000001,2.5,-4.150000000000001,-0.8250000000000006,certain,certain,-0.8250000000000006,108.04291666666667,1693.344800244202,None,1693.344800244202,None,1693.344800244202,None,1693.344800244202,None,1693.344800244202,None,1693.344800244202,None,1693.344800244202,None,3,1.5175149096176028,1693.344800244202,None,1694.895395316591,None,1694.895395316591,None,1694.895395316591,None,1694.895395316591,None,1694.895395316591,None,1694.895395316591,None,1694.895395316591,None,1698.8802492411924,None,1698.8802492411924,None,1698.8802492411924,None,1698.8802492411924,None,1698.8802492411924,None,1698.8802492411924,None,1698.8802492411924,None,1708.3838845680584,None,1699.88063386071,None,1700.8810571982758,None,0.65,7.502787371980958,1703.8822100969846,None,None,1703.8822100969846,None,,,,,,,,,,,,,,,,,,,24213,2019_Sep_23_1700,Mmi_3levels,3.1.5,59.97650964758672,
,,,3,1,10.9,,,,,,,,,0,2,2,2,0,13,13,17,,,,,,,,,,,,,,,,,,,,,,,,,,,,,,,,,,,,,,,,,,,,,,,,,,,,,,,,,,,True,False,True,0.65,-0.35,-4.760000000000001,-1.6216666666666666,10.9,9.278333333333334,4.639166666666667,gamble,lose,9.278333333333334,117.32125,1710.4013252416044,None,1710.4013252416044,None,1710.4013252416044,None,1710.4013252416044,None,1710.4013252416044,None,1710.4013252416044,None,1710.4013252416044,None,1,0.8505858568823896,1710.4013252416044,None,1711.2849941411405,None,1711.2849941411405,None,1711.2849941411405,None,1711.2849941411405,None,1711.2849941411405,None,1711.2849941411405,None,1711.2849941411405,None,1715.2698496655794,None,1715.2698496655794,None,1715.2698496655794,None,1715.2698496655794,None,1715.2698496655794,None,1715.2698496655794,None,1715.2698496655794,None,1716.2702758829691,None,,,,,,,,,,,,,,,,,,,,,,,,,,,,,,24213,2019_Sep_23_1700,Mmi_3levels,3.1.5,59.97650964758672,
,,,3,1,13.5,,,,,,,,,0,2,2,2,0,14,14,15,,,,,,,,,,,,,,,,,,,,,,,,,,,,,,,,,,,,,,,,,,,,,,,,,,,,,,,,,,,True,True,False,0.65,-0.35,-5.11,10.01,13.5,3.49,1.745,gamble,win,13.5,130.82125000000002,1718.287651599967,None,1718.287651599967,None,1718.287651599967,None,1718.287651599967,None,1718.287651599967,None,1718.287651599967,None,1718.287651599967,None,1,0.7837362879654393,1718.287651599967,None,1719.1046389215626,None,1719.1046389215626,None,1719.1046389215626,None,1719.1046389215626,None,1719.1046389215626,None,1719.1046389215626,None,1719.1046389215626,None,1723.0895050055115,None,1723.0895050055115,None,1723.0895050055115,None,1723.0895050055115,None,1723.0895050055115,None,1723.0895050055115,None,1723.0895050055115,None,1724.0898912249831,None,,,,,,,,,,,,,,,,,,,,,,,,,,,,,,24213,2019_Sep_23_1700,Mmi_3levels,3.1.5,59.97650964758672,
,,,3,1,10.3,,,,,,,,,0,2,2,2,0,15,15,18,,,,,,,,,,,,,,,,,,,,,,,,,,,,,,,,,,,,,,,,,,,,,,,,,,,,,,,,,,,True,True,False,0.65,-0.35,-5.46,10.36,10.3,-0.05999999999999872,-0.02999999999999936,gamble,win,10.3,141.12125000000003,1726.1073654967477,None,1726.1073654967477,None,1726.1073654967477,None,1726.1073654967477,None,1726.1073654967477,None,1726.1073654967477,None,1726.1073654967477,None,1,1.117411683080718,1726.1073654967477,None,1727.25774182874,None,1727.25774182874,None,1727.25774182874,None,1727.25774182874,None,1727.25774182874,None,1727.25774182874,None,1727.25774182874,None,1731.2593065456604,None,1731.2593065456604,None,1731.2593065456604,None,1731.2593065456604,None,1731.2593065456604,None,1731.2593065456604,None,1731.2593065456604,None,1740.7462649983936,None,1732.2430059715407,None,1733.2433893111884,None,0.63,7.502858088177163,1736.244533570367,None,None,1736.244533570367,None,,,,,,,,,,,,,,,,,,,24213,2019_Sep_23_1700,Mmi_3levels,3.1.5,59.97650964758672,
,,,3,1,6.5,,,,,,,,,0,2,2,2,0,16,16,9,,,,,,,,,,,,,,,,,,,,,,,,,,,,,,,,,,,,,,,,,,,,,,,,,,,,,,,,,,,True,True,False,0.63,-0.37,-5.83,11.01,6.5,-4.51,0.9950000000000001,gamble,win,6.5,147.62125000000003,1742.7849778219825,None,1742.7849778219825,None,1742.7849778219825,None,1742.7849778219825,None,1742.7849778219825,None,1742.7849778219825,None,1742.7849778219825,None,1,1.3793836871627718,1742.7849778219825,None,1744.1975763847586,None,1744.1975763847586,None,1744.1975763847586,None,1744.1975763847586,None,1744.1975763847586,None,1744.1975763847586,None,1744.1975763847586,None,1748.1824040706852,None,1748.1824040706852,None,1748.1824040706852,None,1748.1824040706852,None,1748.1824040706852,None,1748.1824040706852,None,1748.1824040706852,None,1749.182818448695,None,,,,,,,,,,,,,,,,,,,,,,,,,,,,,,24213,2019_Sep_23_1700,Mmi_3levels,3.1.5,59.97650964758672,
,,,3,1,5.1,,,,,,,,,0,2,2,2,0,17,17,2,,,,,,,,,,,,,,,,,,,,,,,,,,,,,,,,,,,,,,,,,,,,,,,,,,,,,,,,,,,True,True,True,0.63,-0.37,-6.2,11.379999999999999,5.1,-6.279999999999999,-0.5899999999999999,certain,certain,-0.5899999999999999,147.03125000000003,1751.2002533625346,None,1751.2002533625346,None,1751.2002533625346,None,1751.2002533625346,None,1751.2002533625346,None,1751.2002533625346,None,1751.2002533625346,None,3,1.1840500632533804,1751.2002533625346,None,1752.4173842285527,None,1752.4173842285527,None,1752.4173842285527,None,1752.4173842285527,None,1752.4173842285527,None,1752.4173842285527,None,1752.4173842285527,None,1756.4189134273329,None,1756.4189134273329,None,1756.4189134273329,None,1756.4189134273329,None,1756.4189134273329,None,1756.4189134273329,None,1756.4189134273329,None,1765.9058763598441,None,1757.40259909397,None,1758.4029792337678,None,0.74,7.5027640131884255,1761.4041510114912,None,None,1761.4041510114912,None,,,,,,,,,,,,,,,,,,,24213,2019_Sep_23_1700,Mmi_3levels,3.1.5,59.97650964758672,
,,,3,1,1.5,,,,,,,,,0,2,2,2,0,18,18,21,,,,,,,,,,,,,,,,,,,,,,,,,,,,,,,,,,,,,,,,,,,,,,,,,,,,,,,,,,,True,False,False,0.74,-0.26,-6.46,-1.4483333333333333,1.5,0.05166666666666675,0.7758333333333334,gamble,lose,0.05166666666666675,147.0829166666667,1767.923278635426,None,1767.923278635426,None,1767.923278635426,None,1767.923278635426,None,1767.923278635426,None,1767.923278635426,None,1767.923278635426,None,1,1.1507955097476952,1767.923278635426,None,1769.107096071064,None,1769.107096071064,None,1769.107096071064,None,1769.107096071064,None,1769.107096071064,None,1769.107096071064,None,1769.107096071064,None,1773.0919477557181,None,1773.0919477557181,None,1773.0919477557181,None,1773.0919477557181,None,1773.0919477557181,None,1773.0919477557181,None,1773.0919477557181,None,1774.092336215137,None,,,,,,,,,,,,,,,,,,,,,,,,,,,,,,24213,2019_Sep_23_1700,Mmi_3levels,3.1.5,59.97650964758672,
,,,3,1,0.9,,,,,,,,,0,2,2,2,0,19,19,11,,,,,,,,,,,,,,,,,,,,,,,,,,,,,,,,,,,,,,,,,,,,,,,,,,,,,,,,,,,True,False,True,0.74,-0.26,-6.72,-1.47,0.9,-0.57,0.16500000000000004,gamble,lose,-0.57,146.5129166666667,1776.109767289192,None,1776.109767289192,None,1776.109767289192,None,1776.109767289192,None,1776.109767289192,None,1776.109767289192,None,1776.109767289192,None,1,2.151097573689185,1776.109767289192,None,1778.2939411858679,None,1778.2939411858679,None,1778.2939411858679,None,1778.2939411858679,None,1778.2939411858679,None,1778.2939411858679,None,1778.2939411858679,None,1782.2787973503,None,1782.2787973503,None,1782.2787973503,None,1782.2787973503,None,1782.2787973503,None,1782.2787973503,None,1782.2787973503,None,1791.7824384368723,None,1783.2791816499084,None,1784.2795608297456,None,0.74,7.502835369377863,1787.2807530863793,None,None,1787.2807530863793,None,,,,,,,,,,,,,,,,,,,24213,2019_Sep_23_1700,Mmi_3levels,3.1.5,59.97650964758672,
,,,3,1,7.5,,,,,,,,,0,2,2,2,0,20,20,4,,,,,,,,,,,,,,,,,,,,,,,,,,,,,,,,,,,,,,,,,,,,,,,,,,,,,,,,,,,True,False,False,0.74,-0.26,-6.9799999999999995,-1.4916666666666667,7.5,6.008333333333333,3.0041666666666664,gamble,lose,6.008333333333333,152.52125000000004,1793.8212658143602,None,1793.8212658143602,None,1793.8212658143602,None,1793.8212658143602,None,1793.8212658143602,None,1793.8212658143602,None,1793.8212658143602,None,1,0.6003738681320101,1793.8212658143602,None,1794.4501133699669,None,1794.4501133699669,None,1794.4501133699669,None,1794.4501133699669,None,1794.4501133699669,None,1794.4501133699669,None,1794.4501133699669,None,1798.4349752941052,None,1798.4349752941052,None,1798.4349752941052,None,1798.4349752941052,None,1798.4349752941052,None,1798.4349752941052,None,1798.4349752941052,None,1799.4353551139357,None,,,,,,,,,,,,,,,,,,,,,,,,,,,,,,24213,2019_Sep_23_1700,Mmi_3levels,3.1.5,59.97650964758672,
,,,3,1,13.1,,,,,,,,,0,2,2,2,0,21,21,25,,,,,,,,,,,,,,,,,,,,,,,,,,,,,,,,,,,,,,,,,,,,,,,,,,,,,,,,,,,True,True,True,0.74,-0.26,-7.239999999999999,10.879999999999999,13.1,2.2200000000000006,1.1100000000000003,gamble,win,13.1,165.62125000000003,1801.4527941875858,None,1801.4527941875858,None,1801.4527941875858,None,1801.4527941875858,None,1801.4527941875858,None,1801.4527941875858,None,1801.4527941875858,None,1,0.8505877767456695,1801.4527941875858,None,1802.3364634070895,None,1802.3364634070895,None,1802.3364634070895,None,1802.3364634070895,None,1802.3364634070895,None,1802.3364634070895,None,1802.3364634070895,None,1806.3213211714174,None,1806.3213211714174,None,1806.3213211714174,None,1806.3213211714174,None,1806.3213211714174,None,1806.3213211714174,None,1806.3213211714174,None,1807.3217454688856,None,,,,,,,,,,,,,,,,,,,,,,,,,,,,,,24213,2019_Sep_23_1700,Mmi_3levels,3.1.5,59.97650964758672,
,,,3,1,13.7,,,,,,,,,0,2,2,2,0,22,22,20,,,,,,,,,,,,,,,,,,,,,,,,,,,,,,,,,,,,,,,,,,,,,,,,,,,,,,,,,,,True,False,True,0.74,-0.26,-7.499999999999999,-1.535,13.7,12.165,6.0825,gamble,lose,12.165,177.78625000000002,1809.3391442246502,None,1809.3391442246502,None,1809.3391442246502,None,1809.3391442246502,None,1809.3391442246502,None,1809.3391442246502,None,1809.3391442246502,None,1,0.5836822747951373,1809.3391442246502,None,1809.9560426550452,None,1809.9560426550452,None,1809.9560426550452,None,1809.9560426550452,None,1809.9560426550452,None,1809.9560426550452,None,1809.9560426550452,None,1813.9408968995558,None,1813.9408968995558,None,1813.9408968995558,None,1813.9408968995558,None,1813.9408968995558,None,1813.9408968995558,None,1813.9408968995558,None,1823.4445335064083,None,1814.941279919236,None,1815.9416648587794,None,0.7,7.502845928829629,1818.942854235589,None,None,1818.942854235589,None,,,,,,,,,,,,,,,,,,,24213,2019_Sep_23_1700,Mmi_3levels,3.1.5,59.97650964758672,
,,,3,1,0.3,,,,,,,,,0,2,2,2,0,23,23,19,,,,,,,,,,,,,,,,,,,,,,,,,,,,,,,,,,,,,,,,,,,,,,,,,,,,,,,,,,,True,True,True,0.7,-0.30000000000000004,-7.799999999999999,12.0,0.3,-11.7,-5.699999999999999,certain,certain,-5.699999999999999,172.08625000000004,1825.46197577985,None,1825.46197577985,None,1825.46197577985,None,1825.46197577985,None,1825.46197577985,None,1825.46197577985,None,1825.46197577985,None,3,1.5176019449718297,1825.46197577985,None,1827.0125401339028,None,1827.0125401339028,None,1827.0125401339028,None,1827.0125401339028,None,1827.0125401339028,None,1827.0125401339028,None,1827.0125401339028,None,1831.014091411489,None,1831.014091411489,None,1831.014091411489,None,1831.014091411489,None,1831.014091411489,None,1831.014091411489,None,1831.014091411489,None,1831.9977805978851,None,,,,,,,,,,,,,,,,,,,,,,,,,,,,,,24213,2019_Sep_23_1700,Mmi_3levels,3.1.5,59.97650964758672,
,,,3,1,5.3,,,,,,,,,0,2,2,2,0,24,24,13,,,,,,,,,,,,,,,,,,,,,,,,,,,,,,,,,,,,,,,,,,,,,,,,,,,,,,,,,,,True,True,True,0.7,-0.30000000000000004,-8.1,12.3,5.3,-7.000000000000001,-0.8500000000000005,certain,certain,-0.8500000000000005,171.23625000000004,1834.0152164716856,None,1834.0152164716856,None,1834.0152164716856,None,1834.0152164716856,None,1834.0152164716856,None,1834.0152164716856,None,1834.0152164716856,None,3,1.9344038044800982,1834.0152164716856,None,1835.9826172433677,None,1835.9826172433677,None,1835.9826172433677,None,1835.9826172433677,None,1835.9826172433677,None,1835.9826172433677,None,1835.9826172433677,None,1839.984192199714,None,1839.984192199714,None,1839.984192199714,None,1839.984192199714,None,1839.984192199714,None,1839.984192199714,None,1839.984192199714,None,1849.4711468126625,None,1840.9679009051179,None,1841.9682781650918,None,0.66,7.5028152104932815,1844.96941378474,None,None,1844.96941378474,None,,,,,,,,,,,,,,,,,,,24213,2019_Sep_23_1700,Mmi_3levels,3.1.5,59.97650964758672,
,,,3,1,7.7,,,,,,,,,0,2,2,2,0,25,25,26,,,,,,,,,,,,,,,,,,,,,,,,,,,,,,,,,,,,,,,,,,,,,,,,,,,,,,,,,,,True,True,True,0.66,-0.33999999999999997,-8.44,13.2,7.7,-5.499999999999999,1.1000000000000005,gamble,win,7.7,178.93625000000003,1851.4885874862666,None,1851.4885874862666,None,1851.4885874862666,None,1851.4885874862666,None,1851.4885874862666,None,1851.4885874862666,None,1851.4885874862666,None,1,1.2840684303082526,1851.4885874862666,None,1852.8057645577937,None,1852.8057645577937,None,1852.8057645577937,None,1852.8057645577937,None,1852.8057645577937,None,1852.8057645577937,None,1852.8057645577937,None,1856.7906127226888,None,1856.7906127226888,None,1856.7906127226888,None,1856.7906127226888,None,1856.7906127226888,None,1856.7906127226888,None,1856.7906127226888,None,1857.7909976622323,None,,,,,,,,,,,,,,,,,,,,,,,,,,,,,,24213,2019_Sep_23_1700,Mmi_3levels,3.1.5,59.97650964758672,
,,,3,1,13.3,,,,,,,,,0,2,2,2,0,26,26,7,,,,,,,,,,,,,,,,,,,,,,,,,,,,,,,,,,,,,,,,,,,,,,,,,,,,,,,,,,,True,False,False,0.66,-0.33999999999999997,-8.78,-1.9216666666666664,13.3,11.378333333333334,5.689166666666667,gamble,lose,11.378333333333334,190.31458333333336,1859.8085215313477,None,1859.8085215313477,None,1859.8085215313477,None,1859.8085215313477,None,1859.8085215313477,None,1859.8085215313477,None,1859.8085215313477,None,1,0.7838684408925474,1859.8085215313477,None,1860.6253984588548,None,1860.6253984588548,None,1860.6253984588548,None,1860.6253984588548,None,1860.6253984588548,None,1860.6253984588548,None,1860.6253984588548,None,1864.6269631757168,None,1864.6269631757168,None,1864.6269631757168,None,1864.6269631757168,None,1864.6269631757168,None,1864.6269631757168,None,1864.6269631757168,None,1874.1139024295262,None,1865.6106517221779,None,1866.6110744197504,None,0.68,7.502832169528119,1869.6121620419435,None,None,1869.6121620419435,None,,,,,,,,,,,,,,,,,,,24213,2019_Sep_23_1700,Mmi_3levels,3.1.5,59.97650964758672,
,,,,,,,,,,,,,,,,,,,,,,,,,,,,,,0,0,0,0,,,,,,,,,,,,,,,,,,,,,,,,,,,,,,,,,,,,,,,,,,,,,,,,,,,,,,,,,,,,,,,,,,,,,,,,,,,,,,,,,,,,,,,,,,,,,,,,,,,,,,,,,,,,,,,,,,,,,,,,1876.114665588946,None,4,2.0176665815524757,1876.114665588946,None,190.31458333333336,4,1878.1654526511556,None,1878.1654526511556,None,1878.1654526511556,None,4,5.235550047596917,1878.1654526511556,None,24213,2019_Sep_23_1700,Mmi_3levels,3.1.5,59.97650964758672,
