currSlide,currImage,currText,blockNum,targetHappiness,highAmount,instructionLoop1.thisRepN,instructionLoop1.thisTrialN,instructionLoop1.thisN,instructionLoop1.thisIndex,instructionLoop2.thisRepN,instructionLoop2.thisTrialN,instructionLoop2.thisN,instructionLoop2.thisIndex,blockLoop.thisRepN,blockLoop.thisTrialN,blockLoop.thisN,blockLoop.thisIndex,trialLoop.thisRepN,trialLoop.thisTrialN,trialLoop.thisN,trialLoop.thisIndex,doRatingLoop.thisRepN,doRatingLoop.thisTrialN,doRatingLoop.thisN,doRatingLoop.thisIndex,trialHappyLoop.thisRepN,trialHappyLoop.thisTrialN,trialHappyLoop.thisN,trialHappyLoop.thisIndex,logWinningsLoop.thisRepN,logWinningsLoop.thisTrialN,logWinningsLoop.thisN,logWinningsLoop.thisIndex,instrImage.started,instrImage.stopped,instrText.started,instrText.stopped,instrContinueText.started,instrContinueText.stopped,instrKeyResp.keys,instrKeyResp.rt,instrKeyResp.started,instrKeyResp.stopped,lifeHappyText.started,lifeHappyText.stopped,lifeHappySlider.response,lifeHappySlider.rt,lifeHappySlider.started,lifeHappySlider.stopped,lifeHappyResp.keys,lifeHappyResp.started,lifeHappyResp.stopped,instrImage_2.started,instrImage_2.stopped,instrText_2.started,instrText_2.stopped,instrContinueText_2.started,instrContinueText_2.stopped,instrKeyResp_2.keys,instrKeyResp_2.rt,instrKeyResp_2.started,instrKeyResp_2.stopped,localizing.started,localizing.stopped,start_exp.keys,start_exp.rt,start_exp.started,start_exp.stopped,blockHappyText.started,blockHappyText.stopped,blockHappySlider.response,blockHappySlider.rt,blockHappySlider.started,blockHappySlider.stopped,blockHappyResp.keys,blockHappyResp.started,blockHappyResp.stopped,blankText.started,blankText.stopped,isHappyBlock,isCongruent,isWinOnTop,lastHappyRating,diff,sumDiff,RPE,winAmount,loseAmount,certainAmount,choice,outcome,outcomeAmount,currentWinnings,fixCross.started,fixCross.stopped,certainBox.started,certainBox.stopped,outcome1Box.started,outcome1Box.stopped,outcome2Box.started,outcome2Box.stopped,certainText.started,certainText.stopped,outcome1Text.started,outcome1Text.stopped,outcome2Text.started,outcome2Text.stopped,choiceKey.keys,choiceKey.started,choiceKey.stopped,fixCross_2.started,fixCross_2.stopped,certainBox_2.started,certainBox_2.stopped,outcome1Box_2.started,outcome1Box_2.stopped,outcome2Box_2.started,outcome2Box_2.stopped,certainText_2.started,certainText_2.stopped,outcome1Text_2.started,outcome1Text_2.stopped,outcome2Text_2.started,outcome2Text_2.stopped,fixCross_3.started,fixCross_3.stopped,certainBox_3.started,certainBox_3.stopped,outcome1Box_3.started,outcome1Box_3.stopped,outcome2Box_3.started,outcome2Box_3.stopped,certainText_3.started,certainText_3.stopped,outcome1Text_3.started,outcome1Text_3.stopped,outcome2Text_3.started,outcome2Text_3.stopped,fixCross_ITI.started,fixCross_ITI.stopped,choiceKey.rt,fixCross_ISI.started,fixCross_ISI.stopped,happyText.started,happyText.stopped,happySlider.response,happySlider.rt,happySlider.started,happySlider.stopped,happyResp.keys,happyResp.started,happyResp.stopped,endOfBlockText.started,endOfBlockText.stopped,restKeyResp.keys,restKeyResp.rt,restKeyResp.started,restKeyResp.stopped,finalWinnings,cashBonus,goodbyeText.started,goodbyeText.stopped,finalWinningsText.started,finalWinningsText.stopped,spaceToContinue.started,spaceToContinue.stopped,goodbyeKeyResp_2.keys,goodbyeKeyResp_2.rt,goodbyeKeyResp_2.started,goodbyeKeyResp_2.stopped,participant,date,expName,psychopyVersion,frameRate,
1,black.png,"Welcome! You are about to play our gambling task.
This task has 3 blocks and takes about 15 minutes.",,,,0,0,0,0,,,,,,,,,,,,,,,,,,,,,,,,,9.348796980353654,None,9.348796980353654,None,9.348796980353654,None,4,91.10376348421414,9.348796980353654,None,,,,,,,,,,,,,,,,,,,,,,,,,,,,,,,,,,,,,,,,,,,,,,,,,,,,,,,,,,,,,,,,,,,,,,,,,,,,,,,,,,,,,,,,,,,,,,,,,,,,,,,,,,,,,,,,,,,,,,,,,,,,,,,,24235,2019_Nov_08_1613,Mmi_3levels,3.1.5,59.96626684453149,
2,black.png,"In this game, you may win or lose points. Your goal is to get as many points as possible. These points will be converted to a cash bonus at the end.
Sometimes we will ask you to rate your mood.",,,,0,1,1,1,,,,,,,,,,,,,,,,,,,,,,,,,100.50236725697687,None,100.50236725697687,None,100.50236725697687,None,4,11.237925325487595,100.50236725697687,None,,,,,,,,,,,,,,,,,,,,,,,,,,,,,,,,,,,,,,,,,,,,,,,,,,,,,,,,,,,,,,,,,,,,,,,,,,,,,,,,,,,,,,,,,,,,,,,,,,,,,,,,,,,,,,,,,,,,,,,,,,,,,,,,24235,2019_Nov_08_1613,Mmi_3levels,3.1.5,59.96626684453149,
3,black.png,"On the next screen, please rate how you feel about your life these days. Use the LEFT (green) and RIGHT (blue) buttons to move the slider (you can press and hold them to slide gradually) and the TOP (red) button to lock in your response.
Make your rating as accurately and quickly as you can!",,,,0,2,2,2,,,,,,,,,,,,,,,,,,,,,,,,,111.79000209910737,None,111.79000209910737,None,111.79000209910737,None,4,63.125067197073804,111.79000209910737,None,,,,,,,,,,,,,,,,,,,,,,,,,,,,,,,,,,,,,,,,,,,,,,,,,,,,,,,,,,,,,,,,,,,,,,,,,,,,,,,,,,,,,,,,,,,,,,,,,,,,,,,,,,,,,,,,,,,,,,,,,,,,,,,,24235,2019_Nov_08_1613,Mmi_3levels,3.1.5,59.96626684453149,
,,,,,,,,,,,,,,,,,,,,,,,,,,,,,,,,,,,,,,,,,,,,174.93144234362626,None,0.94,10.502883074528654,178.9330438739271,None,None,178.9330438739271,None,,,,,,,,,,,,,,,,,,,,,,,,,,,,,,,,,,,,,,,,,,,,,,,,,,,,,,,,,,,,,,,,,,,,,,,,,,,,,,,,,,,,,,,,,,,,,,,,,,,,,,,,,,,,,,,,,,,,,,,24235,2019_Nov_08_1613,Mmi_3levels,3.1.5,59.96626684453149,
4,black.png,"In this game you can win money by earning points according to your choices. You will decide whether to gamble a number of points or stick with a guaranteed number of points. 
Make your choice by pressing the left or right arrow key once. An example of one trial is shown on the next screen.",,,,,,,,0,0,0,0,,,,,,,,,,,,,,,,,,,,,,,,,,,,,,,,,,,,,,,,185.46896455066235,None,185.46896455066235,None,185.46896455066235,None,4,24.509743255974172,185.46896455066235,None,,,,,,,,,,,,,,,,,,,,,,,,,,,,,,,,,,,,,,,,,,,,,,,,,,,,,,,,,,,,,,,,,,,,,,,,,,,,,,,,,,,,,,,,,,,,,,,,,,,,,,,,,,,,,24235,2019_Nov_08_1613,Mmi_3levels,3.1.5,59.96626684453149,
5,example_start.png,"The GAMBLING OPTION will be shown on the RIGHT SIDE. 
Select this option using the RIGHT (blue) button on your keypad.",,,,,,,,0,1,1,1,,,,,,,,,,,,,,,,,,,,,,,,,,,,,,,,,,,,,,,,210.04522011202062,None,210.04522011202062,None,210.04522011202062,None,4,11.221235171844455,210.04522011202062,None,,,,,,,,,,,,,,,,,,,,,,,,,,,,,,,,,,,,,,,,,,,,,,,,,,,,,,,,,,,,,,,,,,,,,,,,,,,,,,,,,,,,,,,,,,,,,,,,,,,,,,,,,,,,,24235,2019_Nov_08_1613,Mmi_3levels,3.1.5,59.96626684453149,
6,example_gamble.png,"Once you select the gambling choice, the choice you made will remain on the screen.",,,,,,,,0,2,2,2,,,,,,,,,,,,,,,,,,,,,,,,,,,,,,,,,,,,,,,,221.29957896232008,None,221.29957896232008,None,221.29957896232008,None,4,4.985583987385326,221.29957896232008,None,,,,,,,,,,,,,,,,,,,,,,,,,,,,,,,,,,,,,,,,,,,,,,,,,,,,,,,,,,,,,,,,,,,,,,,,,,,,,,,,,,,,,,,,,,,,,,,,,,,,,,,,,,,,,24235,2019_Nov_08_1613,Mmi_3levels,3.1.5,59.96626684453149,
7,example_win.png,"The outcome you received will then be shown on the screen. In this example , you WON 10 points.",,,,,,,,0,3,3,3,,,,,,,,,,,,,,,,,,,,,,,,,,,,,,,,,,,,,,,,226.31825078972543,None,226.31825078972543,None,226.31825078972543,None,4,2.3011497739644255,226.31825078972543,None,,,,,,,,,,,,,,,,,,,,,,,,,,,,,,,,,,,,,,,,,,,,,,,,,,,,,,,,,,,,,,,,,,,,,,,,,,,,,,,,,,,,,,,,,,,,,,,,,,,,,,,,,,,,,24235,2019_Nov_08_1613,Mmi_3levels,3.1.5,59.96626684453149,
8,example_start.png,"The GUARANTEED OPTION will be shown on the LEFT SIDE. You are 100% guaranteed to gain or lose this amount. In this example, you have a 100% chance of winning 1 point. Select this option using the LEFT (green) button on your keyboard.",,,,,,,,0,4,4,4,,,,,,,,,,,,,,,,,,,,,,,,,,,,,,,,,,,,,,,,228.6691654379174,None,228.6691654379174,None,228.6691654379174,None,4,3.8851419586244447,228.6691654379174,None,,,,,,,,,,,,,,,,,,,,,,,,,,,,,,,,,,,,,,,,,,,,,,,,,,,,,,,,,,,,,,,,,,,,,,,,,,,,,,,,,,,,,,,,,,,,,,,,,,,,,,,,,,,,,24235,2019_Nov_08_1613,Mmi_3levels,3.1.5,59.96626684453149,
9,example_certain.png,"Once you select the guaranteed choice, your selection will remain on the screen.",,,,,,,,0,5,5,5,,,,,,,,,,,,,,,,,,,,,,,,,,,,,,,,,,,,,,,,232.5873776373228,None,232.5873776373228,None,232.5873776373228,None,4,2.5679916010049055,232.5873776373228,None,,,,,,,,,,,,,,,,,,,,,,,,,,,,,,,,,,,,,,,,,,,,,,,,,,,,,,,,,,,,,,,,,,,,,,,,,,,,,,,,,,,,,,,,,,,,,,,,,,,,,,,,,,,,,24235,2019_Nov_08_1613,Mmi_3levels,3.1.5,59.96626684453149,
10,black.png,"Please make your choices as fast as possible.
You will be given a break at the end of each block.
Let's play!",,,,,,,,0,6,6,6,,,,,,,,,,,,,,,,,,,,,,,,,,,,,,,,,,,,,,,,235.1883863614239,None,235.1883863614239,None,235.1883863614239,None,4,2.668038766951213,235.1883863614239,None,,,,,,,,,,,,,,,,,,,,,,,,,,,,,,,,,,,,,,,,,,,,,,,,,,,,,,,,,,,,,,,,,,,,,,,,,,,,,,,,,,,,,,,,,,,,,,,,,,,,,,,,,,,,,24235,2019_Nov_08_1613,Mmi_3levels,3.1.5,59.96626684453149,
,,,,,,,,,,,,,,,,,,,,,,,,,,,,,,,,,,,,,,,,,,,,,,,,,,,,,,,,,,,,,,,237.87279497595955,None,space,120.19714694016511,237.87279497595955,None,,,,,,,,,,,,,,,,,,,,,,,,,,,,,,,,,,,,,,,,,,,,,,,,,,,,,,,,,,,,,,,,,,,,,,,,,,,,,,,,,,,,,,,,,,,,,,,,,,,,,,,24235,2019_Nov_08_1613,Mmi_3levels,3.1.5,59.96626684453149,
,,,1,1,-1.3,,,,,,,,,0,0,0,0,0,0,0,3,,,,,,,,,,,,,,,,,,,,,,,,,,,,,,,,,,,,,,,,,,,,,,,,358.08647239672064,None,0.94,7.496026092943794,361.10430490064755,None,None,361.10430490064755,None,365.58938075014885,None,True,True,False,0.94,-0.06000000000000005,-0.06000000000000005,0.9000000000000008,-1.3,-2.200000000000001,-1.7500000000000004,gamble,win,-1.3,-1.3,368.62387716886224,None,368.62387716886224,None,368.62387716886224,None,368.62387716886224,None,368.62387716886224,None,368.62387716886224,None,368.62387716886224,None,None,368.62387716886224,None,371.62509087604485,None,371.62509087604485,None,371.62509087604485,None,371.62509087604485,None,371.62509087604485,None,371.62509087604485,None,371.62509087604485,None,375.6100112123095,None,375.6100112123095,None,375.6100112123095,None,375.6100112123095,None,375.6100112123095,None,375.6100112123095,None,375.6100112123095,None,376.6103635169784,None,,,,,,,,,,,,,,,,,,,,,,,,,,,,,,,24235,2019_Nov_08_1613,Mmi_3levels,3.1.5,59.96626684453149,
,,,1,1,8.9,,,,,,,,,0,0,0,0,0,1,1,10,,,,,,,,,,,,,,,,,,,,,,,,,,,,,,,,,,,,,,,,,,,,,,,,,,,,,,,,,,,True,True,False,0.94,-0.06000000000000005,-0.1200000000000001,0.9600000000000009,8.9,7.9399999999999995,3.9699999999999998,gamble,win,8.9,7.6000000000000005,378.6277861187482,None,378.6277861187482,None,378.6277861187482,None,378.6277861187482,None,378.6277861187482,None,378.6277861187482,None,378.6277861187482,None,1,378.6277861187482,None,380.195120148368,None,380.195120148368,None,380.195120148368,None,380.195120148368,None,380.195120148368,None,380.195120148368,None,380.195120148368,None,384.18000688609754,None,384.18000688609754,None,384.18000688609754,None,384.18000688609754,None,384.18000688609754,None,384.18000688609754,None,384.18000688609754,None,385.18041966813325,None,1.5342369100071664,,,,,,,,,,,,,,,,,,,,,,,,,,,,,,24235,2019_Nov_08_1613,Mmi_3levels,3.1.5,59.96626684453149,
,,,1,1,12.1,,,,,,,,,0,0,0,0,0,2,2,8,,,,,,,,,,,,,,,,,,,,,,,,,,,,,,,,,,,,,,,,,,,,,,,,,,,,,,,,,,,True,True,True,0.94,-0.06000000000000005,-0.18000000000000016,1.020000000000001,12.1,11.079999999999998,5.539999999999999,gamble,win,12.1,19.7,387.1978112312536,None,387.1978112312536,None,387.1978112312536,None,387.1978112312536,None,387.1978112312536,None,387.1978112312536,None,387.1978112312536,None,1,387.1978112312536,None,388.8317826808161,None,388.8317826808161,None,388.8317826808161,None,388.8317826808161,None,388.8317826808161,None,388.8317826808161,None,388.8317826808161,None,392.8167177364412,None,392.8167177364412,None,392.8167177364412,None,392.8167177364412,None,392.8167177364412,None,392.8167177364412,None,392.8167177364412,None,402.3204033360453,None,1.6009082484742976,393.81711035935587,None,394.81757177927284,None,0.83,7.5028379564937495,397.8186622918147,None,None,397.8186622918147,None,,,,,,,,,,,,,,,,,,,24235,2019_Nov_08_1613,Mmi_3levels,3.1.5,59.96626684453149,
,,,1,1,8.7,,,,,,,,,0,0,0,0,0,3,3,19,,,,,,,,,,,,,,,,,,,,,,,,,,,,,,,,,,,,,,,,,,,,,,,,,,,,,,,,,,,True,True,True,0.83,-0.17000000000000004,-0.3500000000000002,2.730000000000001,8.7,5.969999999999999,2.9849999999999994,gamble,win,8.7,28.4,404.337894094846,None,404.337894094846,None,404.337894094846,None,404.337894094846,None,404.337894094846,None,404.337894094846,None,404.337894094846,None,1,404.337894094846,None,405.72177402839225,None,405.72177402839225,None,405.72177402839225,None,405.72177402839225,None,405.72177402839225,None,405.72177402839225,None,405.72177402839225,None,409.72330164191226,None,409.72330164191226,None,409.72330164191226,None,409.72330164191226,None,409.72330164191226,None,409.72330164191226,None,409.72330164191226,None,410.7070591487827,None,1.3508544908145268,,,,,,,,,,,,,,,,,,,,,,,,,,,,,,24235,2019_Nov_08_1613,Mmi_3levels,3.1.5,59.96626684453149,
,,,1,1,1.1,,,,,,,,,0,0,0,0,0,4,4,4,,,,,,,,,,,,,,,,,,,,,,,,,,,,,,,,,,,,,,,,,,,,,,,,,,,,,,,,,,,True,True,True,0.83,-0.17000000000000004,-0.5200000000000002,2.9000000000000012,1.1,-1.8000000000000012,-0.35000000000000053,gamble,win,1.1,29.5,412.7245089493699,None,412.7245089493699,None,412.7245089493699,None,412.7245089493699,None,412.7245089493699,None,412.7245089493699,None,412.7245089493699,None,1,412.7245089493699,None,415.0753800794555,None,415.0753800794555,None,415.0753800794555,None,415.0753800794555,None,415.0753800794555,None,415.0753800794555,None,415.0753800794555,None,419.07699760906326,None,419.07699760906326,None,419.07699760906326,None,419.07699760906326,None,419.07699760906326,None,419.07699760906326,None,419.07699760906326,None,428.5806595296963,None,2.317820728439983,420.060659120114,None,421.0611090205348,None,0.82,7.51965962441318,424.0622635302898,None,None,424.0622635302898,None,,,,,,,,,,,,,,,,,,,24235,2019_Nov_08_1613,Mmi_3levels,3.1.5,59.96626684453149,
,,,1,1,6.9,,,,,,,,,0,0,0,0,0,5,5,23,,,,,,,,,,,,,,,,,,,,,,,,,,,,,,,,,,,,,,,,,,,,,,,,,,,,,,,,,,,True,False,False,0.82,-0.18000000000000005,-0.7000000000000003,-0.6883333333333335,6.9,6.211666666666667,3.1058333333333334,gamble,lose,6.211666666666667,35.711666666666666,430.5982216453922,None,430.5982216453922,None,430.5982216453922,None,430.5982216453922,None,430.5982216453922,None,430.5982216453922,None,430.5982216453922,None,1,430.5982216453922,None,431.8153097977156,None,431.8153097977156,None,431.8153097977156,None,431.8153097977156,None,431.8153097977156,None,431.8153097977156,None,431.8153097977156,None,435.80020517507,None,435.80020517507,None,435.80020517507,None,435.80020517507,None,435.80020517507,None,435.80020517507,None,435.80020517507,None,436.8005952380918,None,1.1840003123070346,,,,,,,,,,,,,,,,,,,,,,,,,,,,,,24235,2019_Nov_08_1613,Mmi_3levels,3.1.5,59.96626684453149,
,,,1,1,-1.5,,,,,,,,,0,0,0,0,0,6,6,14,,,,,,,,,,,,,,,,,,,,,,,,,,,,,,,,,,,,,,,,,,,,,,,,,,,,,,,,,,,True,True,False,0.82,-0.18000000000000005,-0.8800000000000003,3.400000000000001,-1.5,-4.9,-3.2,gamble,win,-1.5,34.211666666666666,438.8180514384003,None,438.8180514384003,None,438.8180514384003,None,438.8180514384003,None,438.8180514384003,None,438.8180514384003,None,438.8180514384003,None,1,438.8180514384003,None,441.58580362582506,None,441.58580362582506,None,441.58580362582506,None,441.58580362582506,None,441.58580362582506,None,441.58580362582506,None,441.58580362582506,None,445.58731524003815,None,445.58731524003815,None,445.58731524003815,None,445.58731524003815,None,445.58731524003815,None,445.58731524003815,None,445.58731524003815,None,446.5710858663406,None,2.7346982659291825,,,,,,,,,,,,,,,,,,,,,,,,,,,,,,24235,2019_Nov_08_1613,Mmi_3levels,3.1.5,59.96626684453149,
,,,1,1,4.1,,,,,,,,,0,0,0,0,0,7,7,24,,,,,,,,,,,,,,,,,,,,,,,,,,,,,,,,,,,,,,,,,,,,,,,,,,,,,,,,,,,True,True,True,0.82,-0.18000000000000005,-1.0600000000000005,3.580000000000001,4.1,0.5199999999999987,0.25999999999999934,gamble,win,4.1,38.31166666666667,448.5885449465204,None,448.5885449465204,None,448.5885449465204,None,448.5885449465204,None,448.5885449465204,None,448.5885449465204,None,448.5885449465204,None,1,448.5885449465204,None,450.35589939125566,None,450.35589939125566,None,450.35589939125566,None,450.35589939125566,None,450.35589939125566,None,450.35589939125566,None,450.35589939125566,None,454.34079476861007,None,454.34079476861007,None,454.34079476861007,None,454.34079476861007,None,454.34079476861007,None,454.34079476861007,None,454.34079476861007,None,463.84446052907515,None,1.734245485637075,455.341186431564,None,456.3415240168724,None,0.85,7.502899073831941,459.3426871662523,None,None,459.3426871662523,None,,,,,,,,,,,,,,,,,,,24235,2019_Nov_08_1613,Mmi_3levels,3.1.5,59.96626684453149,
,,,1,1,9.1,,,,,,,,,0,0,0,0,0,8,8,22,,,,,,,,,,,,,,,,,,,,,,,,,,,,,,,,,,,,,,,,,,,,,,,,,,,,,,,,,,,True,False,True,0.85,-0.15000000000000002,-1.2100000000000004,-0.6258333333333335,9.1,8.474166666666665,4.237083333333333,gamble,lose,8.474166666666665,46.78583333333333,465.8620568832812,None,465.8620568832812,None,465.8620568832812,None,465.8620568832812,None,465.8620568832812,None,465.8620568832812,None,465.8620568832812,None,1,465.8620568832812,None,467.4792124246742,None,467.4792124246742,None,467.4792124246742,None,467.4792124246742,None,467.4792124246742,None,467.4792124246742,None,467.4792124246742,None,471.4808309142354,None,471.4808309142354,None,471.4808309142354,None,471.4808309142354,None,471.4808309142354,None,471.4808309142354,None,471.4808309142354,None,472.464550662753,None,1.584068981315795,,,,,,,,,,,,,,,,,,,,,,,,,,,,,,24235,2019_Nov_08_1613,Mmi_3levels,3.1.5,59.96626684453149,
,,,1,1,7.5,,,,,,,,,0,0,0,0,0,9,9,6,,,,,,,,,,,,,,,,,,,,,,,,,,,,,,,,,,,,,,,,,,,,,,,,,,,,,,,,,,,True,True,True,0.85,-0.15000000000000002,-1.3600000000000003,3.460000000000001,7.5,4.039999999999999,2.0199999999999996,gamble,win,7.5,54.28583333333333,474.4819508654982,None,474.4819508654982,None,474.4819508654982,None,474.4819508654982,None,474.4819508654982,None,474.4819508654982,None,474.4819508654982,None,1,474.4819508654982,None,475.79918729936617,None,475.79918729936617,None,475.79918729936617,None,475.79918729936617,None,475.79918729936617,None,475.79918729936617,None,475.79918729936617,None,479.7840231593109,None,479.7840231593109,None,479.7840231593109,None,479.7840231593109,None,479.7840231593109,None,479.7840231593109,None,479.7840231593109,None,489.2877439573822,None,1.2841425141195941,480.7844199420433,None,481.7848637627285,None,0.86,7.50278611874819,484.78604355138305,None,None,484.78604355138305,None,,,,,,,,,,,,,,,,,,,24235,2019_Nov_08_1613,Mmi_3levels,3.1.5,59.96626684453149,
,,,1,1,11.9,,,,,,,,,0,0,0,0,0,10,10,11,,,,,,,,,,,,,,,,,,,,,,,,,,,,,,,,,,,,,,,,,,,,,,,,,,,,,,,,,,,True,False,True,0.86,-0.14,-1.5000000000000004,-0.6150000000000001,11.9,11.285,5.6425,gamble,lose,11.285,65.57083333333333,491.3052270365188,None,491.3052270365188,None,491.3052270365188,None,491.3052270365188,None,491.3052270365188,None,491.3052270365188,None,491.3052270365188,None,1,491.3052270365188,None,492.43902729353067,None,492.43902729353067,None,492.43902729353067,None,492.43902729353067,None,492.43902729353067,None,492.43902729353067,None,492.43902729353067,None,496.42388907234636,None,496.42388907234636,None,496.42388907234636,None,496.42388907234636,None,496.42388907234636,None,496.42388907234636,None,496.42388907234636,None,497.4243216935174,None,1.1007159368418797,,,,,,,,,,,,,,,,,,,,,,,,,,,,,,24235,2019_Nov_08_1613,Mmi_3levels,3.1.5,59.96626684453149,
,,,1,1,10.7,,,,,,,,,0,0,0,0,0,11,11,13,,,,,,,,,,,,,,,,,,,,,,,,,,,,,,,,,,,,,,,,,,,,,,,,,,,,,,,,,,,True,True,False,0.86,-0.14,-1.6400000000000006,3.6000000000000005,10.7,7.099999999999999,3.5499999999999994,gamble,win,10.7,76.27083333333333,499.4417759739081,None,499.4417759739081,None,499.4417759739081,None,499.4417759739081,None,499.4417759739081,None,499.4417759739081,None,499.4417759739081,None,1,499.4417759739081,None,500.6255682952651,None,500.6255682952651,None,500.6255682952651,None,500.6255682952651,None,500.6255682952651,None,500.6255682952651,None,500.6255682952651,None,504.61045951280175,None,504.61045951280175,None,504.61045951280175,None,504.61045951280175,None,504.61045951280175,None,504.61045951280175,None,504.61045951280175,None,514.1141777509838,None,1.1507447995863913,505.61091005319395,None,506.6112428387096,None,0.92,7.502901633721194,509.61238294909344,None,None,509.61238294909344,None,,,,,,,,,,,,,,,,,,,24235,2019_Nov_08_1613,Mmi_3levels,3.1.5,59.96626684453149,
,,,1,1,0.1,,,,,,,,,0,0,0,0,0,12,12,26,,,,,,,,,,,,,,,,,,,,,,,,,,,,,,,,,,,,,,,,,,,,,,,,,,,,,,,,,,,True,True,False,0.92,-0.07999999999999996,-1.7200000000000006,2.84,0.1,-2.7399999999999998,-1.3199999999999998,gamble,win,0.1,76.37083333333332,516.1316227517746,None,516.1316227517746,None,516.1316227517746,None,516.1316227517746,None,516.1316227517746,None,516.1316227517746,None,516.1316227517746,None,1,516.1316227517746,None,518.1657691057262,None,518.1657691057262,None,518.1657691057262,None,518.1657691057262,None,518.1657691057262,None,518.1657691057262,None,518.1657691057262,None,522.1506017658103,None,522.1506017658103,None,522.1506017658103,None,522.1506017658103,None,522.1506017658103,None,522.1506017658103,None,522.1506017658103,None,523.1510606258416,None,2.001087952652597,,,,,,,,,,,,,,,,,,,,,,,,,,,,,,24235,2019_Nov_08_1613,Mmi_3levels,3.1.5,59.96626684453149,
,,,1,1,-1.1,,,,,,,,,0,0,0,0,0,13,13,5,,,,,,,,,,,,,,,,,,,,,,,,,,,,,,,,,,,,,,,,,,,,,,,,,,,,,,,,,,,True,True,False,0.92,-0.07999999999999996,-1.8000000000000007,2.92,-1.1,-4.02,-2.5599999999999996,gamble,win,-1.1,75.27083333333333,525.1685161861751,None,525.1685161861751,None,525.1685161861751,None,525.1685161861751,None,525.1685161861751,None,525.1685161861751,None,525.1685161861751,None,1,525.1685161861751,None,527.6361630341817,None,527.6361630341817,None,527.6361630341817,None,527.6361630341817,None,527.6361630341817,None,527.6361630341817,None,527.6361630341817,None,531.6376983273658,None,531.6376983273658,None,531.6376983273658,None,531.6376983273658,None,531.6376983273658,None,531.6376983273658,None,531.6376983273658,None,532.6213783976091,None,2.4345174098016287,,,,,,,,,,,,,,,,,,,,,,,,,,,,,,24235,2019_Nov_08_1613,Mmi_3levels,3.1.5,59.96626684453149,
,,,1,1,11.7,,,,,,,,,0,0,0,0,0,14,14,12,,,,,,,,,,,,,,,,,,,,,,,,,,,,,,,,,,,,,,,,,,,,,,,,,,,,,,,,,,,True,True,False,0.92,-0.07999999999999996,-1.8800000000000008,3.0,11.7,8.7,4.35,gamble,win,11.7,86.97083333333333,534.6389187542554,None,534.6389187542554,None,534.6389187542554,None,534.6389187542554,None,534.6389187542554,None,534.6389187542554,None,534.6389187542554,None,1,534.6389187542554,None,535.8560171461322,None,535.8560171461322,None,535.8560171461322,None,535.8560171461322,None,535.8560171461322,None,535.8560171461322,None,535.8560171461322,None,539.840909323626,None,539.840909323626,None,539.840909323626,None,539.840909323626,None,539.840909323626,None,539.840909323626,None,539.840909323626,None,549.3446029228799,None,1.1840310309671622,540.8412488288486,None,541.8416468915239,None,0.94,7.50280627786924,544.8427994813646,None,None,544.8427994813646,None,,,,,,,,,,,,,,,,,,,24235,2019_Nov_08_1613,Mmi_3levels,3.1.5,59.96626684453149,
,,,1,1,2.3,,,,,,,,,0,0,0,0,0,15,15,21,,,,,,,,,,,,,,,,,,,,,,,,,,,,,,,,,,,,,,,,,,,,,,,,,,,,,,,,,,,True,True,True,0.94,-0.06000000000000005,-1.9400000000000008,2.7800000000000016,2.3,-0.48000000000000176,0.909999999999999,gamble,win,2.3,89.27083333333333,551.3620495236028,None,551.3620495236028,None,551.3620495236028,None,551.3620495236028,None,551.3620495236028,None,551.3620495236028,None,551.3620495236028,None,1,551.3620495236028,None,553.6129653237476,None,553.6129653237476,None,553.6129653237476,None,553.6129653237476,None,553.6129653237476,None,553.6129653237476,None,553.6129653237476,None,557.6145530946487,None,557.6145530946487,None,557.6145530946487,None,557.6145530946487,None,557.6145530946487,None,557.6145530946487,None,557.6145530946487,None,558.5982533240131,None,2.2178286000962544,,,,,,,,,,,,,,,,,,,,,,,,,,,,,,24235,2019_Nov_08_1613,Mmi_3levels,3.1.5,59.96626684453149,
,,,1,1,4.9,,,,,,,,,0,0,0,0,0,16,16,20,,,,,,,,,,,,,,,,,,,,,,,,,,,,,,,,,,,,,,,,,,,,,,,,,,,,,,,,,,,True,False,True,0.94,-0.06000000000000005,-2.000000000000001,-0.3766666666666669,4.9,4.523333333333333,2.2616666666666667,gamble,lose,4.523333333333333,93.79416666666665,560.6156557666582,None,560.6156557666582,None,560.6156557666582,None,560.6156557666582,None,560.6156557666582,None,560.6156557666582,None,560.6156557666582,None,1,560.6156557666582,None,561.5994126335609,None,561.5994126335609,None,561.5994126335609,None,561.5994126335609,None,561.5994126335609,None,561.5994126335609,None,561.5994126335609,None,565.5842641728232,None,565.5842641728232,None,565.5842641728232,None,565.5842641728232,None,565.5842641728232,None,565.5842641728232,None,565.5842641728232,None,575.0879811310588,None,0.9506741466611857,566.5846823946194,None,567.5850462187882,None,0.83,7.502877634768083,570.5862170478322,None,None,570.5862170478322,None,,,,,,,,,,,,,,,,,,,24235,2019_Nov_08_1613,Mmi_3levels,3.1.5,59.96626684453149,
,,,1,1,-0.3,,,,,,,,,0,0,0,0,0,17,17,0,,,,,,,,,,,,,,,,,,,,,,,,,,,,,,,,,,,,,,,,,,,,,,,,,,,,,,,,,,,True,True,False,0.83,-0.17000000000000004,-2.170000000000001,4.550000000000002,-0.3,-4.850000000000001,-2.5750000000000006,certain,certain,-2.5750000000000006,91.21916666666665,577.1054437310886,None,577.1054437310886,None,577.1054437310886,None,577.1054437310886,None,577.1054437310886,None,577.1054437310886,None,577.1054437310886,None,3,577.1054437310886,None,579.95660316863,None,579.95660316863,None,579.95660316863,None,579.95660316863,None,579.95660316863,None,579.95660316863,None,579.95660316863,None,583.9581736602813,None,583.9581736602813,None,583.9581736602813,None,583.9581736602813,None,583.9581736602813,None,583.9581736602813,None,583.9581736602813,None,584.941880289367,None,2.8180200797651196,,,,,,,,,,,,,,,,,,,,,,,,,,,,,,24235,2019_Nov_08_1613,Mmi_3levels,3.1.5,59.96626684453149,
,,,1,1,3.1,,,,,,,,,0,0,0,0,0,18,18,9,,,,,,,,,,,,,,,,,,,,,,,,,,,,,,,,,,,,,,,,,,,,,,,,,,,,,,,,,,,True,True,True,0.83,-0.17000000000000004,-2.3400000000000007,4.7200000000000015,3.1,-1.6200000000000014,0.7399999999999993,gamble,win,3.1,94.31916666666665,586.9592964914154,None,586.9592964914154,None,586.9592964914154,None,586.9592964914154,None,586.9592964914154,None,586.9592964914154,None,586.9592964914154,None,1,586.9592964914154,None,588.5099493270027,None,588.5099493270027,None,588.5099493270027,None,588.5099493270027,None,588.5099493270027,None,588.5099493270027,None,588.5099493270027,None,592.4948389446072,None,592.4948389446072,None,592.4948389446072,None,592.4948389446072,None,592.4948389446072,None,592.4948389446072,None,592.4948389446072,None,593.4951774898727,None,1.517560195781698,,,,,,,,,,,,,,,,,,,,,,,,,,,,,,24235,2019_Nov_08_1613,Mmi_3levels,3.1.5,59.96626684453149,
,,,1,1,2.1,,,,,,,,,0,0,0,0,0,19,19,15,,,,,,,,,,,,,,,,,,,,,,,,,,,,,,,,,,,,,,,,,,,,,,,,,,,,,,,,,,,True,True,True,0.83,-0.17000000000000004,-2.5100000000000007,4.8900000000000015,2.1,-2.7900000000000014,-0.34500000000000064,gamble,win,2.1,96.41916666666664,595.5126916076588,None,595.5126916076588,None,595.5126916076588,None,595.5126916076588,None,595.5126916076588,None,595.5126916076588,None,595.5126916076588,None,1,595.5126916076588,None,597.3300649955709,None,597.3300649955709,None,597.3300649955709,None,597.3300649955709,None,597.3300649955709,None,597.3300649955709,None,597.3300649955709,None,601.3315938890337,None,601.3315938890337,None,601.3315938890337,None,601.3315938890337,None,601.3315938890337,None,601.3315938890337,None,601.3315938890337,None,610.8186472524685,None,1.7842849079206644,602.3153517158898,None,603.3156912211161,None,0.84,7.5030443475079664,606.3168303715393,None,None,606.3168303715393,None,,,,,,,,,,,,,,,,,,,24235,2019_Nov_08_1613,Mmi_3levels,3.1.5,59.96626684453149,
,,,1,1,8.3,,,,,,,,,0,0,0,0,0,20,20,2,,,,,,,,,,,,,,,,,,,,,,,,,,,,,,,,,,,,,,,,,,,,,,,,,,,,,,,,,,,True,True,True,0.84,-0.16000000000000003,-2.670000000000001,4.910000000000001,8.3,3.3899999999999997,1.6949999999999998,gamble,win,8.3,104.71916666666664,612.8360845735988,None,612.8360845735988,None,612.8360845735988,None,612.8360845735988,None,612.8360845735988,None,612.8360845735988,None,612.8360845735988,None,1,612.8360845735988,None,614.2200057853479,None,614.2200057853479,None,614.2200057853479,None,614.2200057853479,None,614.2200057853479,None,614.2200057853479,None,614.2200057853479,None,618.2048672441742,None,618.2048672441742,None,618.2048672441742,None,618.2048672441742,None,618.2048672441742,None,618.2048672441742,None,618.2048672441742,None,619.2052944255847,None,1.350863130435755,,,,,,,,,,,,,,,,,,,,,,,,,,,,,,24235,2019_Nov_08_1613,Mmi_3levels,3.1.5,59.96626684453149,
,,,1,1,4.7,,,,,,,,,0,0,0,0,0,21,21,18,,,,,,,,,,,,,,,,,,,,,,,,,,,,,,,,,,,,,,,,,,,,,,,,,,,,,,,,,,,True,True,False,0.84,-0.16000000000000003,-2.830000000000001,5.070000000000001,4.7,-0.370000000000001,-0.1850000000000005,gamble,win,4.7,109.41916666666664,621.222751905836,None,621.222751905836,None,621.222751905836,None,621.222751905836,None,621.222751905836,None,621.222751905836,None,621.222751905836,None,1,621.222751905836,None,622.689990451614,None,622.689990451614,None,622.689990451614,None,622.689990451614,None,622.689990451614,None,622.689990451614,None,622.689990451614,None,626.69150110587,None,626.69150110587,None,626.69150110587,None,626.69150110587,None,626.69150110587,None,626.69150110587,None,626.69150110587,None,636.1786053470933,None,1.4341887841037533,627.6752650124654,None,628.6756707548084,None,0.84,7.502796038315864,631.6768140650493,None,None,631.6768140650493,None,,,,,,,,,,,,,,,,,,,24235,2019_Nov_08_1613,Mmi_3levels,3.1.5,59.96626684453149,
,,,1,1,5.1,,,,,,,,,0,0,0,0,0,22,22,25,,,,,,,,,,,,,,,,,,,,,,,,,,,,,,,,,,,,,,,,,,,,,,,,,,,,,,,,,,,True,True,True,0.84,-0.16000000000000003,-2.990000000000001,5.230000000000001,5.1,-0.13000000000000167,-0.06500000000000083,gamble,win,5.1,114.51916666666664,638.1960637873017,None,638.1960637873017,None,638.1960637873017,None,638.1960637873017,None,638.1960637873017,None,638.1960637873017,None,638.1960637873017,None,1,638.1960637873017,None,639.4298708920178,None,639.4298708920178,None,639.4298708920178,None,639.4298708920178,None,639.4298708920178,None,639.4298708920178,None,639.4298708920178,None,643.4313844261487,None,643.4313844261487,None,643.4313844261487,None,643.4313844261487,None,643.4313844261487,None,643.4313844261487,None,643.4313844261487,None,644.415156332394,None,1.2007135049498174,,,,,,,,,,,,,,,,,,,,,,,,,,,,,,24235,2019_Nov_08_1613,Mmi_3levels,3.1.5,59.96626684453149,
,,,1,1,2.5,,,,,,,,,0,0,0,0,0,23,23,1,,,,,,,,,,,,,,,,,,,,,,,,,,,,,,,,,,,,,,,,,,,,,,,,,,,,,,,,,,,True,True,False,0.84,-0.16000000000000003,-3.1500000000000012,5.3900000000000015,2.5,-2.8900000000000015,-0.19500000000000073,gamble,win,2.5,117.01916666666664,646.4325670946782,None,646.4325670946782,None,646.4325670946782,None,646.4325670946782,None,646.4325670946782,None,646.4325670946782,None,646.4325670946782,None,1,646.4325670946782,None,648.3000247029231,None,648.3000247029231,None,648.3000247029231,None,648.3000247029231,None,648.3000247029231,None,648.3000247029231,None,648.3000247029231,None,652.3015763153962,None,652.3015763153962,None,652.3015763153962,None,652.3015763153962,None,652.3015763153962,None,652.3015763153962,None,652.3015763153962,None,661.7886171993778,None,1.8343342497719277,653.2852631053465,None,654.2856784472715,None,0.87,7.502841796325811,657.2868499162905,None,None,657.2868499162905,None,,,,,,,,,,,,,,,,,,,24235,2019_Nov_08_1613,Mmi_3levels,3.1.5,59.96626684453149,
,,,1,1,2.9,,,,,,,,,0,0,0,0,0,24,24,16,,,,,,,,,,,,,,,,,,,,,,,,,,,,,,,,,,,,,,,,,,,,,,,,,,,,,,,,,,,True,True,True,0.87,-0.13,-3.280000000000001,5.100000000000001,2.9,-2.2000000000000015,0.3499999999999992,gamble,win,2.9,119.91916666666664,663.806021241955,None,663.806021241955,None,663.806021241955,None,663.806021241955,None,663.806021241955,None,663.806021241955,None,663.806021241955,None,1,663.806021241955,None,665.0565610584599,None,665.0565610584599,None,665.0565610584599,None,665.0565610584599,None,665.0565610584599,None,665.0565610584599,None,665.0565610584599,None,669.0581363499041,None,669.0581363499041,None,669.0581363499041,None,669.0581363499041,None,669.0581363499041,None,669.0581363499041,None,669.0581363499041,None,670.0418612181966,None,1.2172782240522793,,,,,,,,,,,,,,,,,,,,,,,,,,,,,,24235,2019_Nov_08_1613,Mmi_3levels,3.1.5,59.96626684453149,
,,,1,1,8.1,,,,,,,,,0,0,0,0,0,25,25,7,,,,,,,,,,,,,,,,,,,,,,,,,,,,,,,,,,,,,,,,,,,,,,,,,,,,,,,,,,,True,False,True,0.87,-0.13,-3.410000000000001,-0.7391666666666667,8.1,7.360833333333333,3.6804166666666664,gamble,lose,7.360833333333333,127.27999999999997,672.059306218991,None,672.059306218991,None,672.059306218991,None,672.059306218991,None,672.059306218991,None,672.059306218991,None,672.059306218991,None,1,672.059306218991,None,673.0930420308105,None,673.0930420308105,None,673.0930420308105,None,673.0930420308105,None,673.0930420308105,None,673.0930420308105,None,673.0930420308105,None,677.0778743709052,None,677.0778743709052,None,677.0778743709052,None,677.0778743709052,None,677.0778743709052,None,677.0778743709052,None,677.0778743709052,None,678.0783236313546,None,1.0006447719388234,,,,,,,,,,,,,,,,,,,,,,,,,,,,,,24235,2019_Nov_08_1613,Mmi_3levels,3.1.5,59.96626684453149,
,,,1,1,5.7,,,,,,,,,0,0,0,0,0,26,26,17,,,,,,,,,,,,,,,,,,,,,,,,,,,,,,,,,,,,,,,,,,,,,,,,,,,,,,,,,,,True,True,False,0.87,-0.13,-3.540000000000001,5.360000000000001,5.7,0.33999999999999897,0.16999999999999948,gamble,win,5.7,132.97999999999996,680.0957766317988,None,680.0957766317988,None,680.0957766317988,None,680.0957766317988,None,680.0957766317988,None,680.0957766317988,None,680.0957766317988,None,1,680.0957766317988,None,681.5630234972159,None,681.5630234972159,None,681.5630234972159,None,681.5630234972159,None,681.5630234972159,None,681.5630234972159,None,681.5630234972159,None,685.547899355417,None,685.547899355417,None,685.547899355417,None,685.547899355417,None,685.547899355417,None,685.547899355417,None,685.547899355417,None,695.0515788752855,None,1.434300459244696,686.5482558199037,None,687.5486906809783,None,0.83,7.502856515682652,690.5497882332129,None,None,690.5497882332129,None,,,,,,,,,,,,,,,,,,,24235,2019_Nov_08_1613,Mmi_3levels,3.1.5,59.96626684453149,
,,,2,0,12.1,,,,,,,,,0,1,1,1,0,0,0,24,,,,,,,,,,,,,,,,,,,,,,,,,,,,,,,,,,,,,,,,,,,,,,,,701.1540182571225,None,0.86,7.501836720064603,704.1718475611924,None,None,704.1718475611924,None,708.6569269305401,None,False,False,False,0.86,0.86,0.86,3.0816666666666666,3.025,-0.05666666666666664,1.4841666666666666,gamble,win,3.025,136.00499999999997,711.6914726271098,None,711.6914726271098,None,711.6914726271098,None,711.6914726271098,None,711.6914726271098,None,711.6914726271098,None,711.6914726271098,None,1,711.6914726271098,None,713.6922220344968,None,713.6922220344968,None,713.6922220344968,None,713.6922220344968,None,713.6922220344968,None,713.6922220344968,None,713.6922220344968,None,717.677088293116,None,717.677088293116,None,717.677088293116,None,717.677088293116,None,717.677088293116,None,717.677088293116,None,717.677088293116,None,718.6775455532152,None,1.9676618873563712,,,,,,,,,,,,697.0524021994534,None,4,4.085155654025584,697.0524021994534,None,,,,,,,,,,,,,24235,2019_Nov_08_1613,Mmi_3levels,3.1.5,59.96626684453149,
,,,2,0,3.9,,,,,,,,,0,1,1,1,0,1,1,2,,,,,,,,,,,,,,,,,,,,,,,,,,,,,,,,,,,,,,,,,,,,,,,,,,,,,,,,,,,False,False,True,0.86,0.86,1.72,3.1533333333333333,0.975,-2.1783333333333332,-0.6016666666666666,gamble,win,0.975,136.97999999999996,720.6949403161962,None,720.6949403161962,None,720.6949403161962,None,720.6949403161962,None,720.6949403161962,None,720.6949403161962,None,720.6949403161962,None,1,720.6949403161962,None,722.3122923290357,None,722.3122923290357,None,722.3122923290357,None,722.3122923290357,None,722.3122923290357,None,722.3122923290357,None,722.3122923290357,None,726.3138231424164,None,726.3138231424164,None,726.3138231424164,None,726.3138231424164,None,726.3138231424164,None,726.3138231424164,None,726.3138231424164,None,735.8008985848901,None,1.5842628928767226,727.2975716896799,None,728.2979633526338,None,0.87,7.502594447090814,731.2991309818171,None,None,731.2991309818171,None,,,,,,,,,,,,,,,,,,,24235,2019_Nov_08_1613,Mmi_3levels,3.1.5,59.96626684453149,
,,,2,0,4.7,,,,,,,,,0,1,1,1,0,2,2,5,,,,,,,,,,,,,,,,,,,,,,,,,,,,,,,,,,,,,,,,,,,,,,,,,,,,,,,,,,,False,False,True,0.87,0.87,2.59,3.2608333333333333,1.175,-2.0858333333333334,-0.4554166666666667,gamble,win,1.175,138.15499999999997,737.8183647047663,None,737.8183647047663,None,737.8183647047663,None,737.8183647047663,None,737.8183647047663,None,737.8183647047663,None,737.8183647047663,None,1,737.8183647047663,None,739.4356610400282,None,739.4356610400282,None,739.4356610400282,None,739.4356610400282,None,739.4356610400282,None,739.4356610400282,None,739.4356610400282,None,743.4372203321691,None,743.4372203321691,None,743.4372203321691,None,743.4372203321691,None,743.4372203321691,None,743.4372203321691,None,743.4372203321691,None,744.4208882429411,None,1.5840280230986536,,,,,,,,,,,,,,,,,,,,,,,,,,,,,,24235,2019_Nov_08_1613,Mmi_3levels,3.1.5,59.96626684453149,
,,,2,0,7.3,,,,,,,,,0,1,1,1,0,3,3,6,,,,,,,,,,,,,,,,,,,,,,,,,,,,,,,,,,,,,,,,,,,,,,,,,,,,,,,,,,,False,True,False,0.87,0.87,3.46,-15.64,7.3,-8.34,-0.52,gamble,lose,-8.34,129.81499999999997,746.4383745219384,None,746.4383745219384,None,746.4383745219384,None,746.4383745219384,None,746.4383745219384,None,746.4383745219384,None,746.4383745219384,None,1,746.4383745219384,None,747.8556306029532,None,747.8556306029532,None,747.8556306029532,None,747.8556306029532,None,747.8556306029532,None,747.8556306029532,None,747.8556306029532,None,751.8571278177951,None,751.8571278177951,None,751.8571278177951,None,751.8571278177951,None,751.8571278177951,None,751.8571278177951,None,751.8571278177951,None,761.3441879009406,None,1.38415800144503,752.840899724044,None,753.8412965067728,None,0.46,7.502788038662402,756.8424250976568,None,None,756.8424250976568,None,,,,,,,,,,,,,,,,,,,24235,2019_Nov_08_1613,Mmi_3levels,3.1.5,59.96626684453149,
,,,2,0,9.7,,,,,,,,,0,1,1,1,0,4,4,15,,,,,,,,,,,,,,,,,,,,,,,,,,,,,,,,,,,,,,,,,,,,,,,,,,,,,,,,,,,False,False,True,0.46,0.46,3.92,1.9366666666666668,2.425,0.48833333333333306,1.4566666666666666,gamble,win,2.425,132.23999999999998,763.3616860194234,None,763.3616860194234,None,763.3616860194234,None,763.3616860194234,None,763.3616860194234,None,763.3616860194234,None,763.3616860194234,None,1,763.3616860194234,None,764.8122209721405,None,764.8122209721405,None,764.8122209721405,None,764.8122209721405,None,764.8122209721405,None,764.8122209721405,None,764.8122209721405,None,768.7971320288125,None,768.7971320288125,None,768.7971320288125,None,768.7971320288125,None,768.7971320288125,None,768.7971320288125,None,768.7971320288125,None,769.7975051325739,None,1.4174426328972913,,,,,,,,,,,,,,,,,,,,,,,,,,,,,,24235,2019_Nov_08_1613,Mmi_3levels,3.1.5,59.96626684453149,
,,,2,0,13.5,,,,,,,,,0,1,1,1,0,5,5,4,,,,,,,,,,,,,,,,,,,,,,,,,,,,,,,,,,,,,,,,,,,,,,,,,,,,,,,,,,,False,True,False,0.46,0.46,4.38,-10.82,13.5,2.6799999999999997,1.3399999999999999,gamble,lose,2.6799999999999997,134.92,771.8149552531468,None,771.8149552531468,None,771.8149552531468,None,771.8149552531468,None,771.8149552531468,None,771.8149552531468,None,771.8149552531468,None,1,771.8149552531468,None,773.1488120836948,None,773.1488120836948,None,773.1488120836948,None,773.1488120836948,None,773.1488120836948,None,773.1488120836948,None,773.1488120836948,None,777.1504625718662,None,777.1504625718662,None,777.1504625718662,None,777.1504625718662,None,777.1504625718662,None,777.1504625718662,None,777.1504625718662,None,778.1341304826383,None,1.3007558711033198,,,,,,,,,,,,,,,,,,,,,,,,,,,,,,24235,2019_Nov_08_1613,Mmi_3levels,3.1.5,59.96626684453149,
,,,2,0,0.9,,,,,,,,,0,1,1,1,0,6,6,18,,,,,,,,,,,,,,,,,,,,,,,,,,,,,,,,,,,,,,,,,,,,,,,,,,,,,,,,,,,False,True,True,0.46,0.46,4.84,-11.280000000000001,0.9,-10.38,-4.74,gamble,lose,-10.38,124.53999999999999,780.151555964283,None,780.151555964283,None,780.151555964283,None,780.151555964283,None,780.151555964283,None,780.151555964283,None,780.151555964283,None,None,780.151555964283,None,783.1527591119229,None,783.1527591119229,None,783.1527591119229,None,783.1527591119229,None,783.1527591119229,None,783.1527591119229,None,783.1527591119229,None,787.1542675262754,None,787.1542675262754,None,787.1542675262754,None,787.1542675262754,None,787.1542675262754,None,787.1542675262754,None,787.1542675262754,None,796.641365687763,None,,788.1380173534817,None,789.1384067765357,None,0.44,7.502892674110626,792.1395433670696,None,None,792.1395433670696,None,,,,,,,,,,,,,,,,,,,24235,2019_Nov_08_1613,Mmi_3levels,3.1.5,59.96626684453149,
,,,2,0,1.9,,,,,,,,,0,1,1,1,0,7,7,25,,,,,,,,,,,,,,,,,,,,,,,,,,,,,,,,,,,,,,,,,,,,,,,,,,,,,,,,,,,False,True,True,0.44,0.44,5.28,-11.440000000000001,1.9,-9.540000000000001,-3.8200000000000003,certain,certain,-3.8200000000000003,120.72,798.6588324476106,None,798.6588324476106,None,798.6588324476106,None,798.6588324476106,None,798.6588324476106,None,798.6588324476106,None,798.6588324476106,None,3,798.6588324476106,None,800.6262652249352,None,800.6262652249352,None,800.6262652249352,None,800.6262652249352,None,800.6262652249352,None,800.6262652249352,None,800.6262652249352,None,804.6278267569796,None,804.6278267569796,None,804.6278267569796,None,804.6278267569796,None,804.6278267569796,None,804.6278267569796,None,804.6278267569796,None,805.6115989832106,None,1.9343938951788004,,,,,,,,,,,,,,,,,,,,,,,,,,,,,,24235,2019_Nov_08_1613,Mmi_3levels,3.1.5,59.96626684453149,
,,,2,0,6.1,,,,,,,,,0,1,1,1,0,8,8,19,,,,,,,,,,,,,,,,,,,,,,,,,,,,,,,,,,,,,,,,,,,,,,,,,,,,,,,,,,,False,True,True,0.44,0.44,5.720000000000001,-11.88,6.1,-5.780000000000001,0.15999999999999925,gamble,lose,-5.780000000000001,114.94,807.628998225995,None,807.628998225995,None,807.628998225995,None,807.628998225995,None,807.628998225995,None,807.628998225995,None,807.628998225995,None,1,807.628998225995,None,808.8128551845402,None,808.8128551845402,None,808.8128551845402,None,808.8128551845402,None,808.8128551845402,None,808.8128551845402,None,808.8128551845402,None,812.797691044485,None,812.797691044485,None,812.797691044485,None,812.797691044485,None,812.797691044485,None,812.797691044485,None,812.797691044485,None,822.3014598404661,None,1.150688482037367,813.7980279898184,None,814.7984682906572,None,0.39,7.502898113874835,817.7996186405944,None,None,817.7996186405944,None,,,,,,,,,,,,,,,,,,,24235,2019_Nov_08_1613,Mmi_3levels,3.1.5,59.96626684453149,
,,,2,0,11.9,,,,,,,,,0,1,1,1,0,9,9,0,,,,,,,,,,,,,,,,,,,,,,,,,,,,,,,,,,,,,,,,,,,,,,,,,,,,,,,,,,,False,False,True,0.39,0.39,6.11,1.8741666666666665,2.975,1.1008333333333336,0.5504166666666668,gamble,win,2.975,117.91499999999999,824.3189000414677,None,824.3189000414677,None,824.3189000414677,None,824.3189000414677,None,824.3189000414677,None,824.3189000414677,None,824.3189000414677,None,1,824.3189000414677,None,825.6693907081135,None,825.6693907081135,None,825.6693907081135,None,825.6693907081135,None,825.6693907081135,None,825.6693907081135,None,825.6693907081135,None,829.6542780858144,None,829.6542780858144,None,829.6542780858144,None,829.6542780858144,None,829.6542780858144,None,829.6542780858144,None,829.6542780858144,None,830.6546585492579,None,1.3173932270474324,,,,,,,,,,,,,,,,,,,,,,,,,,,,,,24235,2019_Nov_08_1613,Mmi_3levels,3.1.5,59.96626684453149,
,,,2,0,12.3,,,,,,,,,0,1,1,1,0,10,10,9,,,,,,,,,,,,,,,,,,,,,,,,,,,,,,,,,,,,,,,,,,,,,,,,,,,,,,,,,,,False,True,False,0.39,0.39,6.5,-11.96,12.3,0.33999999999999986,0.16999999999999993,gamble,lose,0.33999999999999986,118.255,832.6721313888411,None,832.6721313888411,None,832.6721313888411,None,832.6721313888411,None,832.6721313888411,None,832.6721313888411,None,832.6721313888411,None,1,832.6721313888411,None,834.0226006164194,None,834.0226006164194,None,834.0226006164194,None,834.0226006164194,None,834.0226006164194,None,834.0226006164194,None,834.0226006164194,None,838.0242235857877,None,838.0242235857877,None,838.0242235857877,None,838.0242235857877,None,838.0242235857877,None,838.0242235857877,None,838.0242235857877,None,839.0079138955844,None,1.317409866322123,,,,,,,,,,,,,,,,,,,,,,,,,,,,,,24235,2019_Nov_08_1613,Mmi_3levels,3.1.5,59.96626684453149,
,,,2,0,6.7,,,,,,,,,0,1,1,1,0,11,11,22,,,,,,,,,,,,,,,,,,,,,,,,,,,,,,,,,,,,,,,,,,,,,,,,,,,,,,,,,,,False,True,False,0.39,0.39,6.89,-12.35,6.7,-5.6499999999999995,0.5250000000000004,certain,certain,0.5250000000000004,118.78,841.0254020944994,None,841.0254020944994,None,841.0254020944994,None,841.0254020944994,None,841.0254020944994,None,841.0254020944994,None,841.0254020944994,None,3,841.0254020944994,None,843.4429944808799,None,843.4429944808799,None,843.4429944808799,None,843.4429944808799,None,843.4429944808799,None,843.4429944808799,None,843.4429944808799,None,847.4278441002243,None,847.4278441002243,None,847.4278441002243,None,847.4278441002243,None,847.4278441002243,None,847.4278441002243,None,847.4278441002243,None,856.9315693780991,None,2.384329833967058,848.4282840810738,None,849.4286863035704,None,0.58,7.502858115614799,852.4298152144402,None,None,852.4298152144402,None,,,,,,,,,,,,,,,,,,,24235,2019_Nov_08_1613,Mmi_3levels,3.1.5,59.96626684453149,
,,,2,0,1.5,,,,,,,,,0,1,1,1,0,12,12,26,,,,,,,,,,,,,,,,,,,,,,,,,,,,,,,,,,,,,,,,,,,,,,,,,,,,,,,,,,,False,False,True,0.58,0.58,7.47,2.6525,0.375,-2.2775,-0.9512499999999999,gamble,win,0.375,119.155,858.9490729363424,None,858.9490729363424,None,858.9490729363424,None,858.9490729363424,None,858.9490729363424,None,858.9490729363424,None,858.9490729363424,None,1,858.9490729363424,None,861.0832610164798,None,861.0832610164798,None,861.0832610164798,None,861.0832610164798,None,861.0832610164798,None,861.0832610164798,None,861.0832610164798,None,865.0848113490101,None,865.0848113490101,None,865.0848113490101,None,865.0848113490101,None,865.0848113490101,None,865.0848113490101,None,865.0848113490101,None,866.0684741400037,None,2.1010810409497935,,,,,,,,,,,,,,,,,,,,,,,,,,,,,,24235,2019_Nov_08_1613,Mmi_3levels,3.1.5,59.96626684453149,
,,,2,0,2.7,,,,,,,,,0,1,1,1,0,13,13,13,,,,,,,,,,,,,,,,,,,,,,,,,,,,,,,,,,,,,,,,,,,,,,,,,,,,,,,,,,,False,True,False,0.58,0.58,8.049999999999999,-16.169999999999998,2.7,-13.469999999999999,-5.385,gamble,lose,-13.469999999999999,105.685,868.0859853779148,None,868.0859853779148,None,868.0859853779148,None,868.0859853779148,None,868.0859853779148,None,868.0859853779148,None,868.0859853779148,None,None,868.0859853779148,None,871.0871037292454,None,871.0871037292454,None,871.0871037292454,None,871.0871037292454,None,871.0871037292454,None,871.0871037292454,None,871.0871037292454,None,875.0887170990318,None,875.0887170990318,None,875.0887170990318,None,875.0887170990318,None,875.0887170990318,None,875.0887170990318,None,875.0887170990318,None,884.5757330240958,None,,876.0724368475458,None,877.072828190514,None,0.46,7.502940992006188,880.0739938997831,None,None,880.0739938997831,None,,,,,,,,,,,,,,,,,,,24235,2019_Nov_08_1613,Mmi_3levels,3.1.5,59.96626684453149,
,,,2,0,13.1,,,,,,,,,0,1,1,1,0,14,14,16,,,,,,,,,,,,,,,,,,,,,,,,,,,,,,,,,,,,,,,,,,,,,,,,,,,,,,,,,,,False,True,True,0.46,0.46,8.51,-14.95,13.1,-1.8499999999999996,-0.9249999999999998,gamble,lose,-1.8499999999999996,103.83500000000001,886.5932212230109,None,886.5932212230109,None,886.5932212230109,None,886.5932212230109,None,886.5932212230109,None,886.5932212230109,None,886.5932212230109,None,1,886.5932212230109,None,888.4939669825544,None,888.4939669825544,None,888.4939669825544,None,888.4939669825544,None,888.4939669825544,None,888.4939669825544,None,888.4939669825544,None,892.4955342743451,None,892.4955342743451,None,892.4955342743451,None,892.4955342743451,None,892.4955342743451,None,892.4955342743451,None,892.4955342743451,None,893.4792479431271,None,1.8674636879804893,,,,,,,,,,,,,,,,,,,,,,,,,,,,,,24235,2019_Nov_08_1613,Mmi_3levels,3.1.5,59.96626684453149,
,,,2,0,4.5,,,,,,,,,0,1,1,1,0,15,15,8,,,,,,,,,,,,,,,,,,,,,,,,,,,,,,,,,,,,,,,,,,,,,,,,,,,,,,,,,,,False,True,False,0.46,0.46,8.97,-15.41,4.5,-10.91,-3.205,certain,certain,-3.205,100.63000000000001,895.4967140630033,None,895.4967140630033,None,895.4967140630033,None,895.4967140630033,None,895.4967140630033,None,895.4967140630033,None,895.4967140630033,None,3,895.4967140630033,None,897.8975945366838,None,897.8975945366838,None,897.8975945366838,None,897.8975945366838,None,897.8975945366838,None,897.8975945366838,None,897.8975945366838,None,901.8992082264558,None,901.8992082264558,None,901.8992082264558,None,901.8992082264558,None,901.8992082264558,None,901.8992082264558,None,901.8992082264558,None,911.386255190173,None,2.367771514585911,902.8828790171028,None,903.8832937190564,None,0.56,7.5029240327494335,906.8844776675287,None,None,906.8844776675287,None,,,,,,,,,,,,,,,,,,,24235,2019_Nov_08_1613,Mmi_3levels,3.1.5,59.96626684453149,
,,,2,0,7.5,,,,,,,,,0,1,1,1,0,16,16,23,,,,,,,,,,,,,,,,,,,,,,,,,,,,,,,,,,,,,,,,,,,,,,,,,,,,,,,,,,,False,True,False,0.56,0.56,9.530000000000001,-17.37,7.5,-9.870000000000001,-1.1850000000000005,certain,certain,-1.1850000000000005,99.44500000000001,913.4037059507136,None,913.4037059507136,None,913.4037059507136,None,913.4037059507136,None,913.4037059507136,None,913.4037059507136,None,913.4037059507136,None,3,913.4037059507136,None,915.7045843764863,None,915.7045843764863,None,915.7045843764863,None,915.7045843764863,None,915.7045843764863,None,915.7045843764863,None,915.7045843764863,None,919.706119029699,None,919.706119029699,None,919.706119029699,None,919.706119029699,None,919.706119029699,None,919.706119029699,None,919.706119029699,None,920.6898909359443,None,2.2678270641663403,,,,,,,,,,,,,,,,,,,,,,,,,,,,,,24235,2019_Nov_08_1613,Mmi_3levels,3.1.5,59.96626684453149,
,,,2,0,3.3,,,,,,,,,0,1,1,1,0,17,17,21,,,,,,,,,,,,,,,,,,,,,,,,,,,,,,,,,,,,,,,,,,,,,,,,,,,,,,,,,,,False,True,False,0.56,0.56,10.090000000000002,-17.930000000000003,3.3,-14.630000000000003,-5.665000000000001,certain,certain,-5.665000000000001,93.78,922.7073576957919,None,922.7073576957919,None,922.7073576957919,None,922.7073576957919,None,922.7073576957919,None,922.7073576957919,None,922.7073576957919,None,3,922.7073576957919,None,925.1416200766944,None,925.1416200766944,None,925.1416200766944,None,925.1416200766944,None,925.1416200766944,None,925.1416200766944,None,925.1416200766944,None,929.1431726491246,None,929.1431726491246,None,929.1431726491246,None,929.1431726491246,None,929.1431726491246,None,929.1431726491246,None,929.1431726491246,None,930.126916716581,None,2.4011662212469673,,,,,,,,,,,,,,,,,,,,,,,,,,,,,,24235,2019_Nov_08_1613,Mmi_3levels,3.1.5,59.96626684453149,
,,,2,0,10.9,,,,,,,,,0,1,1,1,0,18,18,1,,,,,,,,,,,,,,,,,,,,,,,,,,,,,,,,,,,,,,,,,,,,,,,,,,,,,,,,,,,False,False,True,0.56,0.56,10.650000000000002,2.8475,2.725,-0.12250000000000005,1.30125,gamble,win,2.725,96.505,932.1443767567216,None,932.1443767567216,None,932.1443767567216,None,932.1443767567216,None,932.1443767567216,None,932.1443767567216,None,932.1443767567216,None,1,932.1443767567216,None,933.6615830479022,None,933.6615830479022,None,933.6615830479022,None,933.6615830479022,None,933.6615830479022,None,933.6615830479022,None,933.6615830479022,None,937.6465107438489,None,937.6465107438489,None,937.6465107438489,None,937.6465107438489,None,937.6465107438489,None,937.6465107438489,None,937.6465107438489,None,947.1502443413628,None,1.4841155712892942,938.6469264057596,None,939.6473110290208,None,0.65,7.50287315496098,942.6484671387079,None,None,942.6484671387079,None,,,,,,,,,,,,,,,,,,,24235,2019_Nov_08_1613,Mmi_3levels,3.1.5,59.96626684453149,
,,,2,0,-0.7,,,,,,,,,0,1,1,1,0,19,19,12,,,,,,,,,,,,,,,,,,,,,,,,,,,,,,,,,,,,,,,,,,,,,,,,,,,,,,,,,,,False,True,False,0.65,0.65,11.300000000000002,-20.400000000000002,-0.7,-21.1,-10.9,gamble,lose,-21.1,75.405,949.1677194208496,None,949.1677194208496,None,949.1677194208496,None,949.1677194208496,None,949.1677194208496,None,949.1677194208496,None,949.1677194208496,None,None,949.1677194208496,None,952.168848651705,None,952.168848651705,None,952.168848651705,None,952.168848651705,None,952.168848651705,None,952.168848651705,None,952.168848651705,None,956.1704114636923,None,956.1704114636923,None,956.1704114636923,None,956.1704114636923,None,956.1704114636923,None,956.1704114636923,None,956.1704114636923,None,957.1541616108843,None,,,,,,,,,,,,,,,,,,,,,,,,,,,,,,,24235,2019_Nov_08_1613,Mmi_3levels,3.1.5,59.96626684453149,
,,,2,0,5.7,,,,,,,,,0,1,1,1,0,20,20,17,,,,,,,,,,,,,,,,,,,,,,,,,,,,,,,,,,,,,,,,,,,,,,,,,,,,,,,,,,,False,False,False,0.65,0.65,11.950000000000003,3.2708333333333335,1.425,-1.8458333333333334,-0.2104166666666667,certain,certain,-0.2104166666666667,75.19458333333334,959.1716206910642,None,959.1716206910642,None,959.1716206910642,None,959.1716206910642,None,959.1716206910642,None,959.1716206910642,None,959.1716206910642,None,3,959.1716206910642,None,961.6726100880078,None,961.6726100880078,None,961.6726100880078,None,961.6726100880078,None,961.6726100880078,None,961.6726100880078,None,961.6726100880078,None,965.6741015430998,None,965.6741015430998,None,965.6741015430998,None,965.6741015430998,None,965.6741015430998,None,965.6741015430998,None,965.6741015430998,None,975.1612051443517,None,2.4678746780919028,966.6578753692629,None,967.6582699120918,None,0.36,7.5029099533603585,970.6594772195494,None,None,970.6594772195494,None,,,,,,,,,,,,,,,,,,,24235,2019_Nov_08_1613,Mmi_3levels,3.1.5,59.96626684453149,
,,,2,0,8.3,,,,,,,,,0,1,1,1,0,21,21,3,,,,,,,,,,,,,,,,,,,,,,,,,,,,,,,,,,,,,,,,,,,,,,,,,,,,,,,,,,,False,True,True,0.36,0.36,12.310000000000002,-17.35,8.3,-9.05,-0.375,certain,certain,-0.375,74.81958333333334,977.1786075869968,None,977.1786075869968,None,977.1786075869968,None,977.1786075869968,None,977.1786075869968,None,977.1786075869968,None,977.1786075869968,None,3,977.1786075869968,None,979.9964286354225,None,979.9964286354225,None,979.9964286354225,None,979.9964286354225,None,979.9964286354225,None,979.9964286354225,None,979.9964286354225,None,983.9979408896106,None,983.9979408896106,None,983.9979408896106,None,983.9979408896106,None,983.9979408896106,None,983.9979408896106,None,983.9979408896106,None,984.981704796206,None,2.784727768645098,,,,,,,,,,,,,,,,,,,,,,,,,,,,,,24235,2019_Nov_08_1613,Mmi_3levels,3.1.5,59.96626684453149,
,,,2,0,-1.5,,,,,,,,,0,1,1,1,0,22,22,10,,,,,,,,,,,,,,,,,,,,,,,,,,,,,,,,,,,,,,,,,,,,,,,,,,,,,,,,,,,False,True,True,0.36,0.36,12.670000000000002,-17.71,-1.5,-19.21,-10.355,gamble,lose,-19.21,55.60958333333334,986.9991699561215,None,986.9991699561215,None,986.9991699561215,None,986.9991699561215,None,986.9991699561215,None,986.9991699561215,None,986.9991699561215,None,1,986.9991699561215,None,989.8668845131833,None,989.8668845131833,None,989.8668845131833,None,989.8668845131833,None,989.8668845131833,None,989.8668845131833,None,989.8668845131833,None,993.8685820393075,None,993.8685820393075,None,993.8685820393075,None,993.8685820393075,None,993.8685820393075,None,993.8685820393075,None,993.8685820393075,None,1003.3555397269083,None,2.8346766348731762,994.8522073919339,None,995.8526387331622,None,0.31,7.5028238771083124,998.8537794835138,None,None,998.8537794835138,None,,,,,,,,,,,,,,,,,,,24235,2019_Nov_08_1613,Mmi_3levels,3.1.5,59.96626684453149,
,,,2,0,8.9,,,,,,,,,0,1,1,1,0,23,23,14,,,,,,,,,,,,,,,,,,,,,,,,,,,,,,,,,,,,,,,,,,,,,,,,,,,,,,,,,,,False,True,True,0.31,0.31,12.980000000000002,-17.32,8.9,-8.42,0.2400000000000002,gamble,lose,-8.42,47.18958333333334,1005.3729728882172,None,1005.3729728882172,None,1005.3729728882172,None,1005.3729728882172,None,1005.3729728882172,None,1005.3729728882172,None,1005.3729728882172,None,1,1005.3729728882172,None,1007.6071825354156,None,1007.6071825354156,None,1007.6071825354156,None,1007.6071825354156,None,1007.6071825354156,None,1007.6071825354156,None,1007.6071825354156,None,1011.6087581468455,None,1011.6087581468455,None,1011.6087581468455,None,1011.6087581468455,None,1011.6087581468455,None,1011.6087581468455,None,1011.6087581468455,None,1012.5925041342198,None,2.2011384464567527,,,,,,,,,,,,,,,,,,,,,,,,,,,,,,24235,2019_Nov_08_1613,Mmi_3levels,3.1.5,59.96626684453149,
,,,2,0,4.1,,,,,,,,,0,1,1,1,0,24,24,11,,,,,,,,,,,,,,,,,,,,,,,,,,,,,,,,,,,,,,,,,,,,,,,,,,,,,,,,,,,False,True,True,0.31,0.31,13.290000000000003,-17.630000000000003,4.1,-13.530000000000003,-4.715000000000002,certain,certain,-4.715000000000002,42.474583333333335,1014.6099843334814,None,1014.6099843334814,None,1014.6099843334814,None,1014.6099843334814,None,1014.6099843334814,None,1014.6099843334814,None,1014.6099843334814,None,3,1014.6099843334814,None,1016.6941147521247,None,1016.6941147521247,None,1016.6941147521247,None,1016.6941147521247,None,1016.6941147521247,None,1016.6941147521247,None,1016.6941147521247,None,1020.6956686045014,None,1020.6956686045014,None,1020.6956686045014,None,1020.6956686045014,None,1020.6956686045014,None,1020.6956686045014,None,1020.6956686045014,None,1021.6793905929189,None,2.05102241950226,,,,,,,,,,,,,,,,,,,,,,,,,,,,,,24235,2019_Nov_08_1613,Mmi_3levels,3.1.5,59.96626684453149,
,,,2,0,12.7,,,,,,,,,0,1,1,1,0,25,25,7,,,,,,,,,,,,,,,,,,,,,,,,,,,,,,,,,,,,,,,,,,,,,,,,,,,,,,,,,,,False,True,True,0.31,0.31,13.600000000000003,-17.940000000000005,12.7,-5.2400000000000055,-2.6200000000000028,gamble,lose,-5.2400000000000055,37.23458333333333,1023.6968595926701,None,1023.6968595926701,None,1023.6968595926701,None,1023.6968595926701,None,1023.6968595926701,None,1023.6968595926701,None,1023.6968595926701,None,1,1023.6968595926701,None,1025.2140569242401,None,1025.2140569242401,None,1025.2140569242401,None,1025.2140569242401,None,1025.2140569242401,None,1025.2140569242401,None,1025.2140569242401,None,1029.2156786136657,None,1029.2156786136657,None,1029.2156786136657,None,1029.2156786136657,None,1029.2156786136657,None,1029.2156786136657,None,1029.2156786136657,None,1038.702727497297,None,1.4841136513714446,1030.1993993221404,None,1031.1997868252765,None,0.44,7.502824517076078,1034.2009522145563,None,None,1034.2009522145563,None,,,,,,,,,,,,,,,,,,,24235,2019_Nov_08_1613,Mmi_3levels,3.1.5,59.96626684453149,
,,,2,0,10.7,,,,,,,,,0,1,1,1,0,26,26,20,,,,,,,,,,,,,,,,,,,,,,,,,,,,,,,,,,,,,,,,,,,,,,,,,,,,,,,,,,,False,False,False,0.44,0.44,14.040000000000003,2.71,2.675,-0.03500000000000014,1.3199999999999998,gamble,win,2.675,39.90958333333333,1040.7201628985094,None,1040.7201628985094,None,1040.7201628985094,None,1040.7201628985094,None,1040.7201628985094,None,1040.7201628985094,None,1040.7201628985094,None,1,1040.7201628985094,None,1042.570902834308,None,1042.570902834308,None,1042.570902834308,None,1042.570902834308,None,1042.570902834308,None,1042.570902834308,None,1042.570902834308,None,1046.5724678861952,None,1046.5724678861952,None,1046.5724678861952,None,1046.5724678861952,None,1046.5724678861952,None,1046.5724678861952,None,1046.5724678861952,None,1047.556238192512,None,1.8177141730775475,,,,,,,,,,,,,,,,,,,,,,,,,,,,,,24235,2019_Nov_08_1613,Mmi_3levels,3.1.5,59.96626684453149,
,,,3,1,-1.1,,,,,,,,,0,2,2,2,0,0,0,4,,,,,,,,,,,,,,,,,,,,,,,,,,,,,,,,,,,,,,,,,,,,,,,,1052.057901480126,None,0.48,7.502078629539028,1055.059115187305,None,None,1055.059115187305,None,1059.560925668513,None,True,True,True,0.48,-0.52,-0.52,7.800000000000001,-1.1,-8.9,-5.0,gamble,win,-1.1,38.80958333333333,1062.5953526502526,None,1062.5953526502526,None,1062.5953526502526,None,1062.5953526502526,None,1062.5953526502526,None,1062.5953526502526,None,1062.5953526502526,None,1,1062.5953526502526,None,1065.3798330696627,None,1065.3798330696627,None,1065.3798330696627,None,1065.3798330696627,None,1065.3798330696627,None,1065.3798330696627,None,1065.3798330696627,None,1069.3647082878924,None,1069.3647082878924,None,1069.3647082878924,None,1069.3647082878924,None,1069.3647082878924,None,1069.3647082878924,None,1069.3647082878924,None,1078.8684351656993,None,2.751413058504113,1070.365113390264,None,1071.3654999334394,None,0.68,7.502821957186825,1074.3666659626942,None,None,1074.3666659626942,None,1049.5569053634754,None,4,2.484671707086818,1049.5569053634754,None,,,,,,,,,,,,,24235,2019_Nov_08_1613,Mmi_3levels,3.1.5,59.96626684453149,
,,,3,1,3.5,,,,,,,,,0,2,2,2,0,1,1,26,,,,,,,,,,,,,,,,,,,,,,,,,,,,,,,,,,,,,,,,,,,,,,,,,,,,,,,,,,,True,True,False,0.68,-0.31999999999999995,-0.84,5.319999999999999,3.5,-1.8199999999999994,0.8400000000000003,gamble,win,3.5,42.30958333333333,1080.8858942458792,None,1080.8858942458792,None,1080.8858942458792,None,1080.8858942458792,None,1080.8858942458792,None,1080.8858942458792,None,1080.8858942458792,None,1,1080.8858942458792,None,1082.6532189319114,None,1082.6532189319114,None,1082.6532189319114,None,1082.6532189319114,None,1082.6532189319114,None,1082.6532189319114,None,1082.6532189319114,None,1086.6381271087048,None,1086.6381271087048,None,1086.6381271087048,None,1086.6381271087048,None,1086.6381271087048,None,1086.6381271087048,None,1086.6381271087048,None,1087.6385552500724,None,1.7342438857049274,,,,,,,,,,,,,,,,,,,,,,,,,,,,,,24235,2019_Nov_08_1613,Mmi_3levels,3.1.5,59.96626684453149,
,,,3,1,13.1,,,,,,,,,0,2,2,2,0,2,2,19,,,,,,,,,,,,,,,,,,,,,,,,,,,,,,,,,,,,,,,,,,,,,,,,,,,,,,,,,,,True,False,True,0.68,-0.31999999999999995,-1.16,-1.2166666666666666,13.1,11.883333333333333,5.941666666666666,gamble,lose,11.883333333333333,54.19291666666666,1089.655989371342,None,1089.655989371342,None,1089.655989371342,None,1089.655989371342,None,1089.655989371342,None,1089.655989371342,None,1089.655989371342,None,1,1089.655989371342,None,1091.339966004678,None,1091.339966004678,None,1091.339966004678,None,1091.339966004678,None,1091.339966004678,None,1091.339966004678,None,1091.339966004678,None,1095.324838023047,None,1095.324838023047,None,1095.324838023047,None,1095.324838023047,None,1095.324838023047,None,1095.324838023047,None,1095.324838023047,None,1096.3252223263225,None,1.6508715140698769,,,,,,,,,,,,,,,,,,,,,,,,,,,,,,24235,2019_Nov_08_1613,Mmi_3levels,3.1.5,59.96626684453149,
,,,3,1,10.3,,,,,,,,,0,2,2,2,0,3,3,12,,,,,,,,,,,,,,,,,,,,,,,,,,,,,,,,,,,,,,,,,,,,,,,,,,,,,,,,,,,True,True,True,0.68,-0.31999999999999995,-1.48,5.959999999999999,10.3,4.340000000000002,2.170000000000001,gamble,win,10.3,64.49291666666666,1098.342743803787,None,1098.342743803787,None,1098.342743803787,None,1098.342743803787,None,1098.342743803787,None,1098.342743803787,None,1098.342743803787,None,1,1098.342743803787,None,1099.609885457783,None,1099.609885457783,None,1099.609885457783,None,1099.609885457783,None,1099.609885457783,None,1099.609885457783,None,1099.609885457783,None,1103.5947683556806,None,1103.5947683556806,None,1103.5947683556806,None,1103.5947683556806,None,1103.5947683556806,None,1103.5947683556806,None,1103.5947683556806,None,1113.0984952334875,None,1.2340518940618495,1104.59516609837,None,1105.595553921492,None,0.75,7.50293203239562,1108.596668432987,None,None,1108.596668432987,None,,,,,,,,,,,,,,,,,,,24235,2019_Nov_08_1613,Mmi_3levels,3.1.5,59.96626684453149,
,,,3,1,10.5,,,,,,,,,0,2,2,2,0,4,4,8,,,,,,,,,,,,,,,,,,,,,,,,,,,,,,,,,,,,,,,,,,,,,,,,,,,,,,,,,,,True,True,True,0.75,-0.25,-1.73,5.23,10.5,5.27,2.635,gamble,win,10.5,74.99291666666666,1115.1159447140853,None,1115.1159447140853,None,1115.1159447140853,None,1115.1159447140853,None,1115.1159447140853,None,1115.1159447140853,None,1115.1159447140853,None,1,1115.1159447140853,None,1117.033368147815,None,1117.033368147815,None,1117.033368147815,None,1117.033368147815,None,1117.033368147815,None,1117.033368147815,None,1117.033368147815,None,1121.034881681946,None,1121.034881681946,None,1121.034881681946,None,1121.034881681946,None,1121.034881681946,None,1121.034881681946,None,1121.034881681946,None,1122.0187111856867,None,1.8843288740063144,,,,,,,,,,,,,,,,,,,,,,,,,,,,,,24235,2019_Nov_08_1613,Mmi_3levels,3.1.5,59.96626684453149,
,,,3,1,5.1,,,,,,,,,0,2,2,2,0,5,5,21,,,,,,,,,,,,,,,,,,,,,,,,,,,,,,,,,,,,,,,,,,,,,,,,,,,,,,,,,,,True,True,True,0.75,-0.25,-1.98,5.48,5.1,-0.3800000000000008,-0.1900000000000004,gamble,win,5.1,80.09291666666665,1124.0361638661452,None,1124.0361638661452,None,1124.0361638661452,None,1124.0361638661452,None,1124.0361638661452,None,1124.0361638661452,None,1124.0361638661452,None,1,1124.0361638661452,None,1125.7033741891537,None,1125.7033741891537,None,1125.7033741891537,None,1125.7033741891537,None,1125.7033741891537,None,1125.7033741891537,None,1125.7033741891537,None,1129.7049613200834,None,1129.7049613200834,None,1129.7049613200834,None,1129.7049613200834,None,1129.7049613200834,None,1129.7049613200834,None,1129.7049613200834,None,1139.1920310028108,None,1.6341192831278022,1130.6887021876792,None,1131.6890976904651,None,0.86,7.502845956143574,1134.6902058022424,None,None,1134.6902058022424,None,,,,,,,,,,,,,,,,,,,24235,2019_Nov_08_1613,Mmi_3levels,3.1.5,59.96626684453149,
,,,3,1,2.1,,,,,,,,,0,2,2,2,0,6,6,10,,,,,,,,,,,,,,,,,,,,,,,,,,,,,,,,,,,,,,,,,,,,,,,,,,,,,,,,,,,True,True,True,0.86,-0.14,-2.12,4.08,2.1,-1.98,0.06000000000000005,gamble,win,2.1,82.19291666666665,1141.2094622442019,None,1141.2094622442019,None,1141.2094622442019,None,1141.2094622442019,None,1141.2094622442019,None,1141.2094622442019,None,1141.2094622442019,None,1,1141.2094622442019,None,1143.0268711505669,None,1143.0268711505669,None,1143.0268711505669,None,1143.0268711505669,None,1143.0268711505669,None,1143.0268711505669,None,1143.0268711505669,None,1147.0117236497863,None,1147.0117236497863,None,1147.0117236497863,None,1147.0117236497863,None,1147.0117236497863,None,1147.0117236497863,None,1147.0117236497863,None,1148.0121236323794,None,1.7843130666951765,,,,,,,,,,,,,,,,,,,,,,,,,,,,,,24235,2019_Nov_08_1613,Mmi_3levels,3.1.5,59.96626684453149,
,,,3,1,13.3,,,,,,,,,0,2,2,2,0,7,7,14,,,,,,,,,,,,,,,,,,,,,,,,,,,,,,,,,,,,,,,,,,,,,,,,,,,,,,,,,,,True,True,False,0.86,-0.14,-2.2600000000000002,4.220000000000001,13.3,9.08,4.54,gamble,win,13.3,95.49291666666664,1150.0295721530165,None,1150.0295721530165,None,1150.0295721530165,None,1150.0295721530165,None,1150.0295721530165,None,1150.0295721530165,None,1150.0295721530165,None,1,1150.0295721530165,None,1151.2133839935268,None,1151.2133839935268,None,1151.2133839935268,None,1151.2133839935268,None,1151.2133839935268,None,1151.2133839935268,None,1151.2133839935268,None,1155.2149682445815,None,1155.2149682445815,None,1155.2149682445815,None,1155.2149682445815,None,1155.2149682445815,None,1155.2149682445815,None,1155.2149682445815,None,1164.7019652904673,None,1.150741599725734,1156.1986345554214,None,1157.1990742162889,None,0.88,7.502951231563202,1160.2001868078696,None,None,1160.2001868078696,None,,,,,,,,,,,,,,,,,,,24235,2019_Nov_08_1613,Mmi_3levels,3.1.5,59.96626684453149,
,,,3,1,12.5,,,,,,,,,0,2,2,2,0,8,8,11,,,,,,,,,,,,,,,,,,,,,,,,,,,,,,,,,,,,,,,,,,,,,,,,,,,,,,,,,,,True,True,False,0.88,-0.12,-2.3800000000000003,4.0600000000000005,12.5,8.44,4.22,gamble,win,12.5,107.99291666666664,1166.719465328868,None,1166.719465328868,None,1166.719465328868,None,1166.719465328868,None,1166.719465328868,None,1166.719465328868,None,1166.719465328868,None,1,1166.719465328868,None,1167.736477388502,None,1167.736477388502,None,1167.736477388502,None,1167.736477388502,None,1167.736477388502,None,1167.736477388502,None,1167.736477388502,None,1171.7380648394173,None,1171.7380648394173,None,1171.7380648394173,None,1171.7380648394173,None,1171.7380648394173,None,1171.7380648394173,None,1171.7380648394173,None,1172.7217794681565,None,0.9839280594496813,,,,,,,,,,,,,,,,,,,,,,,,,,,,,,24235,2019_Nov_08_1613,Mmi_3levels,3.1.5,59.96626684453149,
,,,3,1,4.3,,,,,,,,,0,2,2,2,0,9,9,0,,,,,,,,,,,,,,,,,,,,,,,,,,,,,,,,,,,,,,,,,,,,,,,,,,,,,,,,,,,True,False,False,0.88,-0.12,-2.5000000000000004,-0.6283333333333334,4.3,3.6716666666666664,1.8358333333333332,gamble,lose,3.6716666666666664,111.66458333333331,1174.7392603073895,None,1174.7392603073895,None,1174.7392603073895,None,1174.7392603073895,None,1174.7392603073895,None,1174.7392603073895,None,1174.7392603073895,None,1,1174.7392603073895,None,1176.6233683910068,None,1176.6233683910068,None,1176.6233683910068,None,1176.6233683910068,None,1176.6233683910068,None,1176.6233683910068,None,1176.6233683910068,None,1180.624893444634,None,1180.624893444634,None,1180.624893444634,None,1180.624893444634,None,1180.624893444634,None,1180.624893444634,None,1180.624893444634,None,1181.6085690350737,None,1.8509892049514747,,,,,,,,,,,,,,,,,,,,,,,,,,,,,,24235,2019_Nov_08_1613,Mmi_3levels,3.1.5,59.96626684453149,
,,,3,1,5.3,,,,,,,,,0,2,2,2,0,10,10,13,,,,,,,,,,,,,,,,,,,,,,,,,,,,,,,,,,,,,,,,,,,,,,,,,,,,,,,,,,,True,True,True,0.88,-0.12,-2.6200000000000006,4.300000000000001,5.3,0.9999999999999991,0.49999999999999956,gamble,win,5.3,116.96458333333331,1183.6260860327347,None,1183.6260860327347,None,1183.6260860327347,None,1183.6260860327347,None,1183.6260860327347,None,1183.6260860327347,None,1183.6260860327347,None,1,1183.6260860327347,None,1185.7269549229204,None,1185.7269549229204,None,1185.7269549229204,None,1185.7269549229204,None,1185.7269549229204,None,1185.7269549229204,None,1185.7269549229204,None,1189.711786303058,None,1189.711786303058,None,1189.711786303058,None,1189.711786303058,None,1189.711786303058,None,1189.711786303058,None,1189.711786303058,None,1199.2155135008506,None,2.0677103332454863,1190.7121805259012,None,1191.7125209910846,None,0.88,7.502888514292863,1194.7137049395606,None,None,1194.7137049395606,None,,,,,,,,,,,,,,,,,,,24235,2019_Nov_08_1613,Mmi_3levels,3.1.5,59.96626684453149,
,,,3,1,0.5,,,,,,,,,0,2,2,2,0,11,11,18,,,,,,,,,,,,,,,,,,,,,,,,,,,,,,,,,,,,,,,,,,,,,,,,,,,,,,,,,,,True,True,True,0.88,-0.12,-2.7400000000000007,4.420000000000001,0.5,-3.920000000000001,-1.7100000000000004,gamble,win,0.5,117.46458333333331,1201.23296714127,None,1201.23296714127,None,1201.23296714127,None,1201.23296714127,None,1201.23296714127,None,1201.23296714127,None,1201.23296714127,None,1,1201.23296714127,None,1202.9837136687784,None,1202.9837136687784,None,1202.9837136687784,None,1202.9837136687784,None,1202.9837136687784,None,1202.9837136687784,None,1202.9837136687784,None,1206.9685437689732,None,1206.9685437689732,None,1206.9685437689732,None,1206.9685437689732,None,1206.9685437689732,None,1206.9685437689732,None,1206.9685437689732,None,1207.9689335120129,None,1.7175822108220018,,,,,,,,,,,,,,,,,,,,,,,,,,,,,,24235,2019_Nov_08_1613,Mmi_3levels,3.1.5,59.96626684453149,
,,,3,1,6.9,,,,,,,,,0,2,2,2,0,12,12,7,,,,,,,,,,,,,,,,,,,,,,,,,,,,,,,,,,,,,,,,,,,,,,,,,,,,,,,,,,,True,True,True,0.88,-0.12,-2.8600000000000008,4.540000000000001,6.9,2.3599999999999994,1.1799999999999997,gamble,win,6.9,124.36458333333331,1209.9863439543078,None,1209.9863439543078,None,1209.9863439543078,None,1209.9863439543078,None,1209.9863439543078,None,1209.9863439543078,None,1209.9863439543078,None,1,1209.9863439543078,None,1210.93671507416,None,1210.93671507416,None,1210.93671507416,None,1210.93671507416,None,1210.93671507416,None,1210.93671507416,None,1210.93671507416,None,1214.9215992520003,None,1214.9215992520003,None,1214.9215992520003,None,1214.9215992520003,None,1214.9215992520003,None,1214.9215992520003,None,1214.9215992520003,None,1224.4253194100966,None,0.9172733602645167,1215.9219928348684,None,1216.922440815375,None,0.76,7.502813637551299,1219.9236180441403,None,None,1219.9236180441403,None,,,,,,,,,,,,,,,,,,,24235,2019_Nov_08_1613,Mmi_3levels,3.1.5,59.96626684453149,
,,,3,1,7.3,,,,,,,,,0,2,2,2,0,13,13,9,,,,,,,,,,,,,,,,,,,,,,,,,,,,,,,,,,,,,,,,,,,,,,,,,,,,,,,,,,,True,True,False,0.76,-0.24,-3.1000000000000005,6.460000000000001,7.3,0.839999999999999,0.4199999999999995,gamble,win,7.3,131.66458333333333,1226.4427954495404,None,1226.4427954495404,None,1226.4427954495404,None,1226.4427954495404,None,1226.4427954495404,None,1226.4427954495404,None,1226.4427954495404,None,1,1226.4427954495404,None,1227.6265733715263,None,1227.6265733715263,None,1227.6265733715263,None,1227.6265733715263,None,1227.6265733715263,None,1227.6265733715263,None,1227.6265733715263,None,1231.611478348459,None,1231.611478348459,None,1231.611478348459,None,1231.611478348459,None,1231.611478348459,None,1231.611478348459,None,1231.611478348459,None,1232.6118962502733,None,1.1507444796006894,,,,,,,,,,,,,,,,,,,,,,,,,,,,,,24235,2019_Nov_08_1613,Mmi_3levels,3.1.5,59.96626684453149,
,,,3,1,1.1,,,,,,,,,0,2,2,2,0,14,14,20,,,,,,,,,,,,,,,,,,,,,,,,,,,,,,,,,,,,,,,,,,,,,,,,,,,,,,,,,,,True,True,True,0.76,-0.24,-3.3400000000000007,6.700000000000001,1.1,-5.600000000000001,-2.250000000000001,gamble,win,1.1,132.76458333333332,1234.629364930035,None,1234.629364930035,None,1234.629364930035,None,1234.629364930035,None,1234.629364930035,None,1234.629364930035,None,1234.629364930035,None,1,1234.629364930035,None,1236.996961732224,None,1236.996961732224,None,1236.996961732224,None,1236.996961732224,None,1236.996961732224,None,1236.996961732224,None,1236.996961732224,None,1240.981828950804,None,1240.981828950804,None,1240.981828950804,None,1240.981828950804,None,1240.981828950804,None,1240.981828950804,None,1240.981828950804,None,1241.9822401329075,None,2.334303211126098,,,,,,,,,,,,,,,,,,,,,,,,,,,,,,24235,2019_Nov_08_1613,Mmi_3levels,3.1.5,59.96626684453149,
,,,3,1,6.7,,,,,,,,,0,2,2,2,0,15,15,6,,,,,,,,,,,,,,,,,,,,,,,,,,,,,,,,,,,,,,,,,,,,,,,,,,,,,,,,,,,True,True,False,0.76,-0.24,-3.580000000000001,6.940000000000001,6.7,-0.2400000000000011,-0.12000000000000055,gamble,win,6.7,139.4645833333333,1243.999695693241,None,1243.999695693241,None,1243.999695693241,None,1243.999695693241,None,1243.999695693241,None,1243.999695693241,None,1243.999695693241,None,1,1243.999695693241,None,1245.250182392061,None,1245.250182392061,None,1245.250182392061,None,1245.250182392061,None,1245.250182392061,None,1245.250182392061,None,1245.250182392061,None,1249.2517528837125,None,1249.2517528837125,None,1249.2517528837125,None,1249.2517528837125,None,1249.2517528837125,None,1249.2517528837125,None,1249.2517528837125,None,1258.7387790483335,None,1.217374859847041,1250.2354707123122,None,1251.235857575477,None,0.71,7.502917313038779,1254.2370223247854,None,None,1254.2370223247854,None,,,,,,,,,,,,,,,,,,,24235,2019_Nov_08_1613,Mmi_3levels,3.1.5,59.96626684453149,
,,,3,1,1.3,,,,,,,,,0,2,2,2,0,16,16,5,,,,,,,,,,,,,,,,,,,,,,,,,,,,,,,,,,,,,,,,,,,,,,,,,,,,,,,,,,,True,False,False,0.71,-0.29000000000000004,-3.870000000000001,-1.3375000000000001,1.3,-0.03750000000000009,0.63125,gamble,lose,-0.03750000000000009,139.42708333333331,1260.7562013301176,None,1260.7562013301176,None,1260.7562013301176,None,1260.7562013301176,None,1260.7562013301176,None,1260.7562013301176,None,1260.7562013301176,None,1,1260.7562013301176,None,1262.1567653375714,None,1262.1567653375714,None,1262.1567653375714,None,1262.1567653375714,None,1262.1567653375714,None,1262.1567653375714,None,1262.1567653375714,None,1266.1416613548972,None,1266.1416613548972,None,1266.1416613548972,None,1266.1416613548972,None,1266.1416613548972,None,1266.1416613548972,None,1266.1416613548972,None,1267.1420814966114,None,1.3674928067121073,,,,,,,,,,,,,,,,,,,,,,,,,,,,,,24235,2019_Nov_08_1613,Mmi_3levels,3.1.5,59.96626684453149,
,,,3,1,8.5,,,,,,,,,0,2,2,2,0,17,17,1,,,,,,,,,,,,,,,,,,,,,,,,,,,,,,,,,,,,,,,,,,,,,,,,,,,,,,,,,,,True,False,True,0.71,-0.29000000000000004,-4.160000000000001,-1.3616666666666668,8.5,7.138333333333334,3.569166666666667,gamble,lose,7.138333333333334,146.56541666666664,1269.1595152978916,None,1269.1595152978916,None,1269.1595152978916,None,1269.1595152978916,None,1269.1595152978916,None,1269.1595152978916,None,1269.1595152978916,None,1,1269.1595152978916,None,1271.1769990169996,None,1271.1769990169996,None,1271.1769990169996,None,1271.1769990169996,None,1271.1769990169996,None,1271.1769990169996,None,1271.1769990169996,None,1275.1618537561226,None,1275.1618537561226,None,1275.1618537561226,None,1275.1618537561226,None,1275.1618537561226,None,1275.1618537561226,None,1275.1618537561226,None,1284.6656091126897,None,1.9844070786057273,1276.1622790176152,None,1277.1626543612801,None,0.85,7.5028379564937495,1280.1638325500062,None,None,1280.1638325500062,None,,,,,,,,,,,,,,,,,,,24235,2019_Nov_08_1613,Mmi_3levels,3.1.5,59.96626684453149,
,,,3,1,7.1,,,,,,,,,0,2,2,2,0,18,18,15,,,,,,,,,,,,,,,,,,,,,,,,,,,,,,,,,,,,,,,,,,,,,,,,,,,,,,,,,,,True,True,False,0.85,-0.15000000000000002,-4.310000000000001,6.410000000000002,7.1,0.6899999999999977,0.34499999999999886,gamble,win,7.1,153.66541666666663,1286.6830633930804,None,1286.6830633930804,None,1286.6830633930804,None,1286.6830633930804,None,1286.6830633930804,None,1286.6830633930804,None,1286.6830633930804,None,1,1286.6830633930804,None,1288.083557003596,None,1288.083557003596,None,1288.083557003596,None,1288.083557003596,None,1288.083557003596,None,1288.083557003596,None,1288.083557003596,None,1292.0685470968274,None,1292.0685470968274,None,1292.0685470968274,None,1292.0685470968274,None,1292.0685470968274,None,1292.0685470968274,None,1292.0685470968274,None,1293.0688962016357,None,1.367412810195674,,,,,,,,,,,,,,,,,,,,,,,,,,,,,,24235,2019_Nov_08_1613,Mmi_3levels,3.1.5,59.96626684453149,
,,,3,1,9.7,,,,,,,,,0,2,2,2,0,19,19,16,,,,,,,,,,,,,,,,,,,,,,,,,,,,,,,,,,,,,,,,,,,,,,,,,,,,,,,,,,,True,False,False,0.85,-0.15000000000000002,-4.460000000000002,-0.896666666666667,9.7,8.803333333333333,4.401666666666666,gamble,lose,8.803333333333333,162.46874999999997,1295.0862948044487,None,1295.0862948044487,None,1295.0862948044487,None,1295.0862948044487,None,1295.0862948044487,None,1295.0862948044487,None,1295.0862948044487,None,1,1295.0862948044487,None,1296.0200151289391,None,1296.0200151289391,None,1296.0200151289391,None,1296.0200151289391,None,1296.0200151289391,None,1296.0200151289391,None,1296.0200151289391,None,1300.0049108262792,None,1300.0049108262792,None,1300.0049108262792,None,1300.0049108262792,None,1300.0049108262792,None,1300.0049108262792,None,1300.0049108262792,None,1309.5086556233073,None,0.9006392041810614,1301.0053364077576,None,1302.005723590908,None,0.85,7.502916993053077,1305.006828502821,None,None,1305.006828502821,None,,,,,,,,,,,,,,,,,,,24235,2019_Nov_08_1613,Mmi_3levels,3.1.5,59.96626684453149,
,,,3,1,11.3,,,,,,,,,0,2,2,2,0,20,20,25,,,,,,,,,,,,,,,,,,,,,,,,,,,,,,,,,,,,,,,,,,,,,,,,,,,,,,,,,,,True,True,True,0.85,-0.15000000000000002,-4.610000000000002,6.710000000000003,11.3,4.589999999999998,2.294999999999999,gamble,win,11.3,173.76874999999998,1311.5261182233335,None,1311.5261182233335,None,1311.5261182233335,None,1311.5261182233335,None,1311.5261182233335,None,1311.5261182233335,None,1311.5261182233335,None,1,1311.5261182233335,None,1312.6098688185084,None,1312.6098688185084,None,1312.6098688185084,None,1312.6098688185084,None,1312.6098688185084,None,1312.6098688185084,None,1312.6098688185084,None,1316.5947133180744,None,1316.5947133180744,None,1316.5947133180744,None,1316.5947133180744,None,1316.5947133180744,None,1316.5947133180744,None,1316.5947133180744,None,1317.595121300321,None,1.050682914279605,,,,,,,,,,,,,,,,,,,,,,,,,,,,,,24235,2019_Nov_08_1613,Mmi_3levels,3.1.5,59.96626684453149,
,,,3,1,2.7,,,,,,,,,0,2,2,2,0,21,21,2,,,,,,,,,,,,,,,,,,,,,,,,,,,,,,,,,,,,,,,,,,,,,,,,,,,,,,,,,,,True,False,False,0.85,-0.15000000000000002,-4.7600000000000025,-0.9216666666666671,2.7,1.778333333333333,0.8891666666666665,gamble,lose,1.778333333333333,175.54708333333332,1319.6125842203328,None,1319.6125842203328,None,1319.6125842203328,None,1319.6125842203328,None,1319.6125842203328,None,1319.6125842203328,None,1319.6125842203328,None,1,1319.6125842203328,None,1321.5299807752344,None,1321.5299807752344,None,1321.5299807752344,None,1321.5299807752344,None,1321.5299807752344,None,1321.5299807752344,None,1321.5299807752344,None,1325.514877112546,None,1325.514877112546,None,1325.514877112546,None,1325.514877112546,None,1325.514877112546,None,1325.514877112546,None,1325.514877112546,None,1326.5152985342065,None,1.8843243942028494,,,,,,,,,,,,,,,,,,,,,,,,,,,,,,24235,2019_Nov_08_1613,Mmi_3levels,3.1.5,59.96626684453149,
,,,3,1,12.9,,,,,,,,,0,2,2,2,0,22,22,24,,,,,,,,,,,,,,,,,,,,,,,,,,,,,,,,,,,,,,,,,,,,,,,,,,,,,,,,,,,True,True,False,0.85,-0.15000000000000002,-4.910000000000003,7.010000000000003,12.9,5.889999999999997,2.9449999999999985,gamble,win,12.9,188.44708333333332,1328.5327684939148,None,1328.5327684939148,None,1328.5327684939148,None,1328.5327684939148,None,1328.5327684939148,None,1328.5327684939148,None,1328.5327684939148,None,1,1328.5327684939148,None,1329.4998092882997,None,1329.4998092882997,None,1329.4998092882997,None,1329.4998092882997,None,1329.4998092882997,None,1329.4998092882997,None,1329.4998092882997,None,1333.50136186073,None,1333.50136186073,None,1333.50136186073,None,1333.50136186073,None,1333.50136186073,None,1333.50136186073,None,1333.50136186073,None,1342.9883989048794,None,0.9339510344507289,1334.4850921687867,None,1335.4854348738736,None,0.79,7.502929792495706,1338.4866012231141,None,None,1338.4866012231141,None,,,,,,,,,,,,,,,,,,,24235,2019_Nov_08_1613,Mmi_3levels,3.1.5,59.96626684453149,
,,,3,1,12.3,,,,,,,,,0,2,2,2,0,23,23,3,,,,,,,,,,,,,,,,,,,,,,,,,,,,,,,,,,,,,,,,,,,,,,,,,,,,,,,,,,,True,True,True,0.79,-0.20999999999999996,-5.120000000000003,8.060000000000002,12.3,4.239999999999998,2.119999999999999,gamble,win,12.3,200.74708333333334,1345.0058810240553,None,1345.0058810240553,None,1345.0058810240553,None,1345.0058810240553,None,1345.0058810240553,None,1345.0058810240553,None,1345.0058810240553,None,1,1345.0058810240553,None,1346.0895836213203,None,1346.0895836213203,None,1346.0895836213203,None,1346.0895836213203,None,1346.0895836213203,None,1346.0895836213203,None,1346.0895836213203,None,1350.091146433304,None,1350.091146433304,None,1350.091146433304,None,1350.091146433304,None,1350.091146433304,None,1350.091146433304,None,1350.091146433304,None,1351.0748693816822,None,1.050606437609531,,,,,,,,,,,,,,,,,,,,,,,,,,,,,,24235,2019_Nov_08_1613,Mmi_3levels,3.1.5,59.96626684453149,
,,,3,1,7.5,,,,,,,,,0,2,2,2,0,24,24,23,,,,,,,,,,,,,,,,,,,,,,,,,,,,,,,,,,,,,,,,,,,,,,,,,,,,,,,,,,,True,True,False,0.79,-0.20999999999999996,-5.330000000000003,8.270000000000003,7.5,-0.7700000000000031,-0.38500000000000156,gamble,win,7.5,208.24708333333334,1353.0923502209153,None,1353.0923502209153,None,1353.0923502209153,None,1353.0923502209153,None,1353.0923502209153,None,1353.0923502209153,None,1353.0923502209153,None,1,1353.0923502209153,None,1354.7429942248891,None,1354.7429942248891,None,1354.7429942248891,None,1354.7429942248891,None,1354.7429942248891,None,1354.7429942248891,None,1354.7429942248891,None,1358.7445743161225,None,1358.7445743161225,None,1358.7445743161225,None,1358.7445743161225,None,1358.7445743161225,None,1358.7445743161225,None,1358.7445743161225,None,1368.231627679561,None,1.617541764582711,1359.7283020642935,None,1360.7286233303093,None,0.87,7.502835076615156,1363.7298527168095,None,None,1363.7298527168095,None,,,,,,,,,,,,,,,,,,,24235,2019_Nov_08_1613,Mmi_3levels,3.1.5,59.96626684453149,
,,,3,1,11.1,,,,,,,,,0,2,2,2,0,25,25,17,,,,,,,,,,,,,,,,,,,,,,,,,,,,,,,,,,,,,,,,,,,,,,,,,,,,,,,,,,,True,True,False,0.87,-0.13,-5.460000000000003,7.280000000000003,11.1,3.8199999999999967,1.9099999999999984,gamble,win,11.1,219.34708333333333,1370.2490320421239,None,1370.2490320421239,None,1370.2490320421239,None,1370.2490320421239,None,1370.2490320421239,None,1370.2490320421239,None,1370.2490320421239,None,1,1370.2490320421239,None,1372.2998915887147,None,1372.2998915887147,None,1372.2998915887147,None,1372.2998915887147,None,1372.2998915887147,None,1372.2998915887147,None,1372.2998915887147,None,1376.2847805663478,None,1376.2847805663478,None,1376.2847805663478,None,1376.2847805663478,None,1376.2847805663478,None,1376.2847805663478,None,1376.2847805663478,None,1377.2851619897483,None,2.01776050706394,,,,,,,,,,,,,,,,,,,,,,,,,,,,,,24235,2019_Nov_08_1613,Mmi_3levels,3.1.5,59.96626684453149,
,,,3,1,-0.7,,,,,,,,,0,2,2,2,0,26,26,22,,,,,,,,,,,,,,,,,,,,,,,,,,,,,,,,,,,,,,,,,,,,,,,,,,,,,,,,,,,True,True,True,0.87,-0.13,-5.5900000000000025,7.410000000000003,-0.7,-8.110000000000003,-4.405000000000001,certain,certain,-4.405000000000001,214.94208333333333,1379.302573392004,None,1379.302573392004,None,1379.302573392004,None,1379.302573392004,None,1379.302573392004,None,1379.302573392004,None,1379.302573392004,None,3,1379.302573392004,None,1381.9870133651784,None,1381.9870133651784,None,1381.9870133651784,None,1381.9870133651784,None,1381.9870133651784,None,1381.9870133651784,None,1381.9870133651784,None,1385.988582896869,None,1385.988582896869,None,1385.988582896869,None,1385.988582896869,None,1385.988582896869,None,1385.988582896869,None,1385.988582896869,None,1395.47562058099,None,2.651171980996878,1386.97227864643,None,1387.9726299911417,None,0.68,7.502903233649704,1390.9737925005502,None,None,1390.9737925005502,None,,,,,,,,,,,,,,,,,,,24235,2019_Nov_08_1613,Mmi_3levels,3.1.5,59.96626684453149,
,,,,,,,,,,,,,,,,,,,,,,,,,,,,,,0,0,0,0,,,,,,,,,,,,,,,,,,,,,,,,,,,,,,,,,,,,,,,,,,,,,,,,,,,,,,,,,,,,,,,,,,,,,,,,,,,,,,,,,,,,,,,,,,,,,,,,,,,,,,,,,,,,,,,,,,,,,,,,1397.476396867205,None,4,4.785468856396619,1397.476396867205,None,214.94208333333333,5,1402.2949462039396,None,1402.2949462039396,None,1402.2949462039396,None,4,24.40970440966339,1402.2949462039396,None,24235,2019_Nov_08_1613,Mmi_3levels,3.1.5,59.96626684453149,
