currSlide,currImage,currText,blockNum,targetHappiness,highAmount,instructionLoop1.thisRepN,instructionLoop1.thisTrialN,instructionLoop1.thisN,instructionLoop1.thisIndex,instructionLoop2.thisRepN,instructionLoop2.thisTrialN,instructionLoop2.thisN,instructionLoop2.thisIndex,blockLoop.thisRepN,blockLoop.thisTrialN,blockLoop.thisN,blockLoop.thisIndex,trialLoop.thisRepN,trialLoop.thisTrialN,trialLoop.thisN,trialLoop.thisIndex,doRatingLoop.thisRepN,doRatingLoop.thisTrialN,doRatingLoop.thisN,doRatingLoop.thisIndex,trialHappyLoop.thisRepN,trialHappyLoop.thisTrialN,trialHappyLoop.thisN,trialHappyLoop.thisIndex,logWinningsLoop.thisRepN,logWinningsLoop.thisTrialN,logWinningsLoop.thisN,logWinningsLoop.thisIndex,instrImage.started,instrImage.stopped,instrText.started,instrText.stopped,instrContinueText.started,instrContinueText.stopped,instrKeyResp.keys,instrKeyResp.rt,instrKeyResp.started,instrKeyResp.stopped,lifeHappyText.started,lifeHappyText.stopped,lifeHappySlider.response,lifeHappySlider.rt,lifeHappySlider.started,lifeHappySlider.stopped,lifeHappyResp.keys,lifeHappyResp.started,lifeHappyResp.stopped,instrImage_2.started,instrImage_2.stopped,instrText_2.started,instrText_2.stopped,instrContinueText_2.started,instrContinueText_2.stopped,instrKeyResp_2.keys,instrKeyResp_2.rt,instrKeyResp_2.started,instrKeyResp_2.stopped,localizing.started,localizing.stopped,start_exp.keys,start_exp.rt,start_exp.started,start_exp.stopped,blockHappyText.started,blockHappyText.stopped,blockHappySlider.response,blockHappySlider.rt,blockHappySlider.started,blockHappySlider.stopped,blockHappyResp.keys,blockHappyResp.started,blockHappyResp.stopped,blankText.started,blankText.stopped,isHappyBlock,isCongruent,isWinOnTop,lastHappyRating,diff,sumDiff,RPE,winAmount,loseAmount,certainAmount,choice,outcome,outcomeAmount,currentWinnings,fixCross.started,fixCross.stopped,certainBox.started,certainBox.stopped,outcome1Box.started,outcome1Box.stopped,outcome2Box.started,outcome2Box.stopped,certainText.started,certainText.stopped,outcome1Text.started,outcome1Text.stopped,outcome2Text.started,outcome2Text.stopped,choiceKey.keys,choiceKey.started,choiceKey.stopped,fixCross_2.started,fixCross_2.stopped,certainBox_2.started,certainBox_2.stopped,outcome1Box_2.started,outcome1Box_2.stopped,outcome2Box_2.started,outcome2Box_2.stopped,certainText_2.started,certainText_2.stopped,outcome1Text_2.started,outcome1Text_2.stopped,outcome2Text_2.started,outcome2Text_2.stopped,fixCross_3.started,fixCross_3.stopped,certainBox_3.started,certainBox_3.stopped,outcome1Box_3.started,outcome1Box_3.stopped,outcome2Box_3.started,outcome2Box_3.stopped,certainText_3.started,certainText_3.stopped,outcome1Text_3.started,outcome1Text_3.stopped,outcome2Text_3.started,outcome2Text_3.stopped,fixCross_ITI.started,fixCross_ITI.stopped,choiceKey.rt,fixCross_ISI.started,fixCross_ISI.stopped,happyText.started,happyText.stopped,happySlider.response,happySlider.rt,happySlider.started,happySlider.stopped,happyResp.keys,happyResp.started,happyResp.stopped,endOfBlockText.started,endOfBlockText.stopped,restKeyResp.keys,restKeyResp.rt,restKeyResp.started,restKeyResp.stopped,finalWinnings,cashBonus,goodbyeText.started,goodbyeText.stopped,finalWinningsText.started,finalWinningsText.stopped,spaceToContinue.started,spaceToContinue.stopped,goodbyeKeyResp_2.keys,goodbyeKeyResp_2.rt,goodbyeKeyResp_2.started,goodbyeKeyResp_2.stopped,participant,date,expName,psychopyVersion,frameRate,
1,black.png,"Welcome! You are about to play our gambling task.
This task has 3 blocks and takes about 15 minutes.",,,,0,0,0,0,,,,,,,,,,,,,,,,,,,,,,,,,45.441187067714054,None,45.441187067714054,None,45.441187067714054,None,4,4.580753347196151,45.441187067714054,None,,,,,,,,,,,,,,,,,,,,,,,,,,,,,,,,,,,,,,,,,,,,,,,,,,,,,,,,,,,,,,,,,,,,,,,,,,,,,,,,,,,,,,,,,,,,,,,,,,,,,,,,,,,,,,,,,,,,,,,,,,,,,,,,24138,2019_Sep_03_1156,Mmi_3levels,3.1.5,59.99235972973669,
2,black.png,"In this game, you may win or lose points. Your goal is to get as many points as possible. These points will be converted to a cash bonus at the end.
Sometimes we will ask you to rate your mood.",,,,0,1,1,1,,,,,,,,,,,,,,,,,,,,,,,,,50.07168625079794,None,50.07168625079794,None,50.07168625079794,None,4,11.021266206458677,50.07168625079794,None,,,,,,,,,,,,,,,,,,,,,,,,,,,,,,,,,,,,,,,,,,,,,,,,,,,,,,,,,,,,,,,,,,,,,,,,,,,,,,,,,,,,,,,,,,,,,,,,,,,,,,,,,,,,,,,,,,,,,,,,,,,,,,,,24138,2019_Sep_03_1156,Mmi_3levels,3.1.5,59.99235972973669,
3,black.png,"On the next screen, please rate how you feel about your life these days. Use the LEFT (green) and RIGHT (blue) buttons to move the slider (you can press and hold them to slide gradually) and the TOP (red) button to lock in your response.
Make your rating as accurately and quickly as you can!",,,,0,2,2,2,,,,,,,,,,,,,,,,,,,,,,,,,61.14268133393489,None,61.14268133393489,None,61.14268133393489,None,4,7.953390657610726,61.14268133393489,None,,,,,,,,,,,,,,,,,,,,,,,,,,,,,,,,,,,,,,,,,,,,,,,,,,,,,,,,,,,,,,,,,,,,,,,,,,,,,,,,,,,,,,,,,,,,,,,,,,,,,,,,,,,,,,,,,,,,,,,,,,,,,,,,24138,2019_Sep_03_1156,Mmi_3levels,3.1.5,59.99235972973669,
,,,,,,,,,,,,,,,,,,,,,,,,,,,,,,,,,,,,,,,,,,,,69.11248114489717,None,0.9,10.502795069420245,73.11402859259397,None,None,73.11402859259397,None,,,,,,,,,,,,,,,,,,,,,,,,,,,,,,,,,,,,,,,,,,,,,,,,,,,,,,,,,,,,,,,,,,,,,,,,,,,,,,,,,,,,,,,,,,,,,,,,,,,,,,,,,,,,,,,,,,,,,,,24138,2019_Sep_03_1156,Mmi_3levels,3.1.5,59.99235972973669,
4,black.png,"In this game you can win money by earning points according to your choices. You will decide whether to gamble a number of points or stick with a guaranteed number of points. 
Make your choice by pressing the left or right arrow key once. An example of one trial is shown on the next screen.",,,,,,,,0,0,0,0,,,,,,,,,,,,,,,,,,,,,,,,,,,,,,,,,,,,,,,,79.64989219704876,None,79.64989219704876,None,79.64989219704876,None,4,8.186795112967957,79.64989219704876,None,,,,,,,,,,,,,,,,,,,,,,,,,,,,,,,,,,,,,,,,,,,,,,,,,,,,,,,,,,,,,,,,,,,,,,,,,,,,,,,,,,,,,,,,,,,,,,,,,,,,,,,,,,,,,24138,2019_Sep_03_1156,Mmi_3levels,3.1.5,59.99235972973669,
5,example_start.png,"The GAMBLING OPTION will be shown on the RIGHT SIDE. 
Select this option using the RIGHT (blue) button on your keypad.",,,,,,,,0,1,1,1,,,,,,,,,,,,,,,,,,,,,,,,,,,,,,,,,,,,,,,,87.90310436696745,None,87.90310436696745,None,87.90310436696745,None,4,12.822011515614577,87.90310436696745,None,,,,,,,,,,,,,,,,,,,,,,,,,,,,,,,,,,,,,,,,,,,,,,,,,,,,,,,,,,,,,,,,,,,,,,,,,,,,,,,,,,,,,,,,,,,,,,,,,,,,,,,,,,,,,24138,2019_Sep_03_1156,Mmi_3levels,3.1.5,59.99235972973669,
6,example_gamble.png,"Once you select the gambling choice, the choice you made will remain on the screen.",,,,,,,,0,2,2,2,,,,,,,,,,,,,,,,,,,,,,,,,,,,,,,,,,,,,,,,100.75807434273884,None,100.75807434273884,None,100.75807434273884,None,4,2.8180836991523392,100.75807434273884,None,,,,,,,,,,,,,,,,,,,,,,,,,,,,,,,,,,,,,,,,,,,,,,,,,,,,,,,,,,,,,,,,,,,,,,,,,,,,,,,,,,,,,,,,,,,,,,,,,,,,,,,,,,,,,24138,2019_Sep_03_1156,Mmi_3levels,3.1.5,59.99235972973669,
7,example_win.png,"The outcome you received will then be shown on the screen. In this example , you WON 10 points.",,,,,,,,0,3,3,3,,,,,,,,,,,,,,,,,,,,,,,,,,,,,,,,,,,,,,,,103.60920897778124,None,103.60920897778124,None,103.60920897778124,None,4,3.3182321721687913,103.60920897778124,None,,,,,,,,,,,,,,,,,,,,,,,,,,,,,,,,,,,,,,,,,,,,,,,,,,,,,,,,,,,,,,,,,,,,,,,,,,,,,,,,,,,,,,,,,,,,,,,,,,,,,,,,,,,,,24138,2019_Sep_03_1156,Mmi_3levels,3.1.5,59.99235972973669,
8,example_start.png,"The GUARANTEED OPTION will be shown on the LEFT SIDE. You are 100% guaranteed to gain or lose this amount. In this example, you have a 100% chance of winning 1 point. Select this option using the LEFT (green) button on your keyboard.",,,,,,,,0,4,4,4,,,,,,,,,,,,,,,,,,,,,,,,,,,,,,,,,,,,,,,,106.97721706441371,None,106.97721706441371,None,106.97721706441371,None,4,6.202763006906025,106.97721706441371,None,,,,,,,,,,,,,,,,,,,,,,,,,,,,,,,,,,,,,,,,,,,,,,,,,,,,,,,,,,,,,,,,,,,,,,,,,,,,,,,,,,,,,,,,,,,,,,,,,,,,,,,,,,,,,24138,2019_Sep_03_1156,Mmi_3levels,3.1.5,59.99235972973669,
9,example_certain.png,"Once you select the guaranteed choice, your selection will remain on the screen.",,,,,,,,0,5,5,5,,,,,,,,,,,,,,,,,,,,,,,,,,,,,,,,,,,,,,,,113.21298844920238,None,113.21298844920238,None,113.21298844920238,None,4,1.5508779429947026,113.21298844920238,None,,,,,,,,,,,,,,,,,,,,,,,,,,,,,,,,,,,,,,,,,,,,,,,,,,,,,,,,,,,,,,,,,,,,,,,,,,,,,,,,,,,,,,,,,,,,,,,,,,,,,,,,,,,,,24138,2019_Sep_03_1156,Mmi_3levels,3.1.5,59.99235972973669,
10,black.png,"Please make your choices as fast as possible.
You will be given a break at the end of each block.
Let's play!",,,,,,,,0,6,6,6,,,,,,,,,,,,,,,,,,,,,,,,,,,,,,,,,,,,,,,,114.79689076927025,None,114.79689076927025,None,114.79689076927025,None,4,2.8846642684657127,114.79689076927025,None,,,,,,,,,,,,,,,,,,,,,,,,,,,,,,,,,,,,,,,,,,,,,,,,,,,,,,,,,,,,,,,,,,,,,,,,,,,,,,,,,,,,,,,,,,,,,,,,,,,,,,,,,,,,,24138,2019_Sep_03_1156,Mmi_3levels,3.1.5,59.99235972973669,
,,,,,,,,,,,,,,,,,,,,,,,,,,,,,,,,,,,,,,,,,,,,,,,,,,,,,,,,,,,,,,,117.69801794859814,None,space,33.613343504606746,117.69801794859814,None,,,,,,,,,,,,,,,,,,,,,,,,,,,,,,,,,,,,,,,,,,,,,,,,,,,,,,,,,,,,,,,,,,,,,,,,,,,,,,,,,,,,,,,,,,,,,,,,,,,,,,,24138,2019_Sep_03_1156,Mmi_3levels,3.1.5,59.99235972973669,
,,,1,1,0.1,,,,,,,,,0,0,0,0,0,0,0,25,,,,,,,,,,,,,,,,,,,,,,,,,,,,,,,,,,,,,,,,,,,,,,,,151.3277699665632,None,0.51,7.493950682634022,154.34560081351083,None,None,154.34560081351083,None,158.83071702887537,None,True,True,True,0.51,-0.49,-0.49,7.35,0.1,-7.25,-3.575,gamble,win,0.1,0.1,161.8651835786295,None,161.8651835786295,None,161.8651835786295,None,161.8651835786295,None,161.8651835786295,None,161.8651835786295,None,161.8651835786295,None,None,161.8651835786295,None,164.86640368163353,None,164.86640368163353,None,164.86640368163353,None,164.86640368163353,None,164.86640368163353,None,164.86640368163353,None,164.86640368163353,None,168.86789097212022,None,168.86789097212022,None,168.86789097212022,None,168.86789097212022,None,168.86789097212022,None,168.86789097212022,None,168.86789097212022,None,169.85162613203283,None,,,,,,,,,,,,,,,,,,,,,,,,,,,,,,,24138,2019_Sep_03_1156,Mmi_3levels,3.1.5,59.99235972973669,
,,,1,1,13.7,,,,,,,,,0,0,0,0,0,1,1,12,,,,,,,,,,,,,,,,,,,,,,,,,,,,,,,,,,,,,,,,,,,,,,,,,,,,,,,,,,,True,False,True,0.51,-0.49,-0.98,-1.7966666666666664,13.7,11.903333333333332,5.951666666666666,certain,certain,5.951666666666666,6.051666666666666,171.86907587677706,None,171.86907587677706,None,171.86907587677706,None,171.86907587677706,None,171.86907587677706,None,171.86907587677706,None,171.86907587677706,None,3,171.86907587677706,None,174.50348591711372,None,174.50348591711372,None,174.50348591711372,None,174.50348591711372,None,174.50348591711372,None,174.50348591711372,None,174.50348591711372,None,178.48832374549238,None,178.48832374549238,None,178.48832374549238,None,178.48832374549238,None,178.48832374549238,None,178.48832374549238,None,178.48832374549238,None,179.48870132787852,None,2.6013197463471442,,,,,,,,,,,,,,,,,,,,,,,,,,,,,,24138,2019_Sep_03_1156,Mmi_3levels,3.1.5,59.99235972973669,
,,,1,1,11.9,,,,,,,,,0,0,0,0,0,2,2,16,,,,,,,,,,,,,,,,,,,,,,,,,,,,,,,,,,,,,,,,,,,,,,,,,,,,,,,,,,,True,False,False,0.51,-0.49,-1.47,-1.8375,11.9,10.0625,5.03125,certain,certain,5.03125,11.082916666666666,181.50616099213948,None,181.50616099213948,None,181.50616099213948,None,181.50616099213948,None,181.50616099213948,None,181.50616099213948,None,181.50616099213948,None,3,181.50616099213948,None,184.05714932997944,None,184.05714932997944,None,184.05714932997944,None,184.05714932997944,None,184.05714932997944,None,184.05714932997944,None,184.05714932997944,None,188.05871341691818,None,188.05871341691818,None,188.05871341691818,None,188.05871341691818,None,188.05871341691818,None,188.05871341691818,None,188.05871341691818,None,197.5624018845847,None,2.534555185586214,189.05914283683524,None,190.05952457903186,None,0.64,7.502806908858474,193.06067076546606,None,None,193.06067076546606,None,,,,,,,,,,,,,,,,,,,24138,2019_Sep_03_1156,Mmi_3levels,3.1.5,59.99235972973669,
,,,1,1,6.5,,,,,,,,,0,0,0,0,0,3,3,5,,,,,,,,,,,,,,,,,,,,,,,,,,,,,,,,,,,,,,,,,,,,,,,,,,,,,,,,,,,True,True,False,0.64,-0.36,-1.83,6.87,6.5,-0.3700000000000001,-0.18500000000000005,gamble,win,6.5,17.582916666666666,199.60113319504308,None,199.60113319504308,None,199.60113319504308,None,199.60113319504308,None,199.60113319504308,None,199.60113319504308,None,199.60113319504308,None,1,199.60113319504308,None,201.76408206205815,None,201.76408206205815,None,201.76408206205815,None,201.76408206205815,None,201.76408206205815,None,201.76408206205815,None,201.76408206205815,None,205.7656375094084,None,205.7656375094084,None,205.7656375094084,None,205.7656375094084,None,205.7656375094084,None,205.7656375094084,None,205.7656375094084,None,206.74930803233292,None,2.129886091686785,,,,,,,,,,,,,,,,,,,,,,,,,,,,,,24138,2019_Sep_03_1156,Mmi_3levels,3.1.5,59.99235972973669,
,,,1,1,3.3,,,,,,,,,0,0,0,0,0,4,4,24,,,,,,,,,,,,,,,,,,,,,,,,,,,,,,,,,,,,,,,,,,,,,,,,,,,,,,,,,,,True,False,False,0.64,-0.36,-2.19,-1.4425,3.3,1.8575,0.92875,gamble,lose,1.8575,19.440416666666664,208.76675521722063,None,208.76675521722063,None,208.76675521722063,None,208.76675521722063,None,208.76675521722063,None,208.76675521722063,None,208.76675521722063,None,1,208.76675521722063,None,211.5845717288321,None,211.5845717288321,None,211.5845717288321,None,211.5845717288321,None,211.5845717288321,None,211.5845717288321,None,211.5845717288321,None,215.5694399557542,None,215.5694399557542,None,215.5694399557542,None,215.5694399557542,None,215.5694399557542,None,215.5694399557542,None,215.5694399557542,None,225.07314090285217,None,2.784735177177936,216.5697900194209,None,217.57018360099755,None,0.72,7.502891384938266,220.57136530580465,None,None,220.57136530580465,None,,,,,,,,,,,,,,,,,,,24138,2019_Sep_03_1156,Mmi_3levels,3.1.5,59.99235972973669,
,,,1,1,0.5,,,,,,,,,0,0,0,0,0,5,5,11,,,,,,,,,,,,,,,,,,,,,,,,,,,,,,,,,,,,,,,,,,,,,,,,,,,,,,,,,,,True,True,False,0.72,-0.28,-2.4699999999999998,6.390000000000001,0.5,-5.890000000000001,-2.6950000000000003,gamble,win,0.5,19.940416666666664,227.09053177037276,None,227.09053177037276,None,227.09053177037276,None,227.09053177037276,None,227.09053177037276,None,227.09053177037276,None,227.09053177037276,None,1,227.09053177037276,None,228.50776987697463,None,228.50776987697463,None,228.50776987697463,None,228.50776987697463,None,228.50776987697463,None,228.50776987697463,None,228.50776987697463,None,232.50932628428563,None,232.50932628428563,None,232.50932628428563,None,232.50932628428563,None,232.50932628428563,None,232.50932628428563,None,232.50932628428563,None,233.49303680530284,None,1.3841481325798668,,,,,,,,,,,,,,,,,,,,,,,,,,,,,,24138,2019_Sep_03_1156,Mmi_3levels,3.1.5,59.99235972973669,
,,,1,1,1.5,,,,,,,,,0,0,0,0,0,6,6,19,,,,,,,,,,,,,,,,,,,,,,,,,,,,,,,,,,,,,,,,,,,,,,,,,,,,,,,,,,,True,True,False,0.72,-0.28,-2.75,6.67,1.5,-5.17,-1.835,gamble,win,1.5,21.440416666666664,235.51047343068058,None,235.51047343068058,None,235.51047343068058,None,235.51047343068058,None,235.51047343068058,None,235.51047343068058,None,235.51047343068058,None,1,235.51047343068058,None,236.79436864709714,None,236.79436864709714,None,236.79436864709714,None,236.79436864709714,None,236.79436864709714,None,236.79436864709714,None,236.79436864709714,None,240.77915687777568,None,240.77915687777568,None,240.77915687777568,None,240.77915687777568,None,240.77915687777568,None,240.77915687777568,None,240.77915687777568,None,241.77964229509234,None,1.2508094021468423,,,,,,,,,,,,,,,,,,,,,,,,,,,,,,24138,2019_Sep_03_1156,Mmi_3levels,3.1.5,59.99235972973669,
,,,1,1,0.9,,,,,,,,,0,0,0,0,0,7,7,22,,,,,,,,,,,,,,,,,,,,,,,,,,,,,,,,,,,,,,,,,,,,,,,,,,,,,,,,,,,True,True,True,0.72,-0.28,-3.0300000000000002,6.950000000000001,0.9,-6.050000000000001,-2.575,certain,certain,-2.575,18.865416666666665,243.79702836280921,None,243.79702836280921,None,243.79702836280921,None,243.79702836280921,None,243.79702836280921,None,243.79702836280921,None,243.79702836280921,None,3,243.79702836280921,None,246.51476763008395,None,246.51476763008395,None,246.51476763008395,None,246.51476763008395,None,246.51476763008395,None,246.51476763008395,None,246.51476763008395,None,250.516325317265,None,250.516325317265,None,250.516325317265,None,250.516325317265,None,250.516325317265,None,250.516325317265,None,250.516325317265,None,260.0033499234705,None,2.684654092998244,251.50008831586456,None,252.50043389975326,None,0.58,7.50251380255213,255.50157944619423,None,None,255.50157944619423,None,,,,,,,,,,,,,,,,,,,24138,2019_Sep_03_1156,Mmi_3levels,3.1.5,59.99235972973669,
,,,1,1,7.7,,,,,,,,,0,0,0,0,0,8,8,14,,,,,,,,,,,,,,,,,,,,,,,,,,,,,,,,,,,,,,,,,,,,,,,,,,,,,,,,,,,True,True,True,0.58,-0.42000000000000004,-3.45,9.330000000000002,7.7,-1.6300000000000017,-0.8150000000000008,gamble,win,7.7,26.565416666666664,262.0208473459934,None,262.0208473459934,None,262.0208473459934,None,262.0208473459934,None,262.0208473459934,None,262.0208473459934,None,262.0208473459934,None,1,262.0208473459934,None,263.3713244117098,None,263.3713244117098,None,263.3713244117098,None,263.3713244117098,None,263.3713244117098,None,263.3713244117098,None,263.3713244117098,None,267.3728760192171,None,267.3728760192171,None,267.3728760192171,None,267.3728760192171,None,267.3728760192171,None,267.3728760192171,None,267.3728760192171,None,268.3565942199202,None,1.3173880516551435,,,,,,,,,,,,,,,,,,,,,,,,,,,,,,24138,2019_Sep_03_1156,Mmi_3levels,3.1.5,59.99235972973669,
,,,1,1,11.5,,,,,,,,,0,0,0,0,0,9,9,15,,,,,,,,,,,,,,,,,,,,,,,,,,,,,,,,,,,,,,,,,,,,,,,,,,,,,,,,,,,True,True,False,0.58,-0.42000000000000004,-3.87,9.75,11.5,1.75,0.875,gamble,win,11.5,38.065416666666664,270.3741114815348,None,270.3741114815348,None,270.3741114815348,None,270.3741114815348,None,270.3741114815348,None,270.3741114815348,None,270.3741114815348,None,1,270.3741114815348,None,271.84128613513894,None,271.84128613513894,None,271.84128613513894,None,271.84128613513894,None,271.84128613513894,None,271.84128613513894,None,271.84128613513894,None,275.826166521525,None,275.826166521525,None,275.826166521525,None,275.826166521525,None,275.826166521525,None,275.826166521525,None,275.826166521525,None,285.3298610688653,None,1.434085959510412,276.8265569032519,None,277.8269508048543,None,0.82,7.502852026722394,280.82818978698924,None,None,280.82818978698924,None,,,,,,,,,,,,,,,,,,,24138,2019_Sep_03_1156,Mmi_3levels,3.1.5,59.99235972973669,
,,,1,1,11.3,,,,,,,,,0,0,0,0,0,10,10,13,,,,,,,,,,,,,,,,,,,,,,,,,,,,,,,,,,,,,,,,,,,,,,,,,,,,,,,,,,,True,True,False,0.82,-0.18000000000000005,-4.05,6.57,11.3,4.73,2.365,gamble,win,11.3,49.36541666666666,287.3473130535567,None,287.3473130535567,None,287.3473130535567,None,287.3473130535567,None,287.3473130535567,None,287.3473130535567,None,287.3473130535567,None,1,287.3473130535567,None,288.53114862472285,None,288.53114862472285,None,288.53114862472285,None,288.53114862472285,None,288.53114862472285,None,288.53114862472285,None,288.53114862472285,None,292.53264711471274,None,292.53264711471274,None,292.53264711471274,None,292.53264711471274,None,292.53264711471274,None,292.53264711471274,None,292.53264711471274,None,293.51638227462536,None,1.1507535967975855,,,,,,,,,,,,,,,,,,,,,,,,,,,,,,24138,2019_Sep_03_1156,Mmi_3levels,3.1.5,59.99235972973669,
,,,1,1,3.9,,,,,,,,,0,0,0,0,0,11,11,10,,,,,,,,,,,,,,,,,,,,,,,,,,,,,,,,,,,,,,,,,,,,,,,,,,,,,,,,,,,True,True,True,0.82,-0.18000000000000005,-4.2299999999999995,6.75,3.9,-2.85,0.5249999999999999,gamble,win,3.9,53.26541666666666,295.53382497967687,None,295.53382497967687,None,295.53382497967687,None,295.53382497967687,None,295.53382497967687,None,295.53382497967687,None,295.53382497967687,None,1,295.53382497967687,None,297.11779641656904,None,297.11779641656904,None,297.11779641656904,None,297.11779641656904,None,297.11779641656904,None,297.11779641656904,None,297.11779641656904,None,301.1026368048042,None,301.1026368048042,None,301.1026368048042,None,301.1026368048042,None,301.1026368048042,None,301.1026368048042,None,301.1026368048042,None,310.6063140730257,None,1.550961459055543,302.1030691046035,None,303.10346044634935,None,0.84,7.502779710164759,306.10458871361334,None,None,306.10458871361334,None,,,,,,,,,,,,,,,,,,,24138,2019_Sep_03_1156,Mmi_3levels,3.1.5,59.99235972973669,
,,,1,1,8.1,,,,,,,,,0,0,0,0,0,12,12,20,,,,,,,,,,,,,,,,,,,,,,,,,,,,,,,,,,,,,,,,,,,,,,,,,,,,,,,,,,,True,False,True,0.84,-0.16000000000000003,-4.39,-0.9258333333333333,8.1,7.174166666666666,3.587083333333333,gamble,lose,7.174166666666666,60.439583333333324,312.645089861413,None,312.645089861413,None,312.645089861413,None,312.645089861413,None,312.645089861413,None,312.645089861413,None,312.645089861413,None,1,312.645089861413,None,313.7742585466476,None,313.7742585466476,None,313.7742585466476,None,313.7742585466476,None,313.7742585466476,None,313.7742585466476,None,313.7742585466476,None,317.7591197339352,None,317.7591197339352,None,317.7591197339352,None,317.7591197339352,None,317.7591197339352,None,317.7591197339352,None,317.7591197339352,None,318.7595760325785,None,1.096081271127332,,,,,,,,,,,,,,,,,,,,,,,,,,,,,,24138,2019_Sep_03_1156,Mmi_3levels,3.1.5,59.99235972973669,
,,,1,1,4.7,,,,,,,,,0,0,0,0,0,13,13,26,,,,,,,,,,,,,,,,,,,,,,,,,,,,,,,,,,,,,,,,,,,,,,,,,,,,,,,,,,,True,True,False,0.84,-0.16000000000000003,-4.55,6.79,4.7,-2.09,1.3050000000000002,gamble,win,4.7,65.13958333333332,320.77696434024256,None,320.77696434024256,None,320.77696434024256,None,320.77696434024256,None,320.77696434024256,None,320.77696434024256,None,320.77696434024256,None,1,320.77696434024256,None,322.3943236572086,None,322.3943236572086,None,322.3943236572086,None,322.3943236572086,None,322.3943236572086,None,322.3943236572086,None,322.3943236572086,None,326.3958339866367,None,326.3958339866367,None,326.3958339866367,None,326.3958339866367,None,326.3958339866367,None,326.3958339866367,None,326.3958339866367,None,327.3795304283267,None,1.584269342944026,,,,,,,,,,,,,,,,,,,,,,,,,,,,,,24138,2019_Sep_03_1156,Mmi_3levels,3.1.5,59.99235972973669,
,,,1,1,1.7,,,,,,,,,0,0,0,0,0,14,14,3,,,,,,,,,,,,,,,,,,,,,,,,,,,,,,,,,,,,,,,,,,,,,,,,,,,,,,,,,,,True,True,True,0.84,-0.16000000000000003,-4.71,6.95,1.7,-5.25,-1.775,certain,certain,-1.775,63.36458333333332,329.3970019320841,None,329.3970019320841,None,329.3970019320841,None,329.3970019320841,None,329.3970019320841,None,329.3970019320841,None,329.3970019320841,None,3,329.3970019320841,None,331.7645805987995,None,331.7645805987995,None,331.7645805987995,None,331.7645805987995,None,331.7645805987995,None,331.7645805987995,None,331.7645805987995,None,335.7661408458953,None,335.7661408458953,None,335.7661408458953,None,335.7661408458953,None,335.7661408458953,None,335.7661408458953,None,335.7661408458953,None,345.2531721717678,None,2.334501812059898,336.7498584066052,None,337.75025166821433,None,0.67,7.502726912614889,340.75140233448474,None,None,340.75140233448474,None,,,,,,,,,,,,,,,,,,,24138,2019_Sep_03_1156,Mmi_3levels,3.1.5,59.99235972973669,
,,,1,1,6.1,,,,,,,,,0,0,0,0,0,15,15,0,,,,,,,,,,,,,,,,,,,,,,,,,,,,,,,,,,,,,,,,,,,,,,,,,,,,,,,,,,,True,True,False,0.67,-0.32999999999999996,-5.04,9.66,6.1,-3.5600000000000005,1.2699999999999996,gamble,win,6.1,69.46458333333332,347.2706142368843,None,347.2706142368843,None,347.2706142368843,None,347.2706142368843,None,347.2706142368843,None,347.2706142368843,None,347.2706142368843,None,1,347.2706142368843,None,348.9545947613078,None,348.9545947613078,None,348.9545947613078,None,348.9545947613078,None,348.9545947613078,None,348.9545947613078,None,348.9545947613078,None,352.93953178508673,None,352.93953178508673,None,352.93953178508673,None,352.93953178508673,None,352.93953178508673,None,352.93953178508673,None,352.93953178508673,None,353.9398770489497,None,1.6509110294282436,,,,,,,,,,,,,,,,,,,,,,,,,,,,,,24138,2019_Sep_03_1156,Mmi_3levels,3.1.5,59.99235972973669,
,,,1,1,2.5,,,,,,,,,0,0,0,0,0,16,16,6,,,,,,,,,,,,,,,,,,,,,,,,,,,,,,,,,,,,,,,,,,,,,,,,,,,,,,,,,,,True,False,False,0.67,-0.32999999999999996,-5.37,-1.6024999999999998,2.5,0.8975000000000002,1.69875,gamble,lose,0.8975000000000002,70.36208333333332,355.9573280736222,None,355.9573280736222,None,355.9573280736222,None,355.9573280736222,None,355.9573280736222,None,355.9573280736222,None,355.9573280736222,None,1,355.9573280736222,None,357.6413188375882,None,357.6413188375882,None,357.6413188375882,None,357.6413188375882,None,357.6413188375882,None,357.6413188375882,None,357.6413188375882,None,361.64282340731006,None,361.64282340731006,None,361.64282340731006,None,361.64282340731006,None,361.64282340731006,None,361.64282340731006,None,361.64282340731006,None,371.129892811412,None,1.6509449478471652,362.62659856531536,None,363.6269895870355,None,0.58,7.502857466461137,366.62819273083005,None,None,366.62819273083005,None,,,,,,,,,,,,,,,,,,,24138,2019_Sep_03_1156,Mmi_3levels,3.1.5,59.99235972973669,
,,,1,1,8.5,,,,,,,,,0,0,0,0,0,17,17,23,,,,,,,,,,,,,,,,,,,,,,,,,,,,,,,,,,,,,,,,,,,,,,,,,,,,,,,,,,,True,True,False,0.58,-0.42000000000000004,-5.79,11.670000000000002,8.5,-3.1700000000000017,-1.5850000000000009,gamble,win,8.5,78.86208333333332,373.1686244418379,None,373.1686244418379,None,373.1686244418379,None,373.1686244418379,None,373.1686244418379,None,373.1686244418379,None,373.1686244418379,None,1,373.1686244418379,None,374.5145564399427,None,374.5145564399427,None,374.5145564399427,None,374.5145564399427,None,374.5145564399427,None,374.5145564399427,None,374.5145564399427,None,378.4994265867863,None,378.4994265867863,None,378.4994265867863,None,378.4994265867863,None,378.4994265867863,None,378.4994265867863,None,378.4994265867863,None,379.49981856846716,None,1.3126557926880196,,,,,,,,,,,,,,,,,,,,,,,,,,,,,,24138,2019_Sep_03_1156,Mmi_3levels,3.1.5,59.99235972973669,
,,,1,1,5.9,,,,,,,,,0,0,0,0,0,18,18,2,,,,,,,,,,,,,,,,,,,,,,,,,,,,,,,,,,,,,,,,,,,,,,,,,,,,,,,,,,,True,False,True,0.58,-0.42000000000000004,-6.21,-1.9875000000000003,5.9,3.9125,1.95625,gamble,lose,3.9125,82.77458333333331,381.5173079913948,None,381.5173079913948,None,381.5173079913948,None,381.5173079913948,None,381.5173079913948,None,381.5173079913948,None,381.5173079913948,None,1,381.5173079913948,None,382.75112842727685,None,382.75112842727685,None,382.75112842727685,None,382.75112842727685,None,382.75112842727685,None,382.75112842727685,None,382.75112842727685,None,386.73594929644605,None,386.73594929644605,None,386.73594929644605,None,386.73594929644605,None,386.73594929644605,None,386.73594929644605,None,386.73594929644605,None,387.73635311756516,None,1.2007221422391012,,,,,,,,,,,,,,,,,,,,,,,,,,,,,,24138,2019_Sep_03_1156,Mmi_3levels,3.1.5,59.99235972973669,
,,,1,1,4.3,,,,,,,,,0,0,0,0,0,19,19,4,,,,,,,,,,,,,,,,,,,,,,,,,,,,,,,,,,,,,,,,,,,,,,,,,,,,,,,,,,,True,True,True,0.58,-0.42000000000000004,-6.63,12.510000000000002,4.3,-8.21,-1.9550000000000005,gamble,win,4.3,87.07458333333331,389.75384478038177,None,389.75384478038177,None,389.75384478038177,None,389.75384478038177,None,389.75384478038177,None,389.75384478038177,None,389.75384478038177,None,1,389.75384478038177,None,391.5545504114125,None,391.5545504114125,None,391.5545504114125,None,391.5545504114125,None,391.5545504114125,None,391.5545504114125,None,391.5545504114125,None,395.55610841861926,None,395.55610841861926,None,395.55610841861926,None,395.55610841861926,None,395.55610841861926,None,395.55610841861926,None,395.55610841861926,None,405.0430824671639,None,1.7675801386358216,396.5397751017008,None,397.5401648434927,None,0.68,7.502833787642885,400.5413161496981,None,None,400.5413161496981,None,,,,,,,,,,,,,,,,,,,24138,2019_Sep_03_1156,Mmi_3levels,3.1.5,59.99235972973669,
,,,1,1,10.9,,,,,,,,,0,0,0,0,0,20,20,9,,,,,,,,,,,,,,,,,,,,,,,,,,,,,,,,,,,,,,,,,,,,,,,,,,,,,,,,,,,True,True,True,0.68,-0.31999999999999995,-6.95,11.43,10.9,-0.5299999999999994,-0.2649999999999997,gamble,win,10.9,97.97458333333331,407.0605763698695,None,407.0605763698695,None,407.0605763698695,None,407.0605763698695,None,407.0605763698695,None,407.0605763698695,None,407.0605763698695,None,1,407.0605763698695,None,408.3610868100077,None,408.3610868100077,None,408.3610868100077,None,408.3610868100077,None,408.3610868100077,None,408.3610868100077,None,408.3610868100077,None,412.3625968194683,None,412.3625968194683,None,412.3625968194683,None,412.3625968194683,None,412.3625968194683,None,412.3625968194683,None,412.3625968194683,None,413.34629902092274,None,1.2674233459983952,,,,,,,,,,,,,,,,,,,,,,,,,,,,,,24138,2019_Sep_03_1156,Mmi_3levels,3.1.5,59.99235972973669,
,,,1,1,10.1,,,,,,,,,0,0,0,0,0,21,21,8,,,,,,,,,,,,,,,,,,,,,,,,,,,,,,,,,,,,,,,,,,,,,,,,,,,,,,,,,,,True,True,False,0.68,-0.31999999999999995,-7.2700000000000005,11.75,10.1,-1.6500000000000004,-0.8250000000000002,gamble,win,10.1,108.07458333333331,415.3637558053015,None,415.3637558053015,None,415.3637558053015,None,415.3637558053015,None,415.3637558053015,None,415.3637558053015,None,415.3637558053015,None,1,415.3637558053015,None,416.9310816198704,None,416.9310816198704,None,416.9310816198704,None,416.9310816198704,None,416.9310816198704,None,416.9310816198704,None,416.9310816198704,None,420.93259322922677,None,420.93259322922677,None,420.93259322922677,None,420.93259322922677,None,420.93259322922677,None,420.93259322922677,None,420.93259322922677,None,430.4196357546025,None,1.5342438400839455,421.9162928708247,None,422.91669317206834,None,0.84,7.503259047749452,425.91791583498707,None,None,425.91791583498707,None,,,,,,,,,,,,,,,,,,,24138,2019_Sep_03_1156,Mmi_3levels,3.1.5,59.99235972973669,
,,,1,1,9.1,,,,,,,,,0,0,0,0,0,22,22,17,,,,,,,,,,,,,,,,,,,,,,,,,,,,,,,,,,,,,,,,,,,,,,,,,,,,,,,,,,,True,True,True,0.84,-0.16000000000000003,-7.430000000000001,9.670000000000002,9.1,-0.5700000000000021,-0.28500000000000103,gamble,win,9.1,117.1745833333333,432.458418262715,None,432.458418262715,None,432.458418262715,None,432.458418262715,None,432.458418262715,None,432.458418262715,None,432.458418262715,None,1,432.458418262715,None,433.587524870818,None,433.587524870818,None,433.587524870818,None,433.587524870818,None,433.587524870818,None,433.587524870818,None,433.587524870818,None,437.58906815876253,None,437.58906815876253,None,437.58906815876253,None,437.58906815876253,None,437.58906815876253,None,437.58906815876253,None,437.58906815876253,None,438.57278987928294,None,1.095992315269541,,,,,,,,,,,,,,,,,,,,,,,,,,,,,,24138,2019_Sep_03_1156,Mmi_3levels,3.1.5,59.99235972973669,
,,,1,1,1.3,,,,,,,,,0,0,0,0,0,23,23,1,,,,,,,,,,,,,,,,,,,,,,,,,,,,,,,,,,,,,,,,,,,,,,,,,,,,,,,,,,,True,False,False,0.84,-0.16000000000000003,-7.590000000000001,-1.1925000000000001,1.3,0.10749999999999993,0.70375,gamble,lose,0.10749999999999993,117.2820833333333,440.5902364241774,None,440.5902364241774,None,440.5902364241774,None,440.5902364241774,None,440.5902364241774,None,440.5902364241774,None,440.5902364241774,None,1,440.5902364241774,None,442.12416507903254,None,442.12416507903254,None,442.12416507903254,None,442.12416507903254,None,442.12416507903254,None,442.12416507903254,None,442.12416507903254,None,446.10906210460234,None,446.10906210460234,None,446.10906210460234,None,446.10906210460234,None,446.10906210460234,None,446.10906210460234,None,446.10906210460234,None,455.6127716912888,None,1.50084252061788,447.10941184830153,None,448.10982942878036,None,0.59,7.5028805054025725,451.1109784950968,None,None,451.1109784950968,None,,,,,,,,,,,,,,,,,,,24138,2019_Sep_03_1156,Mmi_3levels,3.1.5,59.99235972973669,
,,,1,1,6.9,,,,,,,,,0,0,0,0,0,24,24,18,,,,,,,,,,,,,,,,,,,,,,,,,,,,,,,,,,,,,,,,,,,,,,,,,,,,,,,,,,,True,False,True,0.59,-0.41000000000000003,-8.0,-2.1016666666666666,6.9,4.798333333333334,2.399166666666667,gamble,lose,4.798333333333334,122.08041666666664,457.63021279644454,None,457.63021279644454,None,457.63021279644454,None,457.63021279644454,None,457.63021279644454,None,457.63021279644454,None,457.63021279644454,None,1,457.63021279644454,None,458.8973340765224,None,458.8973340765224,None,458.8973340765224,None,458.8973340765224,None,458.8973340765224,None,458.8973340765224,None,458.8973340765224,None,462.88224806135986,None,462.88224806135986,None,462.88224806135986,None,462.88224806135986,None,462.88224806135986,None,462.88224806135986,None,462.88224806135986,None,463.8826096444973,None,1.2340293861343525,,,,,,,,,,,,,,,,,,,,,,,,,,,,,,24138,2019_Sep_03_1156,Mmi_3levels,3.1.5,59.99235972973669,
,,,1,1,5.3,,,,,,,,,0,0,0,0,0,25,25,21,,,,,,,,,,,,,,,,,,,,,,,,,,,,,,,,,,,,,,,,,,,,,,,,,,,,,,,,,,,True,True,True,0.59,-0.41000000000000003,-8.41,14.15,5.3,-8.850000000000001,-1.7750000000000008,gamble,win,5.3,127.38041666666663,465.9001256261254,None,465.9001256261254,None,465.9001256261254,None,465.9001256261254,None,465.9001256261254,None,465.9001256261254,None,465.9001256261254,None,1,465.9001256261254,None,467.0838984802831,None,467.0838984802831,None,467.0838984802831,None,467.0838984802831,None,467.0838984802831,None,467.0838984802831,None,467.0838984802831,None,471.06872926896904,None,471.06872926896904,None,471.06872926896904,None,471.06872926896904,None,471.06872926896904,None,471.06872926896904,None,471.06872926896904,None,472.0691170908394,None,1.150682240142487,,,,,,,,,,,,,,,,,,,,,,,,,,,,,,24138,2019_Sep_03_1156,Mmi_3levels,3.1.5,59.99235972973669,
,,,1,1,6.7,,,,,,,,,0,0,0,0,0,26,26,7,,,,,,,,,,,,,,,,,,,,,,,,,,,,,,,,,,,,,,,,,,,,,,,,,,,,,,,,,,,True,True,False,0.59,-0.41000000000000003,-8.82,14.56,6.7,-7.86,-0.5800000000000001,gamble,win,6.7,134.08041666666662,474.0866129134665,None,474.0866129134665,None,474.0866129134665,None,474.0866129134665,None,474.0866129134665,None,474.0866129134665,None,474.0866129134665,None,1,474.0866129134665,None,475.4371424567071,None,475.4371424567071,None,475.4371424567071,None,475.4371424567071,None,475.4371424567071,None,475.4371424567071,None,475.4371424567071,None,479.4386966240709,None,479.4386966240709,None,479.4386966240709,None,479.4386966240709,None,479.4386966240709,None,479.4386966240709,None,479.4386966240709,None,488.9256828320795,None,1.3173941313289106,480.4224052252248,None,481.42277864780044,None,0.79,7.502892664866522,484.42396515235305,None,None,484.42396515235305,None,,,,,,,,,,,,,,,,,,,24138,2019_Sep_03_1156,Mmi_3levels,3.1.5,59.99235972973669,
,,,2,0,5.3,,,,,,,,,0,1,1,1,0,0,0,11,,,,,,,,,,,,,,,,,,,,,,,,,,,,,,,,,,,,,,,,,,,,,,,,497.0122003899887,None,0.74,7.501810475427192,500.0300037182169,None,None,500.0300037182169,None,504.5151228134637,None,False,True,False,0.74,0.74,0.74,-11.1,1.325,-9.775,-4.2250000000000005,gamble,lose,-9.775,124.30541666666662,507.5495960828848,None,507.5495960828848,None,507.5495960828848,None,507.5495960828848,None,507.5495960828848,None,507.5495960828848,None,507.5495960828848,None,1,507.5495960828848,None,510.05056051781867,None,510.05056051781867,None,510.05056051781867,None,510.05056051781867,None,510.05056051781867,None,510.05056051781867,None,510.05056051781867,None,514.0521854019025,None,514.0521854019025,None,514.0521854019025,None,514.0521854019025,None,514.0521854019025,None,514.0521854019025,None,514.0521854019025,None,515.0358405655134,None,2.4678923800820485,,,,,,,,,,,,490.9265279126121,None,4,6.069269083731342,490.9265279126121,None,,,,,,,,,,,,,24138,2019_Sep_03_1156,Mmi_3levels,3.1.5,59.99235972973669,
,,,2,0,11.1,,,,,,,,,0,1,1,1,0,1,1,2,,,,,,,,,,,,,,,,,,,,,,,,,,,,,,,,,,,,,,,,,,,,,,,,,,,,,,,,,,,False,True,False,0.74,0.74,1.48,-11.84,2.775,-9.065,-3.1449999999999996,gamble,lose,-9.065,115.24041666666662,517.0532976699178,None,517.0532976699178,None,517.0532976699178,None,517.0532976699178,None,517.0532976699178,None,517.0532976699178,None,517.0532976699178,None,1,517.0532976699178,None,519.1041506541078,None,519.1041506541078,None,519.1041506541078,None,519.1041506541078,None,519.1041506541078,None,519.1041506541078,None,519.1041506541078,None,523.1056622634642,None,523.1056622634642,None,523.1056622634642,None,523.1056622634642,None,523.1056622634642,None,523.1056622634642,None,523.1056622634642,None,532.5927319875336,None,2.0177713296725415,524.089394223527,None,525.0897798055084,None,0.39,7.502881465363316,528.0909432711196,None,None,528.0909432711196,None,,,,,,,,,,,,,,,,,,,24138,2019_Sep_03_1156,Mmi_3levels,3.1.5,59.99235972973669,
,,,2,0,7.5,,,,,,,,,0,1,1,1,0,2,2,19,,,,,,,,,,,,,,,,,,,,,,,,,,,,,,,,,,,,,,,,,,,,,,,,,,,,,,,,,,,False,False,False,0.39,0.39,1.87,1.5208333333333333,1.875,0.35416666666666674,1.1145833333333335,gamble,win,1.875,117.11541666666662,534.6313887415454,None,534.6313887415454,None,534.6313887415454,None,534.6313887415454,None,534.6313887415454,None,534.6313887415454,None,534.6313887415454,None,1,534.6313887415454,None,535.9439558984013,None,535.9439558984013,None,535.9439558984013,None,535.9439558984013,None,535.9439558984013,None,535.9439558984013,None,535.9439558984013,None,539.9288510041079,None,539.9288510041079,None,539.9288510041079,None,539.9288510041079,None,539.9288510041079,None,539.9288510041079,None,539.9288510041079,None,540.9292599449982,None,1.2795251805800945,,,,,,,,,,,,,,,,,,,,,,,,,,,,,,24138,2019_Sep_03_1156,Mmi_3levels,3.1.5,59.99235972973669,
,,,2,0,11.7,,,,,,,,,0,1,1,1,0,3,3,24,,,,,,,,,,,,,,,,,,,,,,,,,,,,,,,,,,,,,,,,,,,,,,,,,,,,,,,,,,,False,True,False,0.39,0.39,2.2600000000000002,-7.720000000000001,2.925,-4.795000000000001,-0.9350000000000005,certain,certain,-0.9350000000000005,116.18041666666662,542.9467324086581,None,542.9467324086581,None,542.9467324086581,None,542.9467324086581,None,542.9467324086581,None,542.9467324086581,None,542.9467324086581,None,3,542.9467324086581,None,544.880845886888,None,544.880845886888,None,544.880845886888,None,544.880845886888,None,544.880845886888,None,544.880845886888,None,544.880845886888,None,548.8323454328347,None,548.8323454328347,None,548.8323454328347,None,548.8323454328347,None,548.8323454328347,None,548.8323454328347,None,548.8323454328347,None,558.3193684390862,None,1.851006001001224,549.8160201155115,None,550.8164066574536,None,0.5,7.502863866218831,553.8176008416922,None,None,553.8176008416922,None,,,,,,,,,,,,,,,,,,,24138,2019_Sep_03_1156,Mmi_3levels,3.1.5,59.99235972973669,
,,,2,0,1.9,,,,,,,,,0,1,1,1,0,4,4,9,,,,,,,,,,,,,,,,,,,,,,,,,,,,,,,,,,,,,,,,,,,,,,,,,,,,,,,,,,,False,True,True,0.5,0.5,2.7600000000000002,-9.76,0.475,-9.285,-4.405,gamble,lose,-9.285,106.89541666666662,560.3368517822819,None,560.3368517822819,None,560.3368517822819,None,560.3368517822819,None,560.3368517822819,None,560.3368517822819,None,560.3368517822819,None,1,560.3368517822819,None,562.4375945955981,None,562.4375945955981,None,562.4375945955981,None,562.4375945955981,None,562.4375945955981,None,562.4375945955981,None,562.4375945955981,None,566.439222359506,None,566.439222359506,None,566.439222359506,None,566.439222359506,None,566.439222359506,None,566.439222359506,None,566.439222359506,None,567.4228980022017,None,2.0677245159167796,,,,,,,,,,,,,,,,,,,,,,,,,,,,,,24138,2019_Sep_03_1156,Mmi_3levels,3.1.5,59.99235972973669,
,,,2,0,2.7,,,,,,,,,0,1,1,1,0,5,5,17,,,,,,,,,,,,,,,,,,,,,,,,,,,,,,,,,,,,,,,,,,,,,,,,,,,,,,,,,,,False,True,True,0.5,0.5,3.2600000000000002,-10.26,0.675,-9.584999999999999,-4.454999999999999,certain,certain,-4.454999999999999,102.44041666666662,569.4403458270244,None,569.4403458270244,None,569.4403458270244,None,569.4403458270244,None,569.4403458270244,None,569.4403458270244,None,569.4403458270244,None,3,569.4403458270244,None,570.8742090769229,None,570.8742090769229,None,570.8742090769229,None,570.8742090769229,None,570.8742090769229,None,570.8742090769229,None,570.8742090769229,None,574.8758131620125,None,574.8758131620125,None,574.8758131620125,None,574.8758131620125,None,574.8758131620125,None,574.8758131620125,None,574.8758131620125,None,575.8594766452443,None,1.4008260734262876,,,,,,,,,,,,,,,,,,,,,,,,,,,,,,24138,2019_Sep_03_1156,Mmi_3levels,3.1.5,59.99235972973669,
,,,2,0,10.5,,,,,,,,,0,1,1,1,0,6,6,7,,,,,,,,,,,,,,,,,,,,,,,,,,,,,,,,,,,,,,,,,,,,,,,,,,,,,,,,,,,False,True,False,0.5,0.5,3.7600000000000002,-10.76,2.625,-8.135,-2.755,certain,certain,-2.755,99.68541666666663,577.876923830132,None,577.876923830132,None,577.876923830132,None,577.876923830132,None,577.876923830132,None,577.876923830132,None,577.876923830132,None,3,577.876923830132,None,580.1612407868379,None,580.1612407868379,None,580.1612407868379,None,580.1612407868379,None,580.1612407868379,None,580.1612407868379,None,580.1612407868379,None,584.1627559160697,None,584.1627559160697,None,584.1627559160697,None,584.1627559160697,None,584.1627559160697,None,584.1627559160697,None,584.1627559160697,None,593.6497267647646,None,2.2512167431996204,585.1464549176162,None,586.1468126609107,None,0.36,7.50294482242316,589.1480826815823,None,None,589.1480826815823,None,,,,,,,,,,,,,,,,,,,24138,2019_Sep_03_1156,Mmi_3levels,3.1.5,59.99235972973669,
,,,2,0,11.5,,,,,,,,,0,1,1,1,0,7,7,12,,,,,,,,,,,,,,,,,,,,,,,,,,,,,,,,,,,,,,,,,,,,,,,,,,,,,,,,,,,False,True,True,0.36,0.36,4.12,-9.16,2.875,-6.285,-1.705,gamble,lose,-6.285,93.40041666666663,595.6885214322829,None,595.6885214322829,None,595.6885214322829,None,595.6885214322829,None,595.6885214322829,None,595.6885214322829,None,595.6885214322829,None,1,595.6885214322829,None,597.901386687241,None,597.901386687241,None,597.901386687241,None,597.901386687241,None,597.901386687241,None,597.901386687241,None,597.901386687241,None,601.9029411745723,None,601.9029411745723,None,601.9029411745723,None,601.9029411745723,None,601.9029411745723,None,601.9029411745723,None,601.9029411745723,None,602.8867041731719,None,2.1798232786823064,,,,,,,,,,,,,,,,,,,,,,,,,,,,,,24138,2019_Sep_03_1156,Mmi_3levels,3.1.5,59.99235972973669,
,,,2,0,9.1,,,,,,,,,0,1,1,1,0,8,8,8,,,,,,,,,,,,,,,,,,,,,,,,,,,,,,,,,,,,,,,,,,,,,,,,,,,,,,,,,,,False,True,False,0.36,0.36,4.48,-9.52,2.275,-7.244999999999999,-2.4849999999999994,certain,certain,-2.4849999999999994,90.91541666666663,604.9041516780271,None,604.9041516780271,None,604.9041516780271,None,604.9041516780271,None,604.9041516780271,None,604.9041516780271,None,604.9041516780271,None,3,604.9041516780271,None,607.1883211216191,None,607.1883211216191,None,607.1883211216191,None,607.1883211216191,None,607.1883211216191,None,607.1883211216191,None,607.1883211216191,None,611.1898832886363,None,611.1898832886363,None,611.1898832886363,None,611.1898832886363,None,611.1898832886363,None,611.1898832886363,None,611.1898832886363,None,620.676955252653,None,2.251130027230829,612.1736456473009,None,613.1739861113601,None,0.36,7.503245608357247,616.175152136886,None,None,616.175152136886,None,,,,,,,,,,,,,,,,,,,24138,2019_Sep_03_1156,Mmi_3levels,3.1.5,59.99235972973669,
,,,2,0,1.7,,,,,,,,,0,1,1,1,0,9,9,0,,,,,,,,,,,,,,,,,,,,,,,,,,,,,,,,,,,,,,,,,,,,,,,,,,,,,,,,,,,False,True,True,0.36,0.36,4.840000000000001,-9.88,0.425,-9.455,-4.515,gamble,lose,-9.455,81.46041666666663,622.6943982777302,None,622.6943982777302,None,622.6943982777302,None,622.6943982777302,None,622.6943982777302,None,622.6943982777302,None,622.6943982777302,None,1,622.6943982777302,None,624.0115338611649,None,624.0115338611649,None,624.0115338611649,None,624.0115338611649,None,624.0115338611649,None,624.0115338611649,None,624.0115338611649,None,628.0131360262749,None,628.0131360262749,None,628.0131360262749,None,628.0131360262749,None,628.0131360262749,None,628.0131360262749,None,628.0131360262749,None,628.9968110289774,None,1.2838712175143883,,,,,,,,,,,,,,,,,,,,,,,,,,,,,,24138,2019_Sep_03_1156,Mmi_3levels,3.1.5,59.99235972973669,
,,,2,0,0.9,,,,,,,,,0,1,1,1,0,10,10,15,,,,,,,,,,,,,,,,,,,,,,,,,,,,,,,,,,,,,,,,,,,,,,,,,,,,,,,,,,,False,True,False,0.36,0.36,5.200000000000001,-10.240000000000002,0.225,-10.015000000000002,-4.895000000000001,certain,certain,-4.895000000000001,76.56541666666664,631.0143087714678,None,631.0143087714678,None,631.0143087714678,None,631.0143087714678,None,631.0143087714678,None,631.0143087714678,None,631.0143087714678,None,3,631.0143087714678,None,632.6316008915892,None,632.6316008915892,None,632.6316008915892,None,632.6316008915892,None,632.6316008915892,None,632.6316008915892,None,632.6316008915892,None,636.6331121809781,None,636.6331121809781,None,636.6331121809781,None,636.6331121809781,None,636.6331121809781,None,636.6331121809781,None,636.6331121809781,None,637.6168262218707,None,1.5841928665176965,,,,,,,,,,,,,,,,,,,,,,,,,,,,,,24138,2019_Sep_03_1156,Mmi_3levels,3.1.5,59.99235972973669,
,,,2,0,10.3,,,,,,,,,0,1,1,1,0,11,11,26,,,,,,,,,,,,,,,,,,,,,,,,,,,,,,,,,,,,,,,,,,,,,,,,,,,,,,,,,,,False,True,True,0.36,0.36,5.560000000000001,-10.600000000000001,2.575,-8.025000000000002,-2.725000000000001,gamble,lose,-8.025000000000002,68.54041666666663,639.6343230044004,None,639.6343230044004,None,639.6343230044004,None,639.6343230044004,None,639.6343230044004,None,639.6343230044004,None,639.6343230044004,None,None,639.6343230044004,None,642.635496069619,None,642.635496069619,None,642.635496069619,None,642.635496069619,None,642.635496069619,None,642.635496069619,None,642.635496069619,None,646.6370006393408,None,646.6370006393408,None,646.6370006393408,None,646.6370006393408,None,646.6370006393408,None,646.6370006393408,None,646.6370006393408,None,656.1240319652134,None,,647.6207268396392,None,648.6211322607123,None,0.31,7.502904504304752,651.6222746073036,None,None,651.6222746073036,None,,,,,,,,,,,,,,,,,,,24138,2019_Sep_03_1156,Mmi_3levels,3.1.5,59.99235972973669,
,,,2,0,13.7,,,,,,,,,0,1,1,1,0,12,12,6,,,,,,,,,,,,,,,,,,,,,,,,,,,,,,,,,,,,,,,,,,,,,,,,,,,,,,,,,,,False,False,False,0.31,0.31,5.870000000000001,1.5741666666666667,3.425,1.850833333333333,0.9254166666666666,gamble,win,3.425,71.96541666666663,658.1628739905427,None,658.1628739905427,None,658.1628739905427,None,658.1628739905427,None,658.1628739905427,None,658.1628739905427,None,658.1628739905427,None,1,658.1628739905427,None,659.2753253767733,None,659.2753253767733,None,659.2753253767733,None,659.2753253767733,None,659.2753253767733,None,659.2753253767733,None,659.2753253767733,None,663.2601289667655,None,663.2601289667655,None,663.2601289667655,None,663.2601289667655,None,663.2601289667655,None,663.2601289667655,None,663.2601289667655,None,664.2605609465973,None,1.0793358134105802,,,,,,,,,,,,,,,,,,,,,,,,,,,,,,24138,2019_Sep_03_1156,Mmi_3levels,3.1.5,59.99235972973669,
,,,2,0,6.7,,,,,,,,,0,1,1,1,0,13,13,10,,,,,,,,,,,,,,,,,,,,,,,,,,,,,,,,,,,,,,,,,,,,,,,,,,,,,,,,,,,False,True,True,0.31,0.31,6.180000000000001,-10.52,1.675,-8.844999999999999,-3.5849999999999995,gamble,lose,-8.844999999999999,63.12041666666663,666.2779713331838,None,666.2779713331838,None,666.2779713331838,None,666.2779713331838,None,666.2779713331838,None,666.2779713331838,None,666.2779713331838,None,1,666.2779713331838,None,668.1120264461497,None,668.1120264461497,None,668.1120264461497,None,668.1120264461497,None,668.1120264461497,None,668.1120264461497,None,668.1120264461497,None,672.096893073176,None,672.096893073176,None,672.096893073176,None,672.096893073176,None,672.096893073176,None,672.096893073176,None,672.096893073176,None,681.600606819673,None,1.8010080169187859,673.0973196132109,None,674.097687276022,None,0.32,7.502869305957574,677.0988769804826,None,None,677.0988769804826,None,,,,,,,,,,,,,,,,,,,24138,2019_Sep_03_1156,Mmi_3levels,3.1.5,59.99235972973669,
,,,2,0,2.3,,,,,,,,,0,1,1,1,0,14,14,18,,,,,,,,,,,,,,,,,,,,,,,,,,,,,,,,,,,,,,,,,,,,,,,,,,,,,,,,,,,False,False,False,0.32,0.32,6.500000000000001,1.6616666666666668,0.575,-1.086666666666667,-0.25583333333333347,certain,certain,-0.25583333333333347,62.86458333333329,683.6180568843847,None,683.6180568843847,None,683.6180568843847,None,683.6180568843847,None,683.6180568843847,None,683.6180568843847,None,683.6180568843847,None,3,683.6180568843847,None,685.6521714505507,None,685.6521714505507,None,685.6521714505507,None,685.6521714505507,None,685.6521714505507,None,685.6521714505507,None,685.6521714505507,None,689.6537291377899,None,689.6537291377899,None,689.6537291377899,None,689.6537291377899,None,689.6537291377899,None,689.6537291377899,None,689.6537291377899,None,690.6374386988464,None,2.0010751498048194,,,,,,,,,,,,,,,,,,,,,,,,,,,,,,24138,2019_Sep_03_1156,Mmi_3levels,3.1.5,59.99235972973669,
,,,2,0,3.1,,,,,,,,,0,1,1,1,0,15,15,13,,,,,,,,,,,,,,,,,,,,,,,,,,,,,,,,,,,,,,,,,,,,,,,,,,,,,,,,,,,False,True,False,0.32,0.32,6.820000000000001,-11.3,0.775,-10.525,-4.875,certain,certain,-4.875,57.98958333333329,692.6548942033551,None,692.6548942033551,None,692.6548942033551,None,692.6548942033551,None,692.6548942033551,None,692.6548942033551,None,692.6548942033551,None,3,692.6548942033551,None,694.9224519430427,None,694.9224519430427,None,694.9224519430427,None,694.9224519430427,None,694.9224519430427,None,694.9224519430427,None,694.9224519430427,None,698.9240323491977,None,698.9240323491977,None,698.9240323491977,None,698.9240323491977,None,698.9240323491977,None,698.9240323491977,None,698.9240323491977,None,708.411032316566,None,2.234283454308752,699.9077630293323,None,700.908111493045,None,0.42,7.502892984834034,703.9093197565526,None,None,703.9093197565526,None,,,,,,,,,,,,,,,,,,,24138,2019_Sep_03_1156,Mmi_3levels,3.1.5,59.99235972973669,
,,,2,0,10.7,,,,,,,,,0,1,1,1,0,16,16,20,,,,,,,,,,,,,,,,,,,,,,,,,,,,,,,,,,,,,,,,,,,,,,,,,,,,,,,,,,,False,True,False,0.42,0.42,7.240000000000001,-13.120000000000001,2.675,-10.445,-3.8850000000000002,certain,certain,-3.8850000000000002,54.104583333333295,710.4497540274751,None,710.4497540274751,None,710.4497540274751,None,710.4497540274751,None,710.4497540274751,None,710.4497540274751,None,710.4497540274751,None,3,710.4497540274751,None,712.5460032907431,None,712.5460032907431,None,712.5460032907431,None,712.5460032907431,None,712.5460032907431,None,712.5460032907431,None,712.5460032907431,None,716.5475158600602,None,716.5475158600602,None,716.5475158600602,None,716.5475158600602,None,716.5475158600602,None,716.5475158600602,None,716.5475158600602,None,717.5312785386923,None,2.063167608808726,,,,,,,,,,,,,,,,,,,,,,,,,,,,,,24138,2019_Sep_03_1156,Mmi_3levels,3.1.5,59.99235972973669,
,,,2,0,8.9,,,,,,,,,0,1,1,1,0,17,17,25,,,,,,,,,,,,,,,,,,,,,,,,,,,,,,,,,,,,,,,,,,,,,,,,,,,,,,,,,,,False,True,True,0.42,0.42,7.660000000000001,-13.540000000000001,2.225,-11.315000000000001,-4.545000000000001,gamble,lose,-11.315000000000001,42.7895833333333,719.5486841254751,None,719.5486841254751,None,719.5486841254751,None,719.5486841254751,None,719.5486841254751,None,719.5486841254751,None,719.5486841254751,None,1,719.5486841254751,None,721.5495100069093,None,721.5495100069093,None,721.5495100069093,None,721.5495100069093,None,721.5495100069093,None,721.5495100069093,None,721.5495100069093,None,725.5510318558081,None,725.5510318558081,None,725.5510318558081,None,725.5510318558081,None,725.5510318558081,None,725.5510318558081,None,725.5510318558081,None,726.5347826949437,None,1.9677768654655665,,,,,,,,,,,,,,,,,,,,,,,,,,,,,,24138,2019_Sep_03_1156,Mmi_3levels,3.1.5,59.99235972973669,
,,,2,0,4.3,,,,,,,,,0,1,1,1,0,18,18,21,,,,,,,,,,,,,,,,,,,,,,,,,,,,,,,,,,,,,,,,,,,,,,,,,,,,,,,,,,,False,True,False,0.42,0.42,8.080000000000002,-13.96,1.075,-12.885000000000002,-5.905000000000001,certain,certain,-5.905000000000001,36.884583333333296,728.552187321824,None,728.552187321824,None,728.552187321824,None,728.552187321824,None,728.552187321824,None,728.552187321824,None,728.552187321824,None,3,728.552187321824,None,730.1694916013512,None,730.1694916013512,None,730.1694916013512,None,730.1694916013512,None,730.1694916013512,None,730.1694916013512,None,730.1694916013512,None,734.1710694476496,None,734.1710694476496,None,734.1710694476496,None,734.1710694476496,None,734.1710694476496,None,734.1710694476496,None,734.1710694476496,None,743.6581023734761,None,1.5842098257271573,735.1547473301762,None,736.1551825098577,None,0.31,7.502798909205012,739.1563571749721,None,None,739.1563571749721,None,,,,,,,,,,,,,,,,,,,24138,2019_Sep_03_1156,Mmi_3levels,3.1.5,59.99235972973669,
,,,2,0,3.9,,,,,,,,,0,1,1,1,0,19,19,14,,,,,,,,,,,,,,,,,,,,,,,,,,,,,,,,,,,,,,,,,,,,,,,,,,,,,,,,,,,False,False,False,0.31,0.31,8.390000000000002,1.7841666666666667,0.975,-0.8091666666666667,0.08291666666666664,gamble,win,0.975,37.8595833333333,745.6755530781811,None,745.6755530781811,None,745.6755530781811,None,745.6755530781811,None,745.6755530781811,None,745.6755530781811,None,745.6755530781811,None,1,745.6755530781811,None,747.7096775638638,None,747.7096775638638,None,747.7096775638638,None,747.7096775638638,None,747.7096775638638,None,747.7096775638638,None,747.7096775638638,None,751.7112336511491,None,751.7112336511491,None,751.7112336511491,None,751.7112336511491,None,751.7112336511491,None,751.7112336511491,None,751.7112336511491,None,752.6949048140668,None,2.001036431582179,,,,,,,,,,,,,,,,,,,,,,,,,,,,,,24138,2019_Sep_03_1156,Mmi_3levels,3.1.5,59.99235972973669,
,,,2,0,9.7,,,,,,,,,0,1,1,1,0,20,20,4,,,,,,,,,,,,,,,,,,,,,,,,,,,,,,,,,,,,,,,,,,,,,,,,,,,,,,,,,,,False,True,False,0.31,0.31,8.700000000000003,-13.040000000000003,2.425,-10.615000000000002,-4.095000000000001,certain,certain,-4.095000000000001,33.7645833333333,754.7123545588111,None,754.7123545588111,None,754.7123545588111,None,754.7123545588111,None,754.7123545588111,None,754.7123545588111,None,754.7123545588111,None,3,754.7123545588111,None,756.613138714165,None,756.613138714165,None,756.613138714165,None,756.613138714165,None,756.613138714165,None,756.613138714165,None,756.613138714165,None,760.6146986412932,None,760.6146986412932,None,760.6146986412932,None,760.6146986412932,None,760.6146986412932,None,760.6146986412932,None,760.6146986412932,None,770.1016896490473,None,1.8678429743740708,761.5983742839308,None,762.5987835448468,None,0.41,7.5028485069051385,765.5999338910915,None,None,765.5999338910915,None,,,,,,,,,,,,,,,,,,,24138,2019_Sep_03_1156,Mmi_3levels,3.1.5,59.99235972973669,
,,,2,0,0.5,,,,,,,,,0,1,1,1,0,21,21,23,,,,,,,,,,,,,,,,,,,,,,,,,,,,,,,,,,,,,,,,,,,,,,,,,,,,,,,,,,,False,False,False,0.41,0.41,9.110000000000003,2.194166666666667,0.125,-2.069166666666667,-0.9720833333333334,gamble,win,0.125,33.8895833333333,772.1191176348366,None,772.1191176348366,None,772.1191176348366,None,772.1191176348366,None,772.1191176348366,None,772.1191176348366,None,772.1191176348366,None,1,772.1191176348366,None,774.9202120476984,None,774.9202120476984,None,774.9202120476984,None,774.9202120476984,None,774.9202120476984,None,774.9202120476984,None,774.9202120476984,None,778.9218126129126,None,778.9218126129126,None,778.9218126129126,None,778.9218126129126,None,778.9218126129126,None,778.9218126129126,None,778.9218126129126,None,779.9054847357329,None,2.768056916364003,,,,,,,,,,,,,,,,,,,,,,,,,,,,,,24138,2019_Sep_03_1156,Mmi_3levels,3.1.5,59.99235972973669,
,,,2,0,-0.9,,,,,,,,,0,1,1,1,0,22,22,1,,,,,,,,,,,,,,,,,,,,,,,,,,,,,,,,,,,,,,,,,,,,,,,,,,,,,,,,,,,False,True,False,0.41,0.41,9.520000000000003,-15.260000000000002,-0.225,-15.485000000000001,-7.855,gamble,lose,-15.485000000000001,18.4045833333333,781.9229635991505,None,781.9229635991505,None,781.9229635991505,None,781.9229635991505,None,781.9229635991505,None,781.9229635991505,None,781.9229635991505,None,None,781.9229635991505,None,784.9241513836314,None,784.9241513836314,None,784.9241513836314,None,784.9241513836314,None,784.9241513836314,None,784.9241513836314,None,784.9241513836314,None,788.9256690727198,None,788.9256690727198,None,788.9256690727198,None,788.9256690727198,None,788.9256690727198,None,788.9256690727198,None,788.9256690727198,None,798.4126757598133,None,,789.9093715941417,None,790.9097997341305,None,0.19,7.50279666937422,793.9109775991528,None,None,793.9109775991528,None,,,,,,,,,,,,,,,,,,,24138,2019_Sep_03_1156,Mmi_3levels,3.1.5,59.99235972973669,
,,,2,0,10.9,,,,,,,,,0,1,1,1,0,23,23,16,,,,,,,,,,,,,,,,,,,,,,,,,,,,,,,,,,,,,,,,,,,,,,,,,,,,,,,,,,,False,True,True,0.19,0.19,9.710000000000003,-12.370000000000003,2.725,-9.645000000000003,-3.4600000000000017,gamble,lose,-9.645000000000003,8.759583333333296,800.4301575030549,None,800.4301575030549,None,800.4301575030549,None,800.4301575030549,None,800.4301575030549,None,800.4301575030549,None,800.4301575030549,None,1,800.4301575030549,None,801.5139203096624,None,801.5139203096624,None,801.5139203096624,None,801.5139203096624,None,801.5139203096624,None,801.5139203096624,None,801.5139203096624,None,805.5154821566539,None,805.5154821566539,None,805.5154821566539,None,805.5154821566539,None,805.5154821566539,None,805.5154821566539,None,805.5154821566539,None,806.4991565194214,None,1.0504696420393884,,,,,,,,,,,,,,,,,,,,,,,,,,,,,,24138,2019_Sep_03_1156,Mmi_3levels,3.1.5,59.99235972973669,
,,,2,0,-0.1,,,,,,,,,0,1,1,1,0,24,24,22,,,,,,,,,,,,,,,,,,,,,,,,,,,,,,,,,,,,,,,,,,,,,,,,,,,,,,,,,,,False,False,True,0.19,0.19,9.900000000000002,1.4900000000000002,-0.025,-1.5150000000000001,-0.77,gamble,win,-0.025,8.734583333333296,808.5166094640153,None,808.5166094640153,None,808.5166094640153,None,808.5166094640153,None,808.5166094640153,None,808.5166094640153,None,808.5166094640153,None,1,808.5166094640153,None,810.9509360522497,None,810.9509360522497,None,810.9509360522497,None,810.9509360522497,None,810.9509360522497,None,810.9509360522497,None,810.9509360522497,None,814.9524531014031,None,814.9524531014031,None,814.9524531014031,None,814.9524531014031,None,814.9524531014031,None,814.9524531014031,None,814.9524531014031,None,815.9361594626098,None,2.401270532689523,,,,,,,,,,,,,,,,,,,,,,,,,,,,,,24138,2019_Sep_03_1156,Mmi_3levels,3.1.5,59.99235972973669,
,,,2,0,0.7,,,,,,,,,0,1,1,1,0,25,25,3,,,,,,,,,,,,,,,,,,,,,,,,,,,,,,,,,,,,,,,,,,,,,,,,,,,,,,,,,,,False,True,False,0.19,0.19,10.090000000000002,-12.750000000000002,0.175,-12.575000000000001,-6.2,certain,certain,-6.2,2.5345833333332957,817.9536079274258,None,817.9536079274258,None,817.9536079274258,None,817.9536079274258,None,817.9536079274258,None,817.9536079274258,None,817.9536079274258,None,3,817.9536079274258,None,819.8210486805765,None,819.8210486805765,None,819.8210486805765,None,819.8210486805765,None,819.8210486805765,None,819.8210486805765,None,819.8210486805765,None,823.8225954883383,None,823.8225954883383,None,823.8225954883383,None,823.8225954883383,None,823.8225954883383,None,823.8225954883383,None,823.8225954883383,None,833.3096245743218,None,1.834359418717213,824.8063152889372,None,825.8067114304285,None,0.36,7.5028840252780356,828.8078278582543,None,None,828.8078278582543,None,,,,,,,,,,,,,,,,,,,24138,2019_Sep_03_1156,Mmi_3levels,3.1.5,59.99235972973669,
,,,2,0,8.3,,,,,,,,,0,1,1,1,0,26,26,5,,,,,,,,,,,,,,,,,,,,,,,,,,,,,,,,,,,,,,,,,,,,,,,,,,,,,,,,,,,False,True,True,0.36,0.36,10.450000000000001,-15.490000000000002,2.075,-13.415000000000003,-5.670000000000002,certain,certain,-5.670000000000002,-3.135416666666706,835.3483485251782,None,835.3483485251782,None,835.3483485251782,None,835.3483485251782,None,835.3483485251782,None,835.3483485251782,None,835.3483485251782,None,3,835.3483485251782,None,837.311175541894,None,837.311175541894,None,837.311175541894,None,837.311175541894,None,837.311175541894,None,837.311175541894,None,837.311175541894,None,841.3126909910934,None,841.3126909910934,None,841.3126909910934,None,841.3126909910934,None,841.3126909910934,None,841.3126909910934,None,841.3126909910934,None,842.2964354305295,None,1.929751762014348,,,,,,,,,,,,,,,,,,,,,,,,,,,,,,24138,2019_Sep_03_1156,Mmi_3levels,3.1.5,59.99235972973669,
,,,3,1,13.5,,,,,,,,,0,2,2,2,0,0,0,3,,,,,,,,,,,,,,,,,,,,,,,,,,,,,,,,,,,,,,,,,,,,,,,,847.3817204060033,None,0.41,7.502044704451691,850.3996066103573,None,None,850.3996066103573,None,854.8846857075114,None,True,False,True,0.41,-0.5900000000000001,-0.5900000000000001,-2.114166666666667,13.5,11.385833333333332,5.692916666666666,gamble,lose,11.385833333333332,8.250416666666627,857.9192181741237,None,857.9192181741237,None,857.9192181741237,None,857.9192181741237,None,857.9192181741237,None,857.9192181741237,None,857.9192181741237,None,1,857.9192181741237,None,859.9366611992009,None,859.9366611992009,None,859.9366611992009,None,859.9366611992009,None,859.9366611992009,None,859.9366611992009,None,859.9366611992009,None,863.9215137469,None,863.9215137469,None,863.9215137469,None,863.9215137469,None,863.9215137469,None,863.9215137469,None,863.9215137469,None,873.4252201337367,None,1.9843402516562492,864.9218999688164,None,865.9222711515031,None,0.6,7.502891384938266,868.9234512563562,None,None,868.9234512563562,None,844.2972318733227,None,4,3.0681795346317813,844.2972318733227,None,,,,,,,,,,,,,24138,2019_Sep_03_1156,Mmi_3levels,3.1.5,59.99235972973669,
,,,3,1,13.7,,,,,,,,,0,2,2,2,0,1,1,9,,,,,,,,,,,,,,,,,,,,,,,,,,,,,,,,,,,,,,,,,,,,,,,,,,,,,,,,,,,True,True,False,0.6,-0.4,-0.9900000000000001,6.590000000000001,13.7,7.1099999999999985,3.5549999999999993,gamble,win,13.7,21.950416666666626,875.4426781981019,None,875.4426781981019,None,875.4426781981019,None,875.4426781981019,None,875.4426781981019,None,875.4426781981019,None,875.4426781981019,None,1,875.4426781981019,None,876.4263554406934,None,876.4263554406934,None,876.4263554406934,None,876.4263554406934,None,876.4263554406934,None,876.4263554406934,None,876.4263554406934,None,880.4325100331334,None,880.4325100331334,None,880.4325100331334,None,880.4325100331334,None,880.4325100331334,None,880.4325100331334,None,880.4325100331334,None,881.4116159693222,None,0.9506083875894547,,,,,,,,,,,,,,,,,,,,,,,,,,,,,,24138,2019_Sep_03_1156,Mmi_3levels,3.1.5,59.99235972973669,
,,,3,1,3.9,,,,,,,,,0,2,2,2,0,2,2,6,,,,,,,,,,,,,,,,,,,,,,,,,,,,,,,,,,,,,,,,,,,,,,,,,,,,,,,,,,,True,False,True,0.6,-0.4,-1.3900000000000001,-1.5158333333333336,3.9,2.3841666666666663,1.1920833333333332,gamble,lose,2.3841666666666663,24.334583333333292,883.4291274711723,None,883.4291274711723,None,883.4291274711723,None,883.4291274711723,None,883.4291274711723,None,883.4291274711723,None,883.4291274711723,None,1,883.4291274711723,None,885.2464537656633,None,885.2464537656633,None,885.2464537656633,None,885.2464537656633,None,885.2464537656633,None,885.2464537656633,None,885.2464537656633,None,889.231402948848,None,889.231402948848,None,889.231402948848,None,889.231402948848,None,889.231402948848,None,889.231402948848,None,889.231402948848,None,890.2317610121099,None,1.784267359005753,,,,,,,,,,,,,,,,,,,,,,,,,,,,,,24138,2019_Sep_03_1156,Mmi_3levels,3.1.5,59.99235972973669,
,,,3,1,3.3,,,,,,,,,0,2,2,2,0,3,3,18,,,,,,,,,,,,,,,,,,,,,,,,,,,,,,,,,,,,,,,,,,,,,,,,,,,,,,,,,,,True,True,False,0.6,-0.4,-1.79,7.390000000000001,3.3,-4.090000000000001,-0.39500000000000046,gamble,win,3.3,27.634583333333293,892.2492408354883,None,892.2492408354883,None,892.2492408354883,None,892.2492408354883,None,892.2492408354883,None,892.2492408354883,None,892.2492408354883,None,1,892.2492408354883,None,893.799808072974,None,893.799808072974,None,893.799808072974,None,893.799808072974,None,893.799808072974,None,893.799808072974,None,893.799808072974,None,897.8013321617618,None,897.8013321617618,None,897.8013321617618,None,897.8013321617618,None,897.8013321617618,None,897.8013321617618,None,897.8013321617618,None,907.28838492668,None,1.5175067020463757,898.7850302034058,None,899.7854244249756,None,0.67,7.502904504304752,902.7865920503973,None,None,902.7865920503973,None,,,,,,,,,,,,,,,,,,,24138,2019_Sep_03_1156,Mmi_3levels,3.1.5,59.99235972973669,
,,,3,1,12.7,,,,,,,,,0,2,2,2,0,4,4,1,,,,,,,,,,,,,,,,,,,,,,,,,,,,,,,,,,,,,,,,,,,,,,,,,,,,,,,,,,,True,True,True,0.67,-0.32999999999999996,-2.12,6.739999999999999,12.7,5.96,2.98,gamble,win,12.7,40.33458333333329,909.3057959532016,None,909.3057959532016,None,909.3057959532016,None,909.3057959532016,None,909.3057959532016,None,909.3057959532016,None,909.3057959532016,None,1,909.3057959532016,None,910.6896618590108,None,910.6896618590108,None,910.6896618590108,None,910.6896618590108,None,910.6896618590108,None,910.6896618590108,None,910.6896618590108,None,914.6746139220195,None,914.6746139220195,None,914.6746139220195,None,914.6746139220195,None,914.6746139220195,None,914.6746139220195,None,914.6746139220195,None,915.6749345470453,None,1.3508293692721054,,,,,,,,,,,,,,,,,,,,,,,,,,,,,,24138,2019_Sep_03_1156,Mmi_3levels,3.1.5,59.99235972973669,
,,,3,1,13.9,,,,,,,,,0,2,2,2,0,5,5,25,,,,,,,,,,,,,,,,,,,,,,,,,,,,,,,,,,,,,,,,,,,,,,,,,,,,,,,,,,,True,True,False,0.67,-0.32999999999999996,-2.45,7.069999999999999,13.9,6.830000000000001,3.4150000000000005,gamble,win,13.9,54.23458333333329,917.6924284497509,None,917.6924284497509,None,917.6924284497509,None,917.6924284497509,None,917.6924284497509,None,917.6924284497509,None,917.6924284497509,None,1,917.6924284497509,None,919.3097285694676,None,919.3097285694676,None,919.3097285694676,None,919.3097285694676,None,919.3097285694676,None,919.3097285694676,None,919.3097285694676,None,923.29456063814,None,923.29456063814,None,923.29456063814,None,923.29456063814,None,923.29456063814,None,923.29456063814,None,923.29456063814,None,932.7982542255777,None,1.5842437441460788,924.2949529397883,None,925.2953378818347,None,0.79,7.502852666773833,928.2965026273741,None,None,928.2965026273741,None,,,,,,,,,,,,,,,,,,,24138,2019_Sep_03_1156,Mmi_3levels,3.1.5,59.99235972973669,
,,,3,1,7.7,,,,,,,,,0,2,2,2,0,6,6,5,,,,,,,,,,,,,,,,,,,,,,,,,,,,,,,,,,,,,,,,,,,,,,,,,,,,,,,,,,,True,False,False,0.79,-0.20999999999999996,-2.66,-0.9566666666666666,7.7,6.743333333333334,3.371666666666667,gamble,lose,6.743333333333334,60.97791666666662,934.8157481282251,None,934.8157481282251,None,934.8157481282251,None,934.8157481282251,None,934.8157481282251,None,934.8157481282251,None,934.8157481282251,None,1,934.8157481282251,None,935.5826713375864,None,935.5826713375864,None,935.5826713375864,None,935.5826713375864,None,935.5826713375864,None,935.5826713375864,None,935.5826713375864,None,939.5675549238222,None,939.5675549238222,None,939.5675549238222,None,939.5675549238222,None,939.5675549238222,None,939.5675549238222,None,939.5675549238222,None,940.5679225866334,None,0.7338402750319801,,,,,,,,,,,,,,,,,,,,,,,,,,,,,,24138,2019_Sep_03_1156,Mmi_3levels,3.1.5,59.99235972973669,
,,,3,1,6.3,,,,,,,,,0,2,2,2,0,7,7,24,,,,,,,,,,,,,,,,,,,,,,,,,,,,,,,,,,,,,,,,,,,,,,,,,,,,,,,,,,,True,True,False,0.79,-0.20999999999999996,-2.87,5.81,6.3,0.4900000000000002,0.2450000000000001,gamble,win,6.3,67.27791666666663,942.5854408082087,None,942.5854408082087,None,942.5854408082087,None,942.5854408082087,None,942.5854408082087,None,942.5854408082087,None,942.5854408082087,None,1,942.5854408082087,None,943.7858612045529,None,943.7858612045529,None,943.7858612045529,None,943.7858612045529,None,943.7858612045529,None,943.7858612045529,None,943.7858612045529,None,947.7707505505532,None,947.7707505505532,None,947.7707505505532,None,947.7707505505532,None,947.7707505505532,None,947.7707505505532,None,947.7707505505532,None,957.2744393381872,None,1.1673816199181601,948.7711354925414,None,949.7715709921904,None,0.74,7.502846907009371,952.77274181752,None,None,952.77274181752,None,,,,,,,,,,,,,,,,,,,24138,2019_Sep_03_1156,Mmi_3levels,3.1.5,59.99235972973669,
,,,3,1,2.7,,,,,,,,,0,2,2,2,0,8,8,13,,,,,,,,,,,,,,,,,,,,,,,,,,,,,,,,,,,,,,,,,,,,,,,,,,,,,,,,,,,True,True,False,0.74,-0.26,-3.13,6.77,2.7,-4.069999999999999,-0.6849999999999996,gamble,win,2.7,69.97791666666663,959.2919322809321,None,959.2919322809321,None,959.2919322809321,None,959.2919322809321,None,959.2919322809321,None,959.2919322809321,None,959.2919322809321,None,1,959.2919322809321,None,960.5757321417914,None,960.5757321417914,None,960.5757321417914,None,960.5757321417914,None,960.5757321417914,None,960.5757321417914,None,960.5757321417914,None,964.5773240674171,None,964.5773240674171,None,964.5773240674171,None,964.5773240674171,None,964.5773240674171,None,964.5773240674171,None,964.5773240674171,None,965.56102434895,None,1.2507127666613087,,,,,,,,,,,,,,,,,,,,,,,,,,,,,,24138,2019_Sep_03_1156,Mmi_3levels,3.1.5,59.99235972973669,
,,,3,1,10.7,,,,,,,,,0,2,2,2,0,9,9,20,,,,,,,,,,,,,,,,,,,,,,,,,,,,,,,,,,,,,,,,,,,,,,,,,,,,,,,,,,,True,True,True,0.74,-0.26,-3.3899999999999997,7.029999999999999,10.7,3.67,1.835,gamble,win,10.7,80.67791666666663,967.5784481749288,None,967.5784481749288,None,967.5784481749288,None,967.5784481749288,None,967.5784481749288,None,967.5784481749288,None,967.5784481749288,None,1,967.5784481749288,None,968.5788321569562,None,968.5788321569562,None,968.5788321569562,None,968.5788321569562,None,968.5788321569562,None,968.5788321569562,None,968.5788321569562,None,972.5637205429957,None,972.5637205429957,None,972.5637205429957,None,972.5637205429957,None,972.5637205429957,None,972.5637205429957,None,972.5637205429957,None,973.564151242841,None,0.9672930480446666,,,,,,,,,,,,,,,,,,,,,,,,,,,,,,24138,2019_Sep_03_1156,Mmi_3levels,3.1.5,59.99235972973669,
,,,3,1,0.7,,,,,,,,,0,2,2,2,0,10,10,12,,,,,,,,,,,,,,,,,,,,,,,,,,,,,,,,,,,,,,,,,,,,,,,,,,,,,,,,,,,True,True,False,0.74,-0.26,-3.6499999999999995,7.289999999999999,0.7,-6.589999999999999,-2.9449999999999994,gamble,win,0.7,81.37791666666664,975.5815315508517,None,975.5815315508517,None,975.5815315508517,None,975.5815315508517,None,975.5815315508517,None,975.5815315508517,None,975.5815315508517,None,1,975.5815315508517,None,976.8653854891891,None,976.8653854891891,None,976.8653854891891,None,976.8653854891891,None,976.8653854891891,None,976.8653854891891,None,976.8653854891891,None,980.8670001337305,None,980.8670001337305,None,980.8670001337305,None,980.8670001337305,None,980.8670001337305,None,980.8670001337305,None,980.8670001337305,None,990.3539665027056,None,1.2506241308292374,981.8507036151132,None,982.8510466390871,None,0.81,7.502896824677009,985.8522177843843,None,None,985.8522177843843,None,,,,,,,,,,,,,,,,,,,24138,2019_Sep_03_1156,Mmi_3levels,3.1.5,59.99235972973669,
,,,3,1,-1.3,,,,,,,,,0,2,2,2,0,11,11,15,,,,,,,,,,,,,,,,,,,,,,,,,,,,,,,,,,,,,,,,,,,,,,,,,,,,,,,,,,,True,True,False,0.81,-0.18999999999999995,-3.8399999999999994,6.499999999999998,-1.3,-7.799999999999998,-4.549999999999999,gamble,win,-1.3,80.07791666666664,992.392700053053,None,992.392700053053,None,992.392700053053,None,992.392700053053,None,992.392700053053,None,992.392700053053,None,992.392700053053,None,1,992.392700053053,None,994.672357707459,None,994.672357707459,None,994.672357707459,None,994.672357707459,None,994.672357707459,None,994.672357707459,None,994.672357707459,None,998.6738689968479,None,998.6738689968479,None,998.6738689968479,None,998.6738689968479,None,998.6738689968479,None,998.6738689968479,None,998.6738689968479,None,999.6576643139124,None,2.246557120815851,,,,,,,,,,,,,,,,,,,,,,,,,,,,,,24138,2019_Sep_03_1156,Mmi_3levels,3.1.5,59.99235972973669,
,,,3,1,12.5,,,,,,,,,0,2,2,2,0,12,12,10,,,,,,,,,,,,,,,,,,,,,,,,,,,,,,,,,,,,,,,,,,,,,,,,,,,,,,,,,,,True,True,False,0.81,-0.18999999999999995,-4.029999999999999,6.689999999999999,12.5,5.810000000000001,2.9050000000000007,gamble,win,12.5,92.57791666666664,1001.6750811001984,None,1001.6750811001984,None,1001.6750811001984,None,1001.6750811001984,None,1001.6750811001984,None,1001.6750811001984,None,1001.6750811001984,None,1,1001.6750811001984,None,1002.6920921454439,None,1002.6920921454439,None,1002.6920921454439,None,1002.6920921454439,None,1002.6920921454439,None,1002.6920921454439,None,1002.6920921454439,None,1006.6770227695233,None,1006.6770227695233,None,1006.6770227695233,None,1006.6770227695233,None,1006.6770227695233,None,1006.6770227695233,None,1006.6770227695233,None,1016.1807198767783,None,0.9839239511056803,1007.6773686733213,None,1008.6777590551064,None,0.88,7.502904824272264,1011.6789465196198,None,None,1011.6789465196198,None,,,,,,,,,,,,,,,,,,,24138,2019_Sep_03_1156,Mmi_3levels,3.1.5,59.99235972973669,
,,,3,1,6.7,,,,,,,,,0,2,2,2,0,13,13,17,,,,,,,,,,,,,,,,,,,,,,,,,,,,,,,,,,,,,,,,,,,,,,,,,,,,,,,,,,,True,False,True,0.88,-0.12,-4.1499999999999995,-0.7658333333333333,6.7,5.934166666666667,2.9670833333333335,gamble,lose,5.934166666666667,98.51208333333331,1018.2648685853346,None,1018.2648685853346,None,1018.2648685853346,None,1018.2648685853346,None,1018.2648685853346,None,1018.2648685853346,None,1018.2648685853346,None,1,1018.2648685853346,None,1019.2652544872835,None,1019.2652544872835,None,1019.2652544872835,None,1019.2652544872835,None,1019.2652544872835,None,1019.2652544872835,None,1019.2652544872835,None,1023.2667596969986,None,1023.2667596969986,None,1023.2667596969986,None,1023.2667596969986,None,1023.2667596969986,None,1023.2667596969986,None,1023.2667596969986,None,1024.250479817565,None,0.9673436057055369,,,,,,,,,,,,,,,,,,,,,,,,,,,,,,24138,2019_Sep_03_1156,Mmi_3levels,3.1.5,59.99235972973669,
,,,3,1,12.1,,,,,,,,,0,2,2,2,0,14,14,23,,,,,,,,,,,,,,,,,,,,,,,,,,,,,,,,,,,,,,,,,,,,,,,,,,,,,,,,,,,True,True,False,0.88,-0.12,-4.27,5.949999999999999,12.1,6.15,3.075,gamble,win,12.1,110.6120833333333,1026.267940441845,None,1026.267940441845,None,1026.267940441845,None,1026.267940441845,None,1026.267940441845,None,1026.267940441845,None,1026.267940441845,None,1,1026.267940441845,None,1027.401724271418,None,1027.401724271418,None,1027.401724271418,None,1027.401724271418,None,1027.401724271418,None,1027.401724271418,None,1027.401724271418,None,1031.4032857985003,None,1031.4032857985003,None,1031.4032857985003,None,1031.4032857985003,None,1031.4032857985003,None,1031.4032857985003,None,1031.4032857985003,None,1032.3869716806803,None,1.1006925756228156,,,,,,,,,,,,,,,,,,,,,,,,,,,,,,24138,2019_Sep_03_1156,Mmi_3levels,3.1.5,59.99235972973669,
,,,3,1,10.3,,,,,,,,,0,2,2,2,0,15,15,21,,,,,,,,,,,,,,,,,,,,,,,,,,,,,,,,,,,,,,,,,,,,,,,,,,,,,,,,,,,True,True,True,0.88,-0.12,-4.39,6.069999999999999,10.3,4.230000000000001,2.1150000000000007,gamble,win,10.3,120.9120833333333,1034.4044252652675,None,1034.4044252652675,None,1034.4044252652675,None,1034.4044252652675,None,1034.4044252652675,None,1034.4044252652675,None,1034.4044252652675,None,1,1034.4044252652675,None,1035.388139306102,None,1035.388139306102,None,1035.388139306102,None,1035.388139306102,None,1035.388139306102,None,1035.388139306102,None,1035.388139306102,None,1039.3896915536025,None,1039.3896915536025,None,1039.3896915536025,None,1039.3896915536025,None,1039.3896915536025,None,1039.3896915536025,None,1039.3896915536025,None,1048.8767606377369,None,0.9506826240685768,1040.373479511065,None,1041.3738001360325,None,0.84,7.502884985238779,1044.3749802409438,None,None,1044.3749802409438,None,,,,,,,,,,,,,,,,,,,24138,2019_Sep_03_1156,Mmi_3levels,3.1.5,59.99235972973669,
,,,3,1,1.1,,,,,,,,,0,2,2,2,0,16,16,0,,,,,,,,,,,,,,,,,,,,,,,,,,,,,,,,,,,,,,,,,,,,,,,,,,,,,,,,,,,True,True,False,0.84,-0.16000000000000003,-4.55,6.79,1.1,-5.6899999999999995,-2.295,gamble,win,1.1,122.0120833333333,1050.894166224578,None,1050.894166224578,None,1050.894166224578,None,1050.894166224578,None,1050.894166224578,None,1050.894166224578,None,1050.894166224578,None,1,1050.894166224578,None,1052.9616417920915,None,1052.9616417920915,None,1052.9616417920915,None,1052.9616417920915,None,1052.9616417920915,None,1052.9616417920915,None,1052.9616417920915,None,1056.9465164187714,None,1056.9465164187714,None,1056.9465164187714,None,1056.9465164187714,None,1056.9465164187714,None,1056.9465164187714,None,1056.9465164187714,None,1057.9469419988454,None,2.034434551198501,,,,,,,,,,,,,,,,,,,,,,,,,,,,,,24138,2019_Sep_03_1156,Mmi_3levels,3.1.5,59.99235972973669,
,,,3,1,4.7,,,,,,,,,0,2,2,2,0,17,17,11,,,,,,,,,,,,,,,,,,,,,,,,,,,,,,,,,,,,,,,,,,,,,,,,,,,,,,,,,,,True,True,True,0.84,-0.16000000000000003,-4.71,6.95,4.7,-2.25,1.225,gamble,win,4.7,126.7120833333333,1059.9643597450922,None,1059.9643597450922,None,1059.9643597450922,None,1059.9643597450922,None,1059.9643597450922,None,1059.9643597450922,None,1059.9643597450922,None,1,1059.9643597450922,None,1062.0151621716213,None,1062.0151621716213,None,1062.0151621716213,None,1062.0151621716213,None,1062.0151621716213,None,1062.0151621716213,None,1062.0151621716213,None,1066.0167137791286,None,1066.0167137791286,None,1066.0167137791286,None,1066.0167137791286,None,1066.0167137791286,None,1066.0167137791286,None,1066.0167137791286,None,1075.5037307057064,None,2.0177425310830586,1067.0004575786297,None,1068.000913237338,None,0.77,7.502812028629705,1071.0019848672673,None,None,1071.0019848672673,None,,,,,,,,,,,,,,,,,,,24138,2019_Sep_03_1156,Mmi_3levels,3.1.5,59.99235972973669,
,,,3,1,1.7,,,,,,,,,0,2,2,2,0,18,18,8,,,,,,,,,,,,,,,,,,,,,,,,,,,,,,,,,,,,,,,,,,,,,,,,,,,,,,,,,,,True,True,False,0.77,-0.22999999999999998,-4.9399999999999995,8.16,1.7,-6.46,-2.38,gamble,win,1.7,128.4120833333333,1077.5212284481968,None,1077.5212284481968,None,1077.5212284481968,None,1077.5212284481968,None,1077.5212284481968,None,1077.5212284481968,None,1077.5212284481968,None,1,1077.5212284481968,None,1080.0889001665637,None,1080.0889001665637,None,1080.0889001665637,None,1080.0889001665637,None,1080.0889001665637,None,1080.0889001665637,None,1080.0889001665637,None,1084.090402816364,None,1084.090402816364,None,1084.090402816364,None,1084.090402816364,None,1084.090402816364,None,1084.090402816364,None,1084.090402816364,None,1085.0741200571065,None,2.5345855841296725,,,,,,,,,,,,,,,,,,,,,,,,,,,,,,24138,2019_Sep_03_1156,Mmi_3levels,3.1.5,59.99235972973669,
,,,3,1,11.5,,,,,,,,,0,2,2,2,0,19,19,14,,,,,,,,,,,,,,,,,,,,,,,,,,,,,,,,,,,,,,,,,,,,,,,,,,,,,,,,,,,True,False,False,0.77,-0.22999999999999998,-5.17,-1.2358333333333333,11.5,10.264166666666666,5.132083333333333,gamble,lose,10.264166666666666,138.67624999999995,1087.0916193995508,None,1087.0916193995508,None,1087.0916193995508,None,1087.0916193995508,None,1087.0916193995508,None,1087.0916193995508,None,1087.0916193995508,None,1,1087.0916193995508,None,1088.0419890782796,None,1088.0419890782796,None,1088.0419890782796,None,1088.0419890782796,None,1088.0419890782796,None,1088.0419890782796,None,1088.0419890782796,None,1092.0435957232257,None,1092.0435957232257,None,1092.0435957232257,None,1092.0435957232257,None,1092.0435957232257,None,1092.0435957232257,None,1092.0435957232257,None,1101.530621289392,None,0.9172694651642814,1093.0272659261245,None,1094.0276044703205,None,0.86,7.502888825023547,1097.028774655657,None,None,1097.028774655657,None,,,,,,,,,,,,,,,,,,,24138,2019_Sep_03_1156,Mmi_3levels,3.1.5,59.99235972973669,
,,,3,1,5.1,,,,,,,,,0,2,2,2,0,20,20,2,,,,,,,,,,,,,,,,,,,,,,,,,,,,,,,,,,,,,,,,,,,,,,,,,,,,,,,,,,,True,True,True,0.86,-0.14,-5.31,7.27,5.1,-2.17,1.4649999999999999,gamble,win,5.1,143.77624999999995,1103.548019196547,None,1103.548019196547,None,1103.548019196547,None,1103.548019196547,None,1103.548019196547,None,1103.548019196547,None,1103.548019196547,None,1,1103.548019196547,None,1104.8651435804786,None,1104.8651435804786,None,1104.8651435804786,None,1104.8651435804786,None,1104.8651435804786,None,1104.8651435804786,None,1104.8651435804786,None,1108.8500777243753,None,1108.8500777243753,None,1108.8500777243753,None,1108.8500777243753,None,1108.8500777243753,None,1108.8500777243753,None,1108.8500777243753,None,1109.8504681061022,None,1.2840363298309967,,,,,,,,,,,,,,,,,,,,,,,,,,,,,,24138,2019_Sep_03_1156,Mmi_3levels,3.1.5,59.99235972973669,
,,,3,1,0.9,,,,,,,,,0,2,2,2,0,21,21,19,,,,,,,,,,,,,,,,,,,,,,,,,,,,,,,,,,,,,,,,,,,,,,,,,,,,,,,,,,,True,True,False,0.86,-0.14,-5.449999999999999,7.409999999999999,0.9,-6.509999999999999,-2.8049999999999993,gamble,win,0.9,144.67624999999995,1111.86791529099,None,1111.86791529099,None,1111.86791529099,None,1111.86791529099,None,1111.86791529099,None,1111.86791529099,None,1111.86791529099,None,None,1111.86791529099,None,1114.8690397184691,None,1114.8690397184691,None,1114.8690397184691,None,1114.8690397184691,None,1114.8690397184691,None,1114.8690397184691,None,1114.8690397184691,None,1118.8706172447419,None,1118.8706172447419,None,1118.8706172447419,None,1118.8706172447419,None,1118.8706172447419,None,1118.8706172447419,None,1118.8706172447419,None,1119.8543172063073,None,,,,,,,,,,,,,,,,,,,,,,,,,,,,,,,24138,2019_Sep_03_1156,Mmi_3levels,3.1.5,59.99235972973669,
,,,3,1,0.3,,,,,,,,,0,2,2,2,0,22,22,4,,,,,,,,,,,,,,,,,,,,,,,,,,,,,,,,,,,,,,,,,,,,,,,,,,,,,,,,,,,True,True,False,0.86,-0.14,-5.589999999999999,7.549999999999999,0.3,-7.249999999999999,-3.4749999999999996,certain,certain,-3.4749999999999996,141.20124999999996,1121.8717979895882,None,1121.8717979895882,None,1121.8717979895882,None,1121.8717979895882,None,1121.8717979895882,None,1121.8717979895882,None,1121.8717979895882,None,3,1121.8717979895882,None,1124.322757400747,None,1124.322757400747,None,1124.322757400747,None,1124.322757400747,None,1124.322757400747,None,1124.322757400747,None,1124.322757400747,None,1128.3243112482014,None,1128.3243112482014,None,1128.3243112482014,None,1128.3243112482014,None,1128.3243112482014,None,1128.3243112482014,None,1128.3243112482014,None,1137.8113284947467,None,2.4178639973397367,1129.3079993702704,None,1130.3083695929963,None,0.72,7.502911223971751,1133.3095407382352,None,None,1133.3095407382352,None,,,,,,,,,,,,,,,,,,,24138,2019_Sep_03_1156,Mmi_3levels,3.1.5,59.99235972973669,
,,,3,1,10.5,,,,,,,,,0,2,2,2,0,23,23,16,,,,,,,,,,,,,,,,,,,,,,,,,,,,,,,,,,,,,,,,,,,,,,,,,,,,,,,,,,,True,True,True,0.72,-0.28,-5.869999999999999,9.79,10.5,0.7100000000000009,0.3550000000000004,gamble,win,10.5,151.70124999999996,1139.850035806303,None,1139.850035806303,None,1139.850035806303,None,1139.850035806303,None,1139.850035806303,None,1139.850035806303,None,1139.850035806303,None,1,1139.850035806303,None,1140.795813059609,None,1140.795813059609,None,1140.795813059609,None,1140.795813059609,None,1140.795813059609,None,1140.795813059609,None,1140.795813059609,None,1144.7807024056092,None,1144.7807024056092,None,1144.7807024056092,None,1144.7807024056092,None,1144.7807024056092,None,1144.7807024056092,None,1144.7807024056092,None,1145.781053749146,None,0.9173046635114588,,,,,,,,,,,,,,,,,,,,,,,,,,,,,,24138,2019_Sep_03_1156,Mmi_3levels,3.1.5,59.99235972973669,
,,,3,1,-1.5,,,,,,,,,0,2,2,2,0,24,24,7,,,,,,,,,,,,,,,,,,,,,,,,,,,,,,,,,,,,,,,,,,,,,,,,,,,,,,,,,,,True,True,True,0.72,-0.28,-6.1499999999999995,10.07,-1.5,-11.57,-6.535,gamble,win,-1.5,150.20124999999996,1147.7985050938441,None,1147.7985050938441,None,1147.7985050938441,None,1147.7985050938441,None,1147.7985050938441,None,1147.7985050938441,None,1147.7985050938441,None,1,1147.7985050938441,None,1149.899381980882,None,1149.899381980882,None,1149.899381980882,None,1149.899381980882,None,1149.899381980882,None,1149.899381980882,None,1149.899381980882,None,1153.9008779109572,None,1153.9008779109572,None,1153.9008779109572,None,1153.9008779109572,None,1153.9008779109572,None,1153.9008779109572,None,1153.9008779109572,None,1163.387948915013,None,2.068316808261443,1154.8846034713206,None,1155.885029691388,None,0.83,7.502865786140319,1158.886160198599,None,None,1158.886160198599,None,,,,,,,,,,,,,,,,,,,24138,2019_Sep_03_1156,Mmi_3levels,3.1.5,59.99235972973669,
,,,3,1,0.5,,,,,,,,,0,2,2,2,0,25,25,22,,,,,,,,,,,,,,,,,,,,,,,,,,,,,,,,,,,,,,,,,,,,,,,,,,,,,,,,,,,True,True,False,0.83,-0.17000000000000004,-6.319999999999999,8.7,0.5,-8.2,-3.8499999999999996,gamble,win,0.5,150.70124999999996,1165.4053724210244,None,1165.4053724210244,None,1165.4053724210244,None,1165.4053724210244,None,1165.4053724210244,None,1165.4053724210244,None,1165.4053724210244,None,1,1165.4053724210244,None,1168.0563778460491,None,1168.0563778460491,None,1168.0563778460491,None,1168.0563778460491,None,1168.0563778460491,None,1168.0563778460491,None,1168.0563778460491,None,1172.0412723117624,None,1172.0412723117624,None,1172.0412723117624,None,1172.0412723117624,None,1172.0412723117624,None,1172.0412723117624,None,1172.0412723117624,None,1173.041699811758,None,2.617952569271438,,,,,,,,,,,,,,,,,,,,,,,,,,,,,,24138,2019_Sep_03_1156,Mmi_3levels,3.1.5,59.99235972973669,
,,,3,1,9.7,,,,,,,,,0,2,2,2,0,26,26,26,,,,,,,,,,,,,,,,,,,,,,,,,,,,,,,,,,,,,,,,,,,,,,,,,,,,,,,,,,,True,True,True,0.83,-0.17000000000000004,-6.489999999999999,8.870000000000001,9.7,0.8299999999999983,0.41499999999999915,gamble,win,9.7,160.40124999999995,1175.059103798645,None,1175.059103798645,None,1175.059103798645,None,1175.059103798645,None,1175.059103798645,None,1175.059103798645,None,1175.059103798645,None,1,1175.059103798645,None,1176.1595746246749,None,1176.1595746246749,None,1176.1595746246749,None,1176.1595746246749,None,1176.1595746246749,None,1176.1595746246749,None,1176.1595746246749,None,1180.1444601308322,None,1180.1444601308322,None,1180.1444601308322,None,1180.1444601308322,None,1180.1444601308322,None,1180.1444601308322,None,1180.1444601308322,None,1189.6481524383416,None,1.0673542931908742,1181.1447989949957,None,1182.1452364145662,None,0.82,7.502979060809594,1185.1509948655148,None,None,1185.1509948655148,None,,,,,,,,,,,,,,,,,,,24138,2019_Sep_03_1156,Mmi_3levels,3.1.5,59.99235972973669,
,,,,,,,,,,,,,,,,,,,,,,,,,,,,,,0,0,0,0,,,,,,,,,,,,,,,,,,,,,,,,,,,,,,,,,,,,,,,,,,,,,,,,,,,,,,,,,,,,,,,,,,,,,,,,,,,,,,,,,,,,,,,,,,,,,,,,,,,,,,,,,,,,,,,,,,,,,,,,1191.6489127227687,None,4,3.134787942748517,1191.6489127227687,None,160.40124999999995,4,1194.8001565366867,None,1194.8001565366867,None,1194.8001565366867,None,4,5.752476204361301,1194.8001565366867,None,24138,2019_Sep_03_1156,Mmi_3levels,3.1.5,59.99235972973669,
