currSlide,currImage,currText,blockNum,targetHappiness,highAmount,instructionLoop1.thisRepN,instructionLoop1.thisTrialN,instructionLoop1.thisN,instructionLoop1.thisIndex,instructionLoop2.thisRepN,instructionLoop2.thisTrialN,instructionLoop2.thisN,instructionLoop2.thisIndex,blockLoop.thisRepN,blockLoop.thisTrialN,blockLoop.thisN,blockLoop.thisIndex,trialLoop.thisRepN,trialLoop.thisTrialN,trialLoop.thisN,trialLoop.thisIndex,doRatingLoop.thisRepN,doRatingLoop.thisTrialN,doRatingLoop.thisN,doRatingLoop.thisIndex,trialHappyLoop.thisRepN,trialHappyLoop.thisTrialN,trialHappyLoop.thisN,trialHappyLoop.thisIndex,logWinningsLoop.thisRepN,logWinningsLoop.thisTrialN,logWinningsLoop.thisN,logWinningsLoop.thisIndex,instrImage.started,instrImage.stopped,instrText.started,instrText.stopped,instrContinueText.started,instrContinueText.stopped,instrKeyResp.keys,instrKeyResp.rt,instrKeyResp.started,instrKeyResp.stopped,lifeHappyText.started,lifeHappyText.stopped,lifeHappySlider.response,lifeHappySlider.rt,lifeHappySlider.started,lifeHappySlider.stopped,lifeHappyResp.keys,lifeHappyResp.rt,lifeHappyResp.started,lifeHappyResp.stopped,instrImage_2.started,instrImage_2.stopped,instrText_2.started,instrText_2.stopped,instrContinueText_2.started,instrContinueText_2.stopped,instrKeyResp_2.keys,instrKeyResp_2.rt,instrKeyResp_2.started,instrKeyResp_2.stopped,localizing.started,localizing.stopped,start_exp.keys,start_exp.rt,start_exp.started,start_exp.stopped,blockHappyText.started,blockHappyText.stopped,blockHappySlider.response,blockHappySlider.rt,blockHappySlider.started,blockHappySlider.stopped,blockHappyResp.keys,blockHappyResp.rt,blockHappyResp.started,blockHappyResp.stopped,blankText.started,blankText.stopped,isHappyBlock,isCongruent,isWinOnTop,lastHappyRating,diff,sumDiff,RPE,winAmount,loseAmount,certainAmount,choice,outcome,outcomeAmount,currentWinnings,fixCross.started,fixCross.stopped,certainBox.started,certainBox.stopped,outcome1Box.started,outcome1Box.stopped,outcome2Box.started,outcome2Box.stopped,certainText.started,certainText.stopped,outcome1Text.started,outcome1Text.stopped,outcome2Text.started,outcome2Text.stopped,choiceKey.keys,choiceKey.rt,choiceKey.started,choiceKey.stopped,fixCross_2.started,fixCross_2.stopped,certainBox_2.started,certainBox_2.stopped,outcome1Box_2.started,outcome1Box_2.stopped,outcome2Box_2.started,outcome2Box_2.stopped,certainText_2.started,certainText_2.stopped,outcome1Text_2.started,outcome1Text_2.stopped,outcome2Text_2.started,outcome2Text_2.stopped,fixCross_3.started,fixCross_3.stopped,certainBox_3.started,certainBox_3.stopped,outcome1Box_3.started,outcome1Box_3.stopped,outcome2Box_3.started,outcome2Box_3.stopped,certainText_3.started,certainText_3.stopped,outcome1Text_3.started,outcome1Text_3.stopped,outcome2Text_3.started,outcome2Text_3.stopped,fixCross_ITI.started,fixCross_ITI.stopped,fixCross_ISI.started,fixCross_ISI.stopped,happyText.started,happyText.stopped,happySlider.response,happySlider.rt,happySlider.started,happySlider.stopped,happyResp.keys,happyResp.started,happyResp.stopped,endOfBlockText.started,endOfBlockText.stopped,restKeyResp.keys,restKeyResp.rt,restKeyResp.started,restKeyResp.stopped,finalWinnings,cashBonus,goodbyeText.started,goodbyeText.stopped,finalWinningsText.started,finalWinningsText.stopped,spaceToContinue.started,spaceToContinue.stopped,goodbyeKeyResp_2.keys,goodbyeKeyResp_2.rt,goodbyeKeyResp_2.started,goodbyeKeyResp_2.stopped,participant,date,expName,psychopyVersion,frameRate,
1,black.png,"Welcome! You are about to play our gambling task.
This task has 3 blocks and takes about 15 minutes.",,,,0,0,0,0,,,,,,,,,,,,,,,,,,,,,,,,,11.865322883066256,None,11.865322883066256,None,11.865322883066256,None,4,3.2181718288338743,11.865322883066256,None,,,,,,,,,,,,,,,,,,,,,,,,,,,,,,,,,,,,,,,,,,,,,,,,,,,,,,,,,,,,,,,,,,,,,,,,,,,,,,,,,,,,,,,,,,,,,,,,,,,,,,,,,,,,,,,,,,,,,,,,,,,,,,,,,,21111,2019_Dec_16_1227,Mmi_3levels,3.1.5,59.98172808580886,
2,black.png,"In this game, you may win or lose points. Your goal is to get as many points as possible. These points will be converted to a cash bonus at the end.
Sometimes we will ask you to rate your mood.",,,,0,1,1,1,,,,,,,,,,,,,,,,,,,,,,,,,15.11660121922614,None,15.11660121922614,None,15.11660121922614,None,4,8.854837966500781,15.11660121922614,None,,,,,,,,,,,,,,,,,,,,,,,,,,,,,,,,,,,,,,,,,,,,,,,,,,,,,,,,,,,,,,,,,,,,,,,,,,,,,,,,,,,,,,,,,,,,,,,,,,,,,,,,,,,,,,,,,,,,,,,,,,,,,,,,,,21111,2019_Dec_16_1227,Mmi_3levels,3.1.5,59.98172808580886,
3,black.png,"On the next screen, please rate how you feel about your life these days. Use the LEFT (green) and RIGHT (blue) buttons to move the slider (you can press and hold them to slide gradually) and the TOP (red) button to lock in your response.
Make your rating as accurately and quickly as you can!",,,,0,2,2,2,,,,,,,,,,,,,,,,,,,,,,,,,24.02122390049044,None,24.02122390049044,None,24.02122390049044,None,4,7.052978475345299,24.02122390049044,None,,,,,,,,,,,,,,,,,,,,,,,,,,,,,,,,,,,,,,,,,,,,,,,,,,,,,,,,,,,,,,,,,,,,,,,,,,,,,,,,,,,,,,,,,,,,,,,,,,,,,,,,,,,,,,,,,,,,,,,,,,,,,,,,,,21111,2019_Dec_16_1227,Mmi_3levels,3.1.5,59.98172808580886,
,,,,,,,,,,,,,,,,,,,,,,,,,,,,,,,,,,,,,,,,,,,,31.090614996501245,None,0.76,8.418958605616353,35.09213716047816,None,4,4.401938655239064,35.09213716047816,None,,,,,,,,,,,,,,,,,,,,,,,,,,,,,,,,,,,,,,,,,,,,,,,,,,,,,,,,,,,,,,,,,,,,,,,,,,,,,,,,,,,,,,,,,,,,,,,,,,,,,,,,,,,,,,,,,,,,,,,,21111,2019_Dec_16_1227,Mmi_3levels,3.1.5,59.98172808580886,
4,black.png,"In this game you can win money by earning points according to your choices. You will decide whether to gamble a number of points or stick with a guaranteed number of points. 
Make your choice by pressing the left or right arrow key once. An example of one trial is shown on the next screen.",,,,,,,,0,0,0,0,,,,,,,,,,,,,,,,,,,,,,,,,,,,,,,,,,,,,,,,,39.560590255307034,None,39.560590255307034,None,39.560590255307034,None,4,5.6189684610581025,39.560590255307034,None,,,,,,,,,,,,,,,,,,,,,,,,,,,,,,,,,,,,,,,,,,,,,,,,,,,,,,,,,,,,,,,,,,,,,,,,,,,,,,,,,,,,,,,,,,,,,,,,,,,,,,,,,,,,,,21111,2019_Dec_16_1227,Mmi_3levels,3.1.5,59.98172808580886,
5,example_start.png,"The GAMBLING OPTION will be shown on the RIGHT SIDE. 
Select this option using the RIGHT (blue) button on your keypad.",,,,,,,,0,1,1,1,,,,,,,,,,,,,,,,,,,,,,,,,,,,,,,,,,,,,,,,,45.24605075712316,None,45.24605075712316,None,45.24605075712316,None,4,5.969206657202449,45.24605075712316,None,,,,,,,,,,,,,,,,,,,,,,,,,,,,,,,,,,,,,,,,,,,,,,,,,,,,,,,,,,,,,,,,,,,,,,,,,,,,,,,,,,,,,,,,,,,,,,,,,,,,,,,,,,,,,,21111,2019_Dec_16_1227,Mmi_3levels,3.1.5,59.98172808580886,
6,example_gamble.png,"Once you select the gambling choice, the choice you made will remain on the screen.",,,,,,,,0,2,2,2,,,,,,,,,,,,,,,,,,,,,,,,,,,,,,,,,,,,,,,,,51.248356882017106,None,51.248356882017106,None,51.248356882017106,None,4,2.1510881376452744,51.248356882017106,None,,,,,,,,,,,,,,,,,,,,,,,,,,,,,,,,,,,,,,,,,,,,,,,,,,,,,,,,,,,,,,,,,,,,,,,,,,,,,,,,,,,,,,,,,,,,,,,,,,,,,,,,,,,,,,21111,2019_Dec_16_1227,Mmi_3levels,3.1.5,59.98172808580886,
7,example_win.png,"The outcome you received will then be shown on the screen. In this example , you WON 10 points.",,,,,,,,0,3,3,3,,,,,,,,,,,,,,,,,,,,,,,,,,,,,,,,,,,,,,,,,53.43254000757588,None,53.43254000757588,None,53.43254000757588,None,4,1.8509524004766718,53.43254000757588,None,,,,,,,,,,,,,,,,,,,,,,,,,,,,,,,,,,,,,,,,,,,,,,,,,,,,,,,,,,,,,,,,,,,,,,,,,,,,,,,,,,,,,,,,,,,,,,,,,,,,,,,,,,,,,,21111,2019_Dec_16_1227,Mmi_3levels,3.1.5,59.98172808580886,
8,example_start.png,"The GUARANTEED OPTION will be shown on the LEFT SIDE. You are 100% guaranteed to gain or lose this amount. In this example, you have a 100% chance of winning 1 point. Select this option using the LEFT (green) button on your keyboard.",,,,,,,,0,4,4,4,,,,,,,,,,,,,,,,,,,,,,,,,,,,,,,,,,,,,,,,,55.33326752326684,None,55.33326752326684,None,55.33326752326684,None,4,2.184373196098022,55.33326752326684,None,,,,,,,,,,,,,,,,,,,,,,,,,,,,,,,,,,,,,,,,,,,,,,,,,,,,,,,,,,,,,,,,,,,,,,,,,,,,,,,,,,,,,,,,,,,,,,,,,,,,,,,,,,,,,,21111,2019_Dec_16_1227,Mmi_3levels,3.1.5,59.98172808580886,
9,example_certain.png,"Once you select the guaranteed choice, your selection will remain on the screen.",,,,,,,,0,5,5,5,,,,,,,,,,,,,,,,,,,,,,,,,,,,,,,,,,,,,,,,,57.55077858513687,None,57.55077858513687,None,57.55077858513687,None,4,1.5341221366543323,57.55077858513687,None,,,,,,,,,,,,,,,,,,,,,,,,,,,,,,,,,,,,,,,,,,,,,,,,,,,,,,,,,,,,,,,,,,,,,,,,,,,,,,,,,,,,,,,,,,,,,,,,,,,,,,,,,,,,,,21111,2019_Dec_16_1227,Mmi_3levels,3.1.5,59.98172808580886,
10,black.png,"Please make your choices as fast as possible.
You will be given a break at the end of each block.
Let's play!",,,,,,,,0,6,6,6,,,,,,,,,,,,,,,,,,,,,,,,,,,,,,,,,,,,,,,,,59.11805490666302,None,59.11805490666302,None,59.11805490666302,None,4,1.884319054777734,59.11805490666302,None,,,,,,,,,,,,,,,,,,,,,,,,,,,,,,,,,,,,,,,,,,,,,,,,,,,,,,,,,,,,,,,,,,,,,,,,,,,,,,,,,,,,,,,,,,,,,,,,,,,,,,,,,,,,,,21111,2019_Dec_16_1227,Mmi_3levels,3.1.5,59.98172808580886,
,,,,,,,,,,,,,,,,,,,,,,,,,,,,,,,,,,,,,,,,,,,,,,,,,,,,,,,,,,,,,,,,61.01875074394047,None,space,39.03200480231317,61.01875074394047,None,,,,,,,,,,,,,,,,,,,,,,,,,,,,,,,,,,,,,,,,,,,,,,,,,,,,,,,,,,,,,,,,,,,,,,,,,,,,,,,,,,,,,,,,,,,,,,,,,,,,,,,,21111,2019_Dec_16_1227,Mmi_3levels,3.1.5,59.98172808580886,
,,,1,1,1.7,,,,,,,,,0,0,0,0,0,0,0,19,,,,,,,,,,,,,,,,,,,,,,,,,,,,,,,,,,,,,,,,,,,,,,,,,100.06716784695163,None,0.63,6.812606794643216,103.08494199969573,None,4,3.785104487615172,103.08494199969573,None,106.88643414917169,None,True,True,True,0.63,-0.37,-0.37,5.55,1.7,-3.8499999999999996,-1.0749999999999997,certain,certain,-1.0749999999999997,-1.0749999999999997,109.92089898872655,None,109.92089898872655,None,109.92089898872655,None,109.92089898872655,None,109.92089898872655,None,109.92089898872655,None,109.92089898872655,None,3,2.43463046324905,109.92089898872655,None,112.38856908259913,None,112.38856908259913,None,112.38856908259913,None,112.38856908259913,None,112.38856908259913,None,112.38856908259913,None,112.38856908259913,None,116.37343543808674,None,116.37343543808674,None,116.37343543808674,None,116.37343543808674,None,116.37343543808674,None,116.37343543808674,None,116.37343543808674,None,117.37382805848029,None,,,,,,,,,,,,,,,,,,,,,,,,,,,,,,21111,2019_Dec_16_1227,Mmi_3levels,3.1.5,59.98172808580886,
,,,1,1,1.9,,,,,,,,,0,0,0,0,0,1,1,8,,,,,,,,,,,,,,,,,,,,,,,,,,,,,,,,,,,,,,,,,,,,,,,,,,,,,,,,,,,,,True,True,True,0.63,-0.37,-0.74,5.92,1.9,-4.02,-1.0599999999999998,gamble,win,1.9,0.8250000000000002,119.39126430806937,None,119.39126430806937,None,119.39126430806937,None,119.39126430806937,None,119.39126430806937,None,119.39126430806937,None,119.39126430806937,None,1,1.9508792521082796,119.39126430806937,None,121.37536878156243,None,121.37536878156243,None,121.37536878156243,None,121.37536878156243,None,121.37536878156243,None,121.37536878156243,None,121.37536878156243,None,125.36022265767679,None,125.36022265767679,None,125.36022265767679,None,125.36022265767679,None,125.36022265767679,None,125.36022265767679,None,125.36022265767679,None,126.36061719799181,None,,,,,,,,,,,,,,,,,,,,,,,,,,,,,,21111,2019_Dec_16_1227,Mmi_3levels,3.1.5,59.98172808580886,
,,,1,1,13.1,,,,,,,,,0,0,0,0,0,2,2,17,,,,,,,,,,,,,,,,,,,,,,,,,,,,,,,,,,,,,,,,,,,,,,,,,,,,,,,,,,,,,True,True,True,0.63,-0.37,-1.1099999999999999,6.289999999999999,13.1,6.8100000000000005,3.4050000000000002,gamble,win,13.1,13.925,128.37807232659543,None,128.37807232659543,None,128.37807232659543,None,128.37807232659543,None,128.37807232659543,None,128.37807232659543,None,128.37807232659543,None,1,1.484191189170815,128.37807232659543,None,129.89530730625847,None,129.89530730625847,None,129.89530730625847,None,129.89530730625847,None,129.89530730625847,None,129.89530730625847,None,129.89530730625847,None,133.89685474900762,None,133.89685474900762,None,133.89685474900762,None,133.89685474900762,None,133.89685474900762,None,133.89685474900762,None,133.89685474900762,None,143.38383299903944,None,134.88055796251865,None,135.88094706309494,None,0.68,7.5029300937312655,138.88208492629929,None,None,138.88208492629929,None,,,,,,,,,,,,,,,,,,,21111,2019_Dec_16_1227,Mmi_3levels,3.1.5,59.98172808580886,
,,,1,1,10.7,,,,,,,,,0,0,0,0,0,3,3,10,,,,,,,,,,,,,,,,,,,,,,,,,,,,,,,,,,,,,,,,,,,,,,,,,,,,,,,,,,,,,True,True,True,0.68,-0.31999999999999995,-1.4299999999999997,5.909999999999999,10.7,4.79,2.395,gamble,win,10.7,24.625,145.4012823679368,None,145.4012823679368,None,145.4012823679368,None,145.4012823679368,None,145.4012823679368,None,145.4012823679368,None,145.4012823679368,None,1,1.0506928294198588,145.4012823679368,None,146.48502730741166,None,146.48502730741166,None,146.48502730741166,None,146.48502730741166,None,146.48502730741166,None,146.48502730741166,None,146.48502730741166,None,150.469890143082,None,150.469890143082,None,150.469890143082,None,150.469890143082,None,150.469890143082,None,150.469890143082,None,150.469890143082,None,151.47028308344306,None,,,,,,,,,,,,,,,,,,,,,,,,,,,,,,21111,2019_Dec_16_1227,Mmi_3levels,3.1.5,59.98172808580886,
,,,1,1,-0.3,,,,,,,,,0,0,0,0,0,4,4,5,,,,,,,,,,,,,,,,,,,,,,,,,,,,,,,,,,,,,,,,,,,,,,,,,,,,,,,,,,,,,True,True,True,0.68,-0.31999999999999995,-1.7499999999999996,6.229999999999999,-0.3,-6.5299999999999985,-3.414999999999999,gamble,win,-0.3,24.325,153.48772413277766,None,153.48772413277766,None,153.48772413277766,None,153.48772413277766,None,153.48772413277766,None,153.48772413277766,None,153.48772413277766,None,1,2.051080330100376,153.48772413277766,None,155.57185913278954,None,155.57185913278954,None,155.57185913278954,None,155.57185913278954,None,155.57185913278954,None,155.57185913278954,None,155.57185913278954,None,159.57340145576745,None,159.57340145576745,None,159.57340145576745,None,159.57340145576745,None,159.57340145576745,None,159.57340145576745,None,159.57340145576745,None,169.0603848255705,None,160.55711426882772,None,161.557440012577,None,0.66,7.502912494586781,164.55863483290887,None,None,164.55863483290887,None,,,,,,,,,,,,,,,,,,,21111,2019_Dec_16_1227,Mmi_3levels,3.1.5,59.98172808580886,
,,,1,1,7.9,,,,,,,,,0,0,0,0,0,5,5,11,,,,,,,,,,,,,,,,,,,,,,,,,,,,,,,,,,,,,,,,,,,,,,,,,,,,,,,,,,,,,True,True,True,0.66,-0.33999999999999997,-2.0899999999999994,6.85,7.9,1.0500000000000007,0.5250000000000004,gamble,win,7.9,32.225,171.0778169153491,None,171.0778169153491,None,171.0778169153491,None,171.0778169153491,None,171.0778169153491,None,171.0778169153491,None,171.0778169153491,None,1,1.1507591941044666,171.0778169153491,None,172.26161446020706,None,172.26161446020706,None,172.26161446020706,None,172.26161446020706,None,172.26161446020706,None,172.26161446020706,None,172.26161446020706,None,176.24647409596946,None,176.24647409596946,None,176.24647409596946,None,176.24647409596946,None,176.24647409596946,None,176.24647409596946,None,176.24647409596946,None,177.24687055620598,None,,,,,,,,,,,,,,,,,,,,,,,,,,,,,,21111,2019_Dec_16_1227,Mmi_3levels,3.1.5,59.98172808580886,
,,,1,1,2.7,,,,,,,,,0,0,0,0,0,6,6,15,,,,,,,,,,,,,,,,,,,,,,,,,,,,,,,,,,,,,,,,,,,,,,,,,,,,,,,,,,,,,True,False,False,0.66,-0.33999999999999997,-2.4299999999999993,-1.3924999999999998,2.7,1.3075000000000003,0.6537500000000002,gamble,lose,1.3075000000000003,33.5325,179.26431288546883,None,179.26431288546883,None,179.26431288546883,None,179.26431288546883,None,179.26431288546883,None,179.26431288546883,None,179.26431288546883,None,1,1.1340816266019829,179.26431288546883,None,180.43142710311804,None,180.43142710311804,None,180.43142710311804,None,180.43142710311804,None,180.43142710311804,None,180.43142710311804,None,180.43142710311804,None,184.41628833883442,None,184.41628833883442,None,184.41628833883442,None,184.41628833883442,None,184.41628833883442,None,184.41628833883442,None,184.41628833883442,None,185.4166819191887,None,,,,,,,,,,,,,,,,,,,,,,,,,,,,,,21111,2019_Dec_16_1227,Mmi_3levels,3.1.5,59.98172808580886,
,,,1,1,-0.5,,,,,,,,,0,0,0,0,0,7,7,16,,,,,,,,,,,,,,,,,,,,,,,,,,,,,,,,,,,,,,,,,,,,,,,,,,,,,,,,,,,,,True,True,False,0.66,-0.33999999999999997,-2.769999999999999,7.529999999999999,-0.5,-8.03,-4.265,certain,certain,-4.265,29.2675,187.43411912873853,None,187.43411912873853,None,187.43411912873853,None,187.43411912873853,None,187.43411912873853,None,187.43411912873853,None,187.43411912873853,None,3,1.8009920144686475,187.43411912873853,None,189.26816453319043,None,189.26816453319043,None,189.26816453319043,None,189.26816453319043,None,189.26816453319043,None,189.26816453319043,None,189.26816453319043,None,193.26969981653383,None,193.26969981653383,None,193.26969981653383,None,193.26969981653383,None,193.26969981653383,None,193.26969981653383,None,193.26969981653383,None,202.75668286636937,None,194.25340974977007,None,195.25379053072538,None,0.67,7.502842098125257,198.25493607355747,None,None,198.25493607355747,None,,,,,,,,,,,,,,,,,,,21111,2019_Dec_16_1227,Mmi_3levels,3.1.5,59.98172808580886,
,,,1,1,3.5,,,,,,,,,0,0,0,0,0,8,8,20,,,,,,,,,,,,,,,,,,,,,,,,,,,,,,,,,,,,,,,,,,,,,,,,,,,,,,,,,,,,,True,True,False,0.67,-0.32999999999999996,-3.099999999999999,7.719999999999999,3.5,-4.219999999999999,-0.35999999999999943,gamble,win,3.5,32.7675,204.77413415518822,None,204.77413415518822,None,204.77413415518822,None,204.77413415518822,None,204.77413415518822,None,204.77413415518822,None,204.77413415518822,None,1,1.3174788714386523,204.77413415518822,None,206.1246366581181,None,206.1246366581181,None,206.1246366581181,None,206.1246366581181,None,206.1246366581181,None,206.1246366581181,None,206.1246366581181,None,210.12618634075625,None,210.12618634075625,None,210.12618634075625,None,210.12618634075625,None,210.12618634075625,None,210.12618634075625,None,210.12618634075625,None,211.10990011377726,None,,,,,,,,,,,,,,,,,,,,,,,,,,,,,,21111,2019_Dec_16_1227,Mmi_3levels,3.1.5,59.98172808580886,
,,,1,1,7.1,,,,,,,,,0,0,0,0,0,9,9,0,,,,,,,,,,,,,,,,,,,,,,,,,,,,,,,,,,,,,,,,,,,,,,,,,,,,,,,,,,,,,True,True,True,0.67,-0.32999999999999996,-3.4299999999999993,8.049999999999999,7.1,-0.9499999999999993,-0.47499999999999964,gamble,win,7.1,39.8675,213.12736612185836,None,213.12736612185836,None,213.12736612185836,None,213.12736612185836,None,213.12736612185836,None,213.12736612185836,None,213.12736612185836,None,1,1.267413210705854,213.12736612185836,None,214.4278445619857,None,214.4278445619857,None,214.4278445619857,None,214.4278445619857,None,214.4278445619857,None,214.4278445619857,None,214.4278445619857,None,218.41270291781984,None,218.41270291781984,None,218.41270291781984,None,218.41270291781984,None,218.41270291781984,None,218.41270291781984,None,218.41270291781984,None,227.91635489556938,None,219.41309649817413,None,220.41347567929188,None,0.71,7.5027685017557815,223.41461642232025,None,None,223.41461642232025,None,,,,,,,,,,,,,,,,,,,21111,2019_Dec_16_1227,Mmi_3levels,3.1.5,59.98172808580886,
,,,1,1,5.3,,,,,,,,,0,0,0,0,0,10,10,12,,,,,,,,,,,,,,,,,,,,,,,,,,,,,,,,,,,,,,,,,,,,,,,,,,,,,,,,,,,,,True,True,True,0.71,-0.29000000000000004,-3.7199999999999993,7.779999999999999,5.3,-2.4799999999999995,1.4100000000000001,gamble,win,5.3,45.1675,229.9338081042515,None,229.9338081042515,None,229.9338081042515,None,229.9338081042515,None,229.9338081042515,None,229.9338081042515,None,229.9338081042515,None,1,0.7839400657103397,229.9338081042515,None,230.75078012101585,None,230.75078012101585,None,230.75078012101585,None,230.75078012101585,None,230.75078012101585,None,230.75078012101585,None,230.75078012101585,None,234.75232052413048,None,234.75232052413048,None,234.75232052413048,None,234.75232052413048,None,234.75232052413048,None,234.75232052413048,None,234.75232052413048,None,235.73603365715826,None,,,,,,,,,,,,,,,,,,,,,,,,,,,,,,21111,2019_Dec_16_1227,Mmi_3levels,3.1.5,59.98172808580886,
,,,1,1,12.9,,,,,,,,,0,0,0,0,0,11,11,7,,,,,,,,,,,,,,,,,,,,,,,,,,,,,,,,,,,,,,,,,,,,,,,,,,,,,,,,,,,,,True,True,True,0.71,-0.29000000000000004,-4.01,8.07,12.9,4.83,2.415,gamble,win,12.9,58.067499999999995,237.7534801462316,None,237.7534801462316,None,237.7534801462316,None,237.7534801462316,None,237.7534801462316,None,237.7534801462316,None,237.7534801462316,None,1,0.8339186907978728,237.7534801462316,None,238.62049062509323,None,238.62049062509323,None,238.62049062509323,None,238.62049062509323,None,238.62049062509323,None,238.62049062509323,None,238.62049062509323,None,242.62201374903088,None,242.62201374903088,None,242.62201374903088,None,242.62201374903088,None,242.62201374903088,None,242.62201374903088,None,242.62201374903088,None,252.10899967869045,None,243.60573392175138,None,244.60611374280415,None,0.7,7.502823859045748,247.60725512582576,None,None,247.60725512582576,None,,,,,,,,,,,,,,,,,,,21111,2019_Dec_16_1227,Mmi_3levels,3.1.5,59.98172808580886,
,,,1,1,3.7,,,,,,,,,0,0,0,0,0,12,12,4,,,,,,,,,,,,,,,,,,,,,,,,,,,,,,,,,,,,,,,,,,,,,,,,,,,,,,,,,,,,,True,True,False,0.7,-0.30000000000000004,-4.31,8.510000000000002,3.7,-4.810000000000001,-0.5550000000000006,gamble,win,3.7,61.7675,254.1264416879858,None,254.1264416879858,None,254.1264416879858,None,254.1264416879858,None,254.1264416879858,None,254.1264416879858,None,254.1264416879858,None,1,1.4007422349532135,254.1264416879858,None,255.56030162971,None,255.56030162971,None,255.56030162971,None,255.56030162971,None,255.56030162971,None,255.56030162971,None,255.56030162971,None,259.5451961437939,None,259.5451961437939,None,259.5451961437939,None,259.5451961437939,None,259.5451961437939,None,259.5451961437939,None,259.5451961437939,None,260.5455433264724,None,,,,,,,,,,,,,,,,,,,,,,,,,,,,,,21111,2019_Dec_16_1227,Mmi_3levels,3.1.5,59.98172808580886,
,,,1,1,-1.1,,,,,,,,,0,0,0,0,0,13,13,9,,,,,,,,,,,,,,,,,,,,,,,,,,,,,,,,,,,,,,,,,,,,,,,,,,,,,,,,,,,,,True,True,False,0.7,-0.30000000000000004,-4.609999999999999,8.81,-1.1,-9.91,-5.505,certain,certain,-5.505,56.262499999999996,262.5630227738875,None,262.5630227738875,None,262.5630227738875,None,262.5630227738875,None,262.5630227738875,None,262.5630227738875,None,262.5630227738875,None,3,2.351189828594215,262.5630227738875,None,264.94727655191673,None,264.94727655191673,None,264.94727655191673,None,264.94727655191673,None,264.94727655191673,None,264.94727655191673,None,264.94727655191673,None,268.94880991539685,None,268.94880991539685,None,268.94880991539685,None,268.94880991539685,None,268.94880991539685,None,268.94880991539685,None,268.94880991539685,None,269.93251888861414,None,,,,,,,,,,,,,,,,,,,,,,,,,,,,,,21111,2019_Dec_16_1227,Mmi_3levels,3.1.5,59.98172808580886,
,,,1,1,11.7,,,,,,,,,0,0,0,0,0,14,14,26,,,,,,,,,,,,,,,,,,,,,,,,,,,,,,,,,,,,,,,,,,,,,,,,,,,,,,,,,,,,,True,True,True,0.7,-0.30000000000000004,-4.909999999999999,9.11,11.7,2.59,1.295,gamble,win,11.7,67.96249999999999,271.9499640977592,None,271.9499640977592,None,271.9499640977592,None,271.9499640977592,None,271.9499640977592,None,271.9499640977592,None,271.9499640977592,None,1,0.9839150429470465,271.9499640977592,None,273.0003689415753,None,273.0003689415753,None,273.0003689415753,None,273.0003689415753,None,273.0003689415753,None,273.0003689415753,None,273.0003689415753,None,276.95188912167214,None,276.95188912167214,None,276.95188912167214,None,276.95188912167214,None,276.95188912167214,None,276.95188912167214,None,276.95188912167214,None,286.45554941892624,None,277.95226958265994,None,278.95265516341897,None,0.71,7.502863537054509,281.95380102621857,None,None,281.95380102621857,None,,,,,,,,,,,,,,,,,,,21111,2019_Dec_16_1227,Mmi_3levels,3.1.5,59.98172808580886,
,,,1,1,-1.3,,,,,,,,,0,0,0,0,0,15,15,18,,,,,,,,,,,,,,,,,,,,,,,,,,,,,,,,,,,,,,,,,,,,,,,,,,,,,,,,,,,,,True,True,True,0.71,-0.29000000000000004,-5.199999999999999,9.26,-1.3,-10.56,-5.930000000000001,gamble,win,-1.3,66.6625,288.47299494809704,None,288.47299494809704,None,288.47299494809704,None,288.47299494809704,None,288.47299494809704,None,288.47299494809704,None,288.47299494809704,None,1,1.7508418780053034,288.47299494809704,None,290.2569382135989,None,290.2569382135989,None,290.2569382135989,None,290.2569382135989,None,290.2569382135989,None,290.2569382135989,None,290.2569382135989,None,294.2585467733443,None,294.2585467733443,None,294.2585467733443,None,294.2585467733443,None,294.2585467733443,None,294.2585467733443,None,294.2585467733443,None,295.2422634261893,None,,,,,,,,,,,,,,,,,,,,,,,,,,,,,,21111,2019_Dec_16_1227,Mmi_3levels,3.1.5,59.98172808580886,
,,,1,1,0.9,,,,,,,,,0,0,0,0,0,16,16,2,,,,,,,,,,,,,,,,,,,,,,,,,,,,,,,,,,,,,,,,,,,,,,,,,,,,,,,,,,,,,True,False,False,0.71,-0.29000000000000004,-5.489999999999999,-1.4725000000000001,0.9,-0.5725000000000001,0.16374999999999995,gamble,lose,-0.5725000000000001,66.08999999999999,297.2597022356349,None,297.2597022356349,None,297.2597022356349,None,297.2597022356349,None,297.2597022356349,None,297.2597022356349,None,297.2597022356349,None,1,1.717455064645037,297.2597022356349,None,299.01037228218047,None,299.01037228218047,None,299.01037228218047,None,299.01037228218047,None,299.01037228218047,None,299.01037228218047,None,299.01037228218047,None,302.9952341578901,None,302.9952341578901,None,302.9952341578901,None,302.9952341578901,None,302.9952341578901,None,302.9952341578901,None,302.9952341578901,None,312.4989040546934,None,303.99557302094763,None,304.9960184387164,None,0.74,7.502793780586217,307.997157581849,None,None,307.997157581849,None,,,,,,,,,,,,,,,,,,,21111,2019_Dec_16_1227,Mmi_3levels,3.1.5,59.98172808580886,
,,,1,1,10.9,,,,,,,,,0,0,0,0,0,17,17,22,,,,,,,,,,,,,,,,,,,,,,,,,,,,,,,,,,,,,,,,,,,,,,,,,,,,,,,,,,,,,True,True,False,0.74,-0.26,-5.749999999999999,9.389999999999999,10.9,1.5100000000000016,0.7550000000000008,gamble,win,10.9,76.99,314.5163422241458,None,314.5163422241458,None,314.5163422241458,None,314.5163422241458,None,314.5163422241458,None,314.5163422241458,None,314.5163422241458,None,1,1.2674484089948237,314.5163422241458,None,315.81683954334585,None,315.81683954334585,None,315.81683954334585,None,315.81683954334585,None,315.81683954334585,None,315.81683954334585,None,315.81683954334585,None,319.801701739023,None,319.801701739023,None,319.801701739023,None,319.801701739023,None,319.801701739023,None,319.801701739023,None,319.801701739023,None,320.80210875871126,None,,,,,,,,,,,,,,,,,,,,,,,,,,,,,,21111,2019_Dec_16_1227,Mmi_3levels,3.1.5,59.98172808580886,
,,,1,1,3.1,,,,,,,,,0,0,0,0,0,18,18,24,,,,,,,,,,,,,,,,,,,,,,,,,,,,,,,,,,,,,,,,,,,,,,,,,,,,,,,,,,,,,True,True,False,0.74,-0.26,-6.009999999999999,9.649999999999999,3.1,-6.549999999999999,-1.7249999999999994,gamble,win,3.1,80.08999999999999,322.8195283691166,None,322.8195283691166,None,322.8195283691166,None,322.8195283691166,None,322.8195283691166,None,322.8195283691166,None,322.8195283691166,None,1,1.6676111528649926,322.8195283691166,None,324.5201871522586,None,324.5201871522586,None,324.5201871522586,None,324.5201871522586,None,324.5201871522586,None,324.5201871522586,None,324.5201871522586,None,328.5050000703777,None,328.5050000703777,None,328.5050000703777,None,328.5050000703777,None,328.5050000703777,None,328.5050000703777,None,328.5050000703777,None,329.505441328336,None,,,,,,,,,,,,,,,,,,,,,,,,,,,,,,21111,2019_Dec_16_1227,Mmi_3levels,3.1.5,59.98172808580886,
,,,1,1,13.7,,,,,,,,,0,0,0,0,0,19,19,14,,,,,,,,,,,,,,,,,,,,,,,,,,,,,,,,,,,,,,,,,,,,,,,,,,,,,,,,,,,,,True,True,True,0.74,-0.26,-6.269999999999999,9.909999999999998,13.7,3.790000000000001,1.8950000000000005,gamble,win,13.7,93.78999999999999,331.5228801377816,None,331.5228801377816,None,331.5228801377816,None,331.5228801377816,None,331.5228801377816,None,331.5228801377816,None,331.5228801377816,None,1,0.9839131230255589,331.5228801377816,None,332.5398863288574,None,332.5398863288574,None,332.5398863288574,None,332.5398863288574,None,332.5398863288574,None,332.5398863288574,None,332.5398863288574,None,336.52480356179876,None,336.52480356179876,None,336.52480356179876,None,336.52480356179876,None,336.52480356179876,None,336.52480356179876,None,336.52480356179876,None,346.02841362159234,None,337.52512514573755,None,338.52557952306233,None,0.66,7.502707064850256,341.52666490885895,None,None,341.52666490885895,None,,,,,,,,,,,,,,,,,,,21111,2019_Dec_16_1227,Mmi_3levels,3.1.5,59.98172808580886,
,,,1,1,5.7,,,,,,,,,0,0,0,0,0,20,20,3,,,,,,,,,,,,,,,,,,,,,,,,,,,,,,,,,,,,,,,,,,,,,,,,,,,,,,,,,,,,,True,False,True,0.66,-0.33999999999999997,-6.6099999999999985,-1.7408333333333332,5.7,3.959166666666667,1.9795833333333335,gamble,lose,3.959166666666667,97.74916666666665,348.04586011066567,None,348.04586011066567,None,348.04586011066567,None,348.04586011066567,None,348.04586011066567,None,348.04586011066567,None,348.04586011066567,None,1,0.8172392034321092,348.04586011066567,None,348.8961885422468,None,348.8961885422468,None,348.8961885422468,None,348.8961885422468,None,348.8961885422468,None,348.8961885422468,None,348.8961885422468,None,352.88104593817843,None,352.88104593817843,None,352.88104593817843,None,352.88104593817843,None,352.88104593817843,None,352.88104593817843,None,352.88104593817843,None,353.88143375882646,None,,,,,,,,,,,,,,,,,,,,,,,,,,,,,,21111,2019_Dec_16_1227,Mmi_3levels,3.1.5,59.98172808580886,
,,,1,1,2.5,,,,,,,,,0,0,0,0,0,21,21,25,,,,,,,,,,,,,,,,,,,,,,,,,,,,,,,,,,,,,,,,,,,,,,,,,,,,,,,,,,,,,True,True,True,0.66,-0.33999999999999997,-6.949999999999998,11.709999999999997,2.5,-9.209999999999997,-3.3549999999999986,gamble,win,2.5,100.24916666666665,355.89887736801757,None,355.89887736801757,None,355.89887736801757,None,355.89887736801757,None,355.89887736801757,None,355.89887736801757,None,355.89887736801757,None,1,1.9343386378022842,355.89887736801757,None,357.8663122736616,None,357.8663122736616,None,357.8663122736616,None,357.8663122736616,None,357.8663122736616,None,357.8663122736616,None,357.8663122736616,None,361.8678433972527,None,361.8678433972527,None,361.8678433972527,None,361.8678433972527,None,361.8678433972527,None,361.8678433972527,None,361.8678433972527,None,371.3548206873238,None,362.851550130581,None,363.8519955483498,None,0.65,7.502863537054509,366.8530742145376,None,None,366.8530742145376,None,,,,,,,,,,,,,,,,,,,21111,2019_Dec_16_1227,Mmi_3levels,3.1.5,59.98172808580886,
,,,1,1,12.1,,,,,,,,,0,0,0,0,0,22,22,21,,,,,,,,,,,,,,,,,,,,,,,,,,,,,,,,,,,,,,,,,,,,,,,,,,,,,,,,,,,,,True,False,False,0.65,-0.35,-7.299999999999998,-1.833333333333333,12.1,10.266666666666666,5.133333333333333,gamble,lose,10.266666666666666,110.51583333333332,373.3723090942949,None,373.3723090942949,None,373.3723090942949,None,373.3723090942949,None,373.3723090942949,None,373.3723090942949,None,373.3723090942949,None,1,0.900558244145941,373.3723090942949,None,374.3059687259956,None,374.3059687259956,None,374.3059687259956,None,374.3059687259956,None,374.3059687259956,None,374.3059687259956,None,374.3059687259956,None,378.2908200422535,None,378.2908200422535,None,378.2908200422535,None,378.2908200422535,None,378.2908200422535,None,378.2908200422535,None,378.2908200422535,None,379.2912120226538,None,,,,,,,,,,,,,,,,,,,,,,,,,,,,,,21111,2019_Dec_16_1227,Mmi_3levels,3.1.5,59.98172808580886,
,,,1,1,8.1,,,,,,,,,0,0,0,0,0,23,23,6,,,,,,,,,,,,,,,,,,,,,,,,,,,,,,,,,,,,,,,,,,,,,,,,,,,,,,,,,,,,,True,True,True,0.65,-0.35,-7.649999999999998,12.549999999999997,8.1,-4.4499999999999975,1.825000000000001,gamble,win,8.1,118.61583333333331,381.30865275202086,None,381.30865275202086,None,381.30865275202086,None,381.30865275202086,None,381.30865275202086,None,381.30865275202086,None,381.30865275202086,None,1,0.8339145309873857,381.30865275202086,None,382.175647871627,None,382.175647871627,None,382.175647871627,None,382.175647871627,None,382.175647871627,None,382.175647871627,None,382.175647871627,None,386.1605135871214,None,386.1605135871214,None,386.1605135871214,None,386.1605135871214,None,386.1605135871214,None,386.1605135871214,None,386.1605135871214,None,395.66421836218797,None,387.1608783689444,None,388.16128282871796,None,0.73,7.502942893130239,391.16238517372403,None,None,391.16238517372403,None,,,,,,,,,,,,,,,,,,,21111,2019_Dec_16_1227,Mmi_3levels,3.1.5,59.98172808580886,
,,,1,1,0.5,,,,,,,,,0,0,0,0,0,24,24,13,,,,,,,,,,,,,,,,,,,,,,,,,,,,,,,,,,,,,,,,,,,,,,,,,,,,,,,,,,,,,True,True,True,0.73,-0.27,-7.919999999999998,11.7,0.5,-11.2,-5.35,gamble,win,0.5,119.11583333333331,397.68166805111105,None,397.68166805111105,None,397.68166805111105,None,397.68166805111105,None,397.68166805111105,None,397.68166805111105,None,397.68166805111105,None,1,1.6174802153836936,397.68166805111105,None,399.332249334082,None,399.332249334082,None,399.332249334082,None,399.332249334082,None,399.332249334082,None,399.332249334082,None,399.332249334082,None,403.33378333749715,None,403.33378333749715,None,403.33378333749715,None,403.33378333749715,None,403.33378333749715,None,403.33378333749715,None,403.33378333749715,None,404.31749935040716,None,,,,,,,,,,,,,,,,,,,,,,,,,,,,,,21111,2019_Dec_16_1227,Mmi_3levels,3.1.5,59.98172808580886,
,,,1,1,7.3,,,,,,,,,0,0,0,0,0,25,25,1,,,,,,,,,,,,,,,,,,,,,,,,,,,,,,,,,,,,,,,,,,,,,,,,,,,,,,,,,,,,,True,True,False,0.73,-0.27,-8.189999999999998,11.969999999999999,7.3,-4.669999999999999,1.3150000000000004,gamble,win,7.3,126.41583333333331,406.3349391198135,None,406.3349391198135,None,406.3349391198135,None,406.3349391198135,None,406.3349391198135,None,406.3349391198135,None,406.3349391198135,None,1,1.1507025569444522,406.3349391198135,None,407.51873250486096,None,407.51873250486096,None,407.51873250486096,None,407.51873250486096,None,407.51873250486096,None,407.51873250486096,None,407.51873250486096,None,411.5202754678321,None,411.5202754678321,None,411.5202754678321,None,411.5202754678321,None,411.5202754678321,None,411.5202754678321,None,411.5202754678321,None,412.5039838011144,None,,,,,,,,,,,,,,,,,,,,,,,,,,,,,,21111,2019_Dec_16_1227,Mmi_3levels,3.1.5,59.98172808580886,
,,,1,1,4.5,,,,,,,,,0,0,0,0,0,26,26,23,,,,,,,,,,,,,,,,,,,,,,,,,,,,,,,,,,,,,,,,,,,,,,,,,,,,,,,,,,,,,True,True,False,0.73,-0.27,-8.459999999999997,12.239999999999998,4.5,-7.739999999999998,-1.6199999999999992,gamble,win,4.5,130.9158333333333,414.5214802076807,None,414.5214802076807,None,414.5214802076807,None,414.5214802076807,None,414.5214802076807,None,414.5214802076807,None,414.5214802076807,None,1,1.2173213112982921,414.5214802076807,None,415.771912506083,None,415.771912506083,None,415.771912506083,None,415.771912506083,None,415.771912506083,None,415.771912506083,None,415.771912506083,None,419.7567667021649,None,419.7567667021649,None,419.7567667021649,None,419.7567667021649,None,419.7567667021649,None,419.7567667021649,None,419.7567667021649,None,429.26043051929446,None,420.7571567627019,None,421.75754234346095,None,0.67,7.502781941147987,424.75867924670456,None,None,424.75867924670456,None,,,,,,,,,,,,,,,,,,,21111,2019_Dec_16_1227,Mmi_3levels,3.1.5,59.98172808580886,
,,,2,0,8.1,,,,,,,,,0,1,1,1,0,0,0,10,,,,,,,,,,,,,,,,,,,,,,,,,,,,,,,,,,,,,,,,,,,,,,,,,433.84552323143,None,0.66,7.501757352263667,436.8633367422153,None,None,,436.8633367422153,None,441.3484389259247,None,False,True,True,0.66,0.66,0.66,-9.9,8.1,-1.8000000000000007,-0.9000000000000004,gamble,lose,-1.8000000000000007,129.11583333333328,444.3829114450491,None,444.3829114450491,None,444.3829114450491,None,444.3829114450491,None,444.3829114450491,None,444.3829114450491,None,444.3829114450491,None,1,1.2006987811182626,444.3829114450491,None,445.6167154535651,None,445.6167154535651,None,445.6167154535651,None,445.6167154535651,None,445.6167154535651,None,445.6167154535651,None,445.6167154535651,None,449.601633006474,None,449.601633006474,None,449.601633006474,None,449.601633006474,None,449.601633006474,None,449.601633006474,None,449.601633006474,None,450.60194467089605,None,,,,,,,,,,,,431.2612307993113,None,4,2.5679335687309504,431.2612307993113,None,,,,,,,,,,,,,21111,2019_Dec_16_1227,Mmi_3levels,3.1.5,59.98172808580886,
,,,2,0,-0.1,,,,,,,,,0,1,1,1,0,1,1,6,,,,,,,,,,,,,,,,,,,,,,,,,,,,,,,,,,,,,,,,,,,,,,,,,,,,,,,,,,,,,False,False,False,0.66,0.66,1.32,2.42,-0.025,-2.445,-1.2349999999999999,certain,certain,-1.2349999999999999,127.88083333333329,452.6194045993034,None,452.6194045993034,None,452.6194045993034,None,452.6194045993034,None,452.6194045993034,None,452.6194045993034,None,452.6194045993034,None,3,1.7509781911503524,452.6194045993034,None,454.403431700659,None,454.403431700659,None,454.403431700659,None,454.403431700659,None,454.403431700659,None,454.403431700659,None,454.403431700659,None,458.38833965407684,None,458.38833965407684,None,458.38833965407684,None,458.38833965407684,None,458.38833965407684,None,458.38833965407684,None,458.38833965407684,None,467.8920274699922,None,459.3886788371019,None,460.38910921564093,None,0.64,7.502810739679262,463.3902029210585,None,None,463.3902029210585,None,,,,,,,,,,,,,,,,,,,21111,2019_Dec_16_1227,Mmi_3levels,3.1.5,59.98172808580886,
,,,2,0,12.5,,,,,,,,,0,1,1,1,0,2,2,2,,,,,,,,,,,,,,,,,,,,,,,,,,,,,,,,,,,,,,,,,,,,,,,,,,,,,,,,,,,,,False,False,False,0.64,0.64,1.96,2.4033333333333333,3.125,0.7216666666666667,1.9233333333333333,gamble,win,3.125,131.00583333333327,469.90938980324427,None,469.90938980324427,None,469.90938980324427,None,469.90938980324427,None,469.90938980324427,None,469.90938980324427,None,469.90938980324427,None,1,1.2674231302225962,469.90938980324427,None,471.2099424796761,None,471.2099424796761,None,471.2099424796761,None,471.2099424796761,None,471.2099424796761,None,471.2099424796761,None,471.2099424796761,None,475.1947589176125,None,475.1947589176125,None,475.1947589176125,None,475.1947589176125,None,475.1947589176125,None,475.1947589176125,None,475.1947589176125,None,476.1951931359363,None,,,,,,,,,,,,,,,,,,,,,,,,,,,,,,21111,2019_Dec_16_1227,Mmi_3levels,3.1.5,59.98172808580886,
,,,2,0,-0.5,,,,,,,,,0,1,1,1,0,3,3,0,,,,,,,,,,,,,,,,,,,,,,,,,,,,,,,,,,,,,,,,,,,,,,,,,,,,,,,,,,,,,False,True,True,0.64,0.64,2.6,-11.56,-0.5,-12.06,-6.28,gamble,lose,-12.06,118.94583333333327,478.26261345029343,None,478.26261345029343,None,478.26261345029343,None,478.26261345029343,None,478.26261345029343,None,478.26261345029343,None,478.26261345029343,None,1,1.7176681740093045,478.26261345029343,None,480.01330749568297,None,480.01330749568297,None,480.01330749568297,None,480.01330749568297,None,480.01330749568297,None,480.01330749568297,None,480.01330749568297,None,484.01481750031235,None,484.01481750031235,None,484.01481750031235,None,484.01481750031235,None,484.01481750031235,None,484.01481750031235,None,484.01481750031235,None,493.5018050298677,None,484.9985274334904,None,485.99890917440644,None,0.65,7.5027496227412485,489.00005119742127,None,None,489.00005119742127,None,,,,,,,,,,,,,,,,,,,21111,2019_Dec_16_1227,Mmi_3levels,3.1.5,59.98172808580886,
,,,2,0,11.5,,,,,,,,,0,1,1,1,0,4,4,26,,,,,,,,,,,,,,,,,,,,,,,,,,,,,,,,,,,,,,,,,,,,,,,,,,,,,,,,,,,,,False,False,False,0.65,0.65,3.25,2.5458333333333334,2.875,0.3291666666666666,1.6020833333333333,certain,certain,1.6020833333333333,120.54791666666661,495.51929535676027,None,495.51929535676027,None,495.51929535676027,None,495.51929535676027,None,495.51929535676027,None,495.51929535676027,None,495.51929535676027,None,3,1.434095449920278,495.51929535676027,None,496.9864774750313,None,496.9864774750313,None,496.9864774750313,None,496.9864774750313,None,496.9864774750313,None,496.9864774750313,None,496.9864774750313,None,500.9713511901209,None,500.9713511901209,None,500.9713511901209,None,500.9713511901209,None,500.9713511901209,None,500.9713511901209,None,500.9713511901209,None,501.97172301157843,None,,,,,,,,,,,,,,,,,,,,,,,,,,,,,,21111,2019_Dec_16_1227,Mmi_3levels,3.1.5,59.98172808580886,
,,,2,0,11.7,,,,,,,,,0,1,1,1,0,5,5,22,,,,,,,,,,,,,,,,,,,,,,,,,,,,,,,,,,,,,,,,,,,,,,,,,,,,,,,,,,,,,False,False,False,0.65,0.65,3.9,2.6,2.925,0.32499999999999973,1.6249999999999998,certain,certain,1.6249999999999998,122.17291666666661,503.9891615010565,None,503.9891615010565,None,503.9891615010565,None,503.9891615010565,None,503.9891615010565,None,503.9891615010565,None,503.9891615010565,None,3,1.6009792790864594,503.9891615010565,None,505.6231807307922,None,505.6231807307922,None,505.6231807307922,None,505.6231807307922,None,505.6231807307922,None,505.6231807307922,None,505.6231807307922,None,509.6079853293486,None,509.6079853293486,None,509.6079853293486,None,509.6079853293486,None,509.6079853293486,None,509.6079853293486,None,509.6079853293486,None,510.60835587087786,None,,,,,,,,,,,,,,,,,,,,,,,,,,,,,,21111,2019_Dec_16_1227,Mmi_3levels,3.1.5,59.98172808580886,
,,,2,0,9.9,,,,,,,,,0,1,1,1,0,6,6,25,,,,,,,,,,,,,,,,,,,,,,,,,,,,,,,,,,,,,,,,,,,,,,,,,,,,,,,,,,,,,False,True,True,0.65,0.65,4.55,-13.649999999999999,9.9,-3.7499999999999982,-1.8749999999999991,gamble,lose,-3.7499999999999982,118.42291666666661,512.6258189990767,None,512.6258189990767,None,512.6258189990767,None,512.6258189990767,None,512.6258189990767,None,512.6258189990767,None,512.6258189990767,None,1,1.2341076733428054,512.6258189990767,None,513.893023900222,None,513.893023900222,None,513.893023900222,None,513.893023900222,None,513.893023900222,None,513.893023900222,None,513.893023900222,None,517.8945099060657,None,517.8945099060657,None,517.8945099060657,None,517.8945099060657,None,517.8945099060657,None,517.8945099060657,None,517.8945099060657,None,527.3815409534727,None,518.8782707166974,None,519.8786121396697,None,0.6,7.502702265104745,522.8797477629851,None,None,522.8797477629851,None,,,,,,,,,,,,,,,,,,,21111,2019_Dec_16_1227,Mmi_3levels,3.1.5,59.98172808580886,
,,,2,0,0.9,,,,,,,,,0,1,1,1,0,7,7,23,,,,,,,,,,,,,,,,,,,,,,,,,,,,,,,,,,,,,,,,,,,,,,,,,,,,,,,,,,,,,False,True,True,0.6,0.6,5.1499999999999995,-13.55,0.9,-12.65,-5.875,certain,certain,-5.875,112.54791666666661,529.3989375249948,None,529.3989375249948,None,529.3989375249948,None,529.3989375249948,None,529.3989375249948,None,529.3989375249948,None,529.3989375249948,None,3,1.584204116545152,529.3989375249948,None,531.0162231901195,None,531.0162231901195,None,531.0162231901195,None,531.0162231901195,None,531.0162231901195,None,531.0162231901195,None,531.0162231901195,None,535.0177712728619,None,535.0177712728619,None,535.0177712728619,None,535.0177712728619,None,535.0177712728619,None,535.0177712728619,None,535.0177712728619,None,536.0014767262619,None,,,,,,,,,,,,,,,,,,,,,,,,,,,,,,21111,2019_Dec_16_1227,Mmi_3levels,3.1.5,59.98172808580886,
,,,2,0,10.5,,,,,,,,,0,1,1,1,0,8,8,3,,,,,,,,,,,,,,,,,,,,,,,,,,,,,,,,,,,,,,,,,,,,,,,,,,,,,,,,,,,,,False,True,False,0.6,0.6,5.749999999999999,-14.149999999999999,10.5,-3.6499999999999986,-1.8249999999999993,gamble,lose,-3.6499999999999986,108.89791666666662,538.0189206554787,None,538.0189206554787,None,538.0189206554787,None,538.0189206554787,None,538.0189206554787,None,538.0189206554787,None,538.0189206554787,None,1,1.0506525114178658,538.0189206554787,None,539.1026751944446,None,539.1026751944446,None,539.1026751944446,None,539.1026751944446,None,539.1026751944446,None,539.1026751944446,None,539.1026751944446,None,543.1042613552418,None,543.1042613552418,None,543.1042613552418,None,543.1042613552418,None,543.1042613552418,None,543.1042613552418,None,543.1042613552418,None,552.5912847230211,None,544.08792201092,None,545.0883002320188,None,0.59,7.502893935481552,548.0894464147859,None,None,548.0894464147859,None,,,,,,,,,,,,,,,,,,,21111,2019_Dec_16_1227,Mmi_3levels,3.1.5,59.98172808580886,
,,,2,0,13.9,,,,,,,,,0,1,1,1,0,9,9,18,,,,,,,,,,,,,,,,,,,,,,,,,,,,,,,,,,,,,,,,,,,,,,,,,,,,,,,,,,,,,False,False,False,0.59,0.59,6.339999999999999,2.5933333333333333,3.475,0.8816666666666668,0.4408333333333334,gamble,win,3.475,112.37291666666661,554.6086364968214,None,554.6086364968214,None,554.6086364968214,None,554.6086364968214,None,554.6086364968214,None,554.6086364968214,None,554.6086364968214,None,1,1.117349661886692,554.6086364968214,None,555.7590725070913,None,555.7590725070913,None,555.7590725070913,None,555.7590725070913,None,555.7590725070913,None,555.7590725070913,None,555.7590725070913,None,559.7606308292598,None,559.7606308292598,None,559.7606308292598,None,559.7606308292598,None,559.7606308292598,None,559.7606308292598,None,559.7606308292598,None,560.7443622014252,None,,,,,,,,,,,,,,,,,,,,,,,,,,,,,,21111,2019_Dec_16_1227,Mmi_3levels,3.1.5,59.98172808580886,
,,,2,0,10.3,,,,,,,,,0,1,1,1,0,10,10,8,,,,,,,,,,,,,,,,,,,,,,,,,,,,,,,,,,,,,,,,,,,,,,,,,,,,,,,,,,,,,False,True,True,0.59,0.59,6.929999999999999,-15.189999999999998,10.3,-4.889999999999997,-2.4449999999999985,gamble,lose,-4.889999999999997,107.48291666666661,562.7617638927186,None,562.7617638927186,None,562.7617638927186,None,562.7617638927186,None,562.7617638927186,None,562.7617638927186,None,562.7617638927186,None,1,1.0673252791166306,562.7617638927186,None,563.8621841597487,None,563.8621841597487,None,563.8621841597487,None,563.8621841597487,None,563.8621841597487,None,563.8621841597487,None,563.8621841597487,None,567.8638320774771,None,567.8638320774771,None,567.8638320774771,None,567.8638320774771,None,567.8638320774771,None,567.8638320774771,None,567.8638320774771,None,568.8474418557016,None,,,,,,,,,,,,,,,,,,,,,,,,,,,,,,21111,2019_Dec_16_1227,Mmi_3levels,3.1.5,59.98172808580886,
,,,2,0,4.1,,,,,,,,,0,1,1,1,0,11,11,20,,,,,,,,,,,,,,,,,,,,,,,,,,,,,,,,,,,,,,,,,,,,,,,,,,,,,,,,,,,,,False,True,True,0.59,0.59,7.519999999999999,-15.779999999999998,4.1,-11.679999999999998,-3.789999999999999,certain,certain,-3.789999999999999,103.6929166666666,570.8648848248995,None,570.8648848248995,None,570.8648848248995,None,570.8648848248995,None,570.8648848248995,None,570.8648848248995,None,570.8648848248995,None,3,1.3674498168984428,570.8648848248995,None,572.2654273898224,None,572.2654273898224,None,572.2654273898224,None,572.2654273898224,None,572.2654273898224,None,572.2654273898224,None,572.2654273898224,None,576.2502857457148,None,576.2502857457148,None,576.2502857457148,None,576.2502857457148,None,576.2502857457148,None,576.2502857457148,None,576.2502857457148,None,585.7539447630406,None,577.2506796460366,None,578.2511109845364,None,0.6,7.502810739679262,581.2521960503655,None,None,581.2521960503655,None,,,,,,,,,,,,,,,,,,,21111,2019_Dec_16_1227,Mmi_3levels,3.1.5,59.98172808580886,
,,,2,0,8.9,,,,,,,,,0,1,1,1,0,12,12,7,,,,,,,,,,,,,,,,,,,,,,,,,,,,,,,,,,,,,,,,,,,,,,,,,,,,,,,,,,,,,False,True,False,0.6,0.6,8.12,-16.52,8.9,-7.619999999999999,0.6400000000000006,certain,certain,0.6400000000000006,104.3329166666666,587.771397971781,None,587.771397971781,None,587.771397971781,None,587.771397971781,None,587.771397971781,None,587.771397971781,None,587.771397971781,None,3,1.7844632395426743,587.771397971781,None,589.5888429249171,None,589.5888429249171,None,589.5888429249171,None,589.5888429249171,None,589.5888429249171,None,589.5888429249171,None,589.5888429249171,None,593.573613605171,None,593.573613605171,None,593.573613605171,None,593.573613605171,None,593.573613605171,None,593.573613605171,None,593.573613605171,None,594.5740011058515,None,,,,,,,,,,,,,,,,,,,,,,,,,,,,,,21111,2019_Dec_16_1227,Mmi_3levels,3.1.5,59.98172808580886,
,,,2,0,8.3,,,,,,,,,0,1,1,1,0,13,13,17,,,,,,,,,,,,,,,,,,,,,,,,,,,,,,,,,,,,,,,,,,,,,,,,,,,,,,,,,,,,,False,True,True,0.6,0.6,8.719999999999999,-17.119999999999997,8.3,-8.819999999999997,-0.259999999999998,gamble,lose,-8.819999999999997,95.51291666666661,596.5914895128226,None,596.5914895128226,None,596.5914895128226,None,596.5914895128226,None,596.5914895128226,None,596.5914895128226,None,596.5914895128226,None,1,2.1510644588270225,596.5914895128226,None,598.7756176011753,None,598.7756176011753,None,598.7756176011753,None,598.7756176011753,None,598.7756176011753,None,598.7756176011753,None,598.7756176011753,None,602.777181043115,None,602.777181043115,None,602.777181043115,None,602.777181043115,None,602.777181043115,None,602.777181043115,None,602.777181043115,None,612.2641404140741,None,603.7609130552155,None,604.761255758116,None,0.58,7.502828658791259,607.7623933012947,None,None,607.7623933012947,None,,,,,,,,,,,,,,,,,,,21111,2019_Dec_16_1227,Mmi_3levels,3.1.5,59.98172808580886,
,,,2,0,13.3,,,,,,,,,0,1,1,1,0,14,14,12,,,,,,,,,,,,,,,,,,,,,,,,,,,,,,,,,,,,,,,,,,,,,,,,,,,,,,,,,,,,,False,True,True,0.58,0.58,9.299999999999999,-17.419999999999998,13.3,-4.119999999999997,-2.0599999999999987,gamble,lose,-4.119999999999997,91.39291666666662,614.2815913829254,None,614.2815913829254,None,614.2815913829254,None,614.2815913829254,None,614.2815913829254,None,614.2815913829254,None,614.2815913829254,None,1,1.284077658841852,614.2815913829254,None,615.5987525102682,None,615.5987525102682,None,615.5987525102682,None,615.5987525102682,None,615.5987525102682,None,615.5987525102682,None,615.5987525102682,None,619.6002916333964,None,619.6002916333964,None,619.6002916333964,None,619.6002916333964,None,619.6002916333964,None,619.6002916333964,None,619.6002916333964,None,620.5840444444912,None,,,,,,,,,,,,,,,,,,,,,,,,,,,,,,21111,2019_Dec_16_1227,Mmi_3levels,3.1.5,59.98172808580886,
,,,2,0,3.3,,,,,,,,,0,1,1,1,0,15,15,5,,,,,,,,,,,,,,,,,,,,,,,,,,,,,,,,,,,,,,,,,,,,,,,,,,,,,,,,,,,,,False,False,True,0.58,0.58,9.879999999999999,2.853333333333333,0.825,-2.0283333333333333,-0.6016666666666667,certain,certain,-0.6016666666666667,90.79124999999995,622.6014582951902,None,622.6014582951902,None,622.6014582951902,None,622.6014582951902,None,622.6014582951902,None,622.6014582951902,None,622.6014582951902,None,3,1.6175214932882227,622.6014582951902,None,624.2520798961632,None,624.2520798961632,None,624.2520798961632,None,624.2520798961632,None,624.2520798961632,None,624.2520798961632,None,624.2520798961632,None,628.2369468915858,None,628.2369468915858,None,628.2369468915858,None,628.2369468915858,None,628.2369468915858,None,628.2369468915858,None,628.2369468915858,None,637.7406017491594,None,629.2373155131936,None,630.2377186930389,None,0.58,7.50275026273448,633.2388565562433,None,None,633.2388565562433,None,,,,,,,,,,,,,,,,,,,21111,2019_Dec_16_1227,Mmi_3levels,3.1.5,59.98172808580886,
,,,2,0,-1.1,,,,,,,,,0,1,1,1,0,16,16,9,,,,,,,,,,,,,,,,,,,,,,,,,,,,,,,,,,,,,,,,,,,,,,,,,,,,,,,,,,,,,False,False,True,0.58,0.58,10.459999999999999,2.9016666666666664,-0.275,-3.1766666666666663,-1.725833333333333,gamble,win,-0.275,90.51624999999994,639.7580440784222,None,639.7580440784222,None,639.7580440784222,None,639.7580440784222,None,639.7580440784222,None,639.7580440784222,None,639.7580440784222,None,1,2.4678668840788305,639.7580440784222,None,642.2590021105716,None,642.2590021105716,None,642.2590021105716,None,642.2590021105716,None,642.2590021105716,None,642.2590021105716,None,642.2590021105716,None,646.2438665461377,None,646.2438665461377,None,646.2438665461377,None,646.2438665461377,None,646.2438665461377,None,646.2438665461377,None,646.2438665461377,None,647.244259486557,None,,,,,,,,,,,,,,,,,,,,,,,,,,,,,,21111,2019_Dec_16_1227,Mmi_3levels,3.1.5,59.98172808580886,
,,,2,0,5.1,,,,,,,,,0,1,1,1,0,17,17,15,,,,,,,,,,,,,,,,,,,,,,,,,,,,,,,,,,,,,,,,,,,,,,,,,,,,,,,,,,,,,False,True,False,0.58,0.58,11.04,-19.159999999999997,5.1,-14.059999999999997,-4.479999999999999,gamble,lose,-14.059999999999997,76.45624999999994,649.2617024558131,None,649.2617024558131,None,649.2617024558131,None,649.2617024558131,None,649.2617024558131,None,649.2617024558131,None,649.2617024558131,None,1,1.5841884373221546,649.2617024558131,None,650.8789657219895,None,650.8789657219895,None,650.8789657219895,None,650.8789657219895,None,650.8789657219895,None,650.8789657219895,None,650.8789657219895,None,654.8805256441119,None,654.8805256441119,None,654.8805256441119,None,654.8805256441119,None,654.8805256441119,None,654.8805256441119,None,654.8805256441119,None,655.8642400571262,None,,,,,,,,,,,,,,,,,,,,,,,,,,,,,,21111,2019_Dec_16_1227,Mmi_3levels,3.1.5,59.98172808580886,
,,,2,0,6.9,,,,,,,,,0,1,1,1,0,18,18,13,,,,,,,,,,,,,,,,,,,,,,,,,,,,,,,,,,,,,,,,,,,,,,,,,,,,,,,,,,,,,False,True,True,0.58,0.58,11.62,-19.74,6.9,-12.839999999999998,-2.969999999999999,gamble,lose,-12.839999999999998,63.616249999999944,657.8816830263822,None,657.8816830263822,None,657.8816830263822,None,657.8816830263822,None,657.8816830263822,None,657.8816830263822,None,657.8816830263822,None,1,1.7509845908498392,657.8816830263822,None,659.6656966884038,None,659.6656966884038,None,659.6656966884038,None,659.6656966884038,None,659.6656966884038,None,659.6656966884038,None,659.6656966884038,None,663.6672393314075,None,663.6672393314075,None,663.6672393314075,None,663.6672393314075,None,663.6672393314075,None,663.6672393314075,None,663.6672393314075,None,673.1542191813351,None,664.650951824442,None,665.6513534043916,None,0.57,7.502936493430752,668.6524503096589,None,None,668.6524503096589,None,,,,,,,,,,,,,,,,,,,21111,2019_Dec_16_1227,Mmi_3levels,3.1.5,59.98172808580886,
,,,2,0,13.7,,,,,,,,,0,1,1,1,0,19,19,19,,,,,,,,,,,,,,,,,,,,,,,,,,,,,,,,,,,,,,,,,,,,,,,,,,,,,,,,,,,,,False,False,True,0.57,0.57,12.19,3.0108333333333333,3.425,0.41416666666666657,1.9195833333333332,gamble,win,3.425,67.04124999999995,675.1716656704084,None,675.1716656704084,None,675.1716656704084,None,675.1716656704084,None,675.1716656704084,None,675.1716656704084,None,675.1716656704084,None,1,1.3340988418203779,675.1716656704084,None,676.5388505405863,None,676.5388505405863,None,676.5388505405863,None,676.5388505405863,None,676.5388505405863,None,676.5388505405863,None,676.5388505405863,None,680.5237690533977,None,680.5237690533977,None,680.5237690533977,None,680.5237690533977,None,680.5237690533977,None,680.5237690533977,None,680.5237690533977,None,681.5241056766245,None,,,,,,,,,,,,,,,,,,,,,,,,,,,,,,21111,2019_Dec_16_1227,Mmi_3levels,3.1.5,59.98172808580886,
,,,2,0,10.9,,,,,,,,,0,1,1,1,0,20,20,14,,,,,,,,,,,,,,,,,,,,,,,,,,,,,,,,,,,,,,,,,,,,,,,,,,,,,,,,,,,,,False,False,False,0.57,0.57,12.76,3.058333333333333,2.725,-0.33333333333333304,1.1958333333333335,certain,certain,1.1958333333333335,68.23708333333329,683.5415364864748,None,683.5415364864748,None,683.5415364864748,None,683.5415364864748,None,683.5415364864748,None,683.5415364864748,None,683.5415364864748,None,3,1.0338181518018246,683.5415364864748,None,684.6086208175984,None,684.6086208175984,None,684.6086208175984,None,684.6086208175984,None,684.6086208175984,None,684.6086208175984,None,684.6086208175984,None,688.5934833333013,None,688.5934833333013,None,688.5934833333013,None,688.5934833333013,None,688.5934833333013,None,688.5934833333013,None,688.5934833333013,None,698.0971593097784,None,689.5938769136555,None,690.5942532148329,None,0.56,7.5028657769435085,693.595394277887,None,None,693.595394277887,None,,,,,,,,,,,,,,,,,,,21111,2019_Dec_16_1227,Mmi_3levels,3.1.5,59.98172808580886,
,,,2,0,6.3,,,,,,,,,0,1,1,1,0,21,21,11,,,,,,,,,,,,,,,,,,,,,,,,,,,,,,,,,,,,,,,,,,,,,,,,,,,,,,,,,,,,,False,True,True,0.56,0.56,13.32,-21.16,6.3,-14.86,-4.279999999999999,certain,certain,-4.279999999999999,63.95708333333329,700.1145430819597,None,700.1145430819597,None,700.1145430819597,None,700.1145430819597,None,700.1145430819597,None,700.1145430819597,None,700.1145430819597,None,3,2.451362427964341,700.1145430819597,None,702.598871224327,None,702.598871224327,None,702.598871224327,None,702.598871224327,None,702.598871224327,None,702.598871224327,None,702.598871224327,None,706.6004785040859,None,706.6004785040859,None,706.6004785040859,None,706.6004785040859,None,706.6004785040859,None,706.6004785040859,None,706.6004785040859,None,707.5841282802867,None,,,,,,,,,,,,,,,,,,,,,,,,,,,,,,21111,2019_Dec_16_1227,Mmi_3levels,3.1.5,59.98172808580886,
,,,2,0,6.7,,,,,,,,,0,1,1,1,0,22,22,1,,,,,,,,,,,,,,,,,,,,,,,,,,,,,,,,,,,,,,,,,,,,,,,,,,,,,,,,,,,,,False,False,False,0.56,0.56,13.88,3.116666666666667,1.675,-1.441666666666667,0.11666666666666647,certain,certain,0.11666666666666647,64.07374999999995,709.6015709295752,None,709.6015709295752,None,709.6015709295752,None,709.6015709295752,None,709.6015709295752,None,709.6015709295752,None,709.6015709295752,None,3,1.6840640915324911,709.6015709295752,None,711.3022210731287,None,711.3022210731287,None,711.3022210731287,None,711.3022210731287,None,711.3022210731287,None,711.3022210731287,None,711.3022210731287,None,715.3037566764397,None,715.3037566764397,None,715.3037566764397,None,715.3037566764397,None,715.3037566764397,None,715.3037566764397,None,715.3037566764397,None,724.8074195336085,None,716.3041355375317,None,717.304612633714,None,0.54,7.502793140592985,720.3056980195106,None,None,720.3056980195106,None,,,,,,,,,,,,,,,,,,,21111,2019_Dec_16_1227,Mmi_3levels,3.1.5,59.98172808580886,
,,,2,0,4.7,,,,,,,,,0,1,1,1,0,23,23,4,,,,,,,,,,,,,,,,,,,,,,,,,,,,,,,,,,,,,,,,,,,,,,,,,,,,,,,,,,,,,False,True,False,0.54,0.54,14.420000000000002,-21.980000000000004,4.7,-17.280000000000005,-6.290000000000003,certain,certain,-6.290000000000003,57.78374999999994,726.8248522633803,None,726.8248522633803,None,726.8248522633803,None,726.8248522633803,None,726.8248522633803,None,726.8248522633803,None,726.8248522633803,None,3,2.58457753789844,726.8248522633803,None,729.4425289489445,None,729.4425289489445,None,729.4425289489445,None,729.4425289489445,None,729.4425289489445,None,729.4425289489445,None,729.4425289489445,None,733.4273917845567,None,733.4273917845567,None,733.4273917845567,None,733.4273917845567,None,733.4273917845567,None,733.4273917845567,None,733.4273917845567,None,734.4277840849827,None,,,,,,,,,,,,,,,,,,,,,,,,,,,,,,21111,2019_Dec_16_1227,Mmi_3levels,3.1.5,59.98172808580886,
,,,2,0,13.5,,,,,,,,,0,1,1,1,0,24,24,21,,,,,,,,,,,,,,,,,,,,,,,,,,,,,,,,,,,,,,,,,,,,,,,,,,,,,,,,,,,,,False,True,True,0.54,0.54,14.96,-22.520000000000003,13.5,-9.020000000000003,-4.510000000000002,gamble,lose,-9.020000000000003,48.76374999999994,736.4452257743105,None,736.4452257743105,None,736.4452257743105,None,736.4452257743105,None,736.4452257743105,None,736.4452257743105,None,736.4452257743105,None,1,1.3674507768591866,736.4452257743105,None,737.8457609795732,None,737.8457609795732,None,737.8457609795732,None,737.8457609795732,None,737.8457609795732,None,737.8457609795732,None,737.8457609795732,None,741.8473241015454,None,741.8473241015454,None,741.8473241015454,None,741.8473241015454,None,741.8473241015454,None,741.8473241015454,None,741.8473241015454,None,742.8310148357414,None,,,,,,,,,,,,,,,,,,,,,,,,,,,,,,21111,2019_Dec_16_1227,Mmi_3levels,3.1.5,59.98172808580886,
,,,2,0,12.1,,,,,,,,,0,1,1,1,0,25,25,16,,,,,,,,,,,,,,,,,,,,,,,,,,,,,,,,,,,,,,,,,,,,,,,,,,,,,,,,,,,,,False,False,True,0.54,0.54,15.5,3.1816666666666666,3.025,-0.15666666666666673,1.4341666666666666,gamble,win,3.025,51.788749999999936,744.8484574849717,None,744.8484574849717,None,744.8484574849717,None,744.8484574849717,None,744.8484574849717,None,744.8484574849717,None,744.8484574849717,None,1,1.417474519694224,744.8484574849717,None,746.2990141931805,None,746.2990141931805,None,746.2990141931805,None,746.2990141931805,None,746.2990141931805,None,746.2990141931805,None,746.2990141931805,None,750.2838623095886,None,750.2838623095886,None,750.2838623095886,None,750.2838623095886,None,750.2838623095886,None,750.2838623095886,None,750.2838623095886,None,759.7875299665029,None,751.2842654894339,None,752.2846481903107,None,0.54,7.5027957004494965,755.2857825336978,None,None,755.2857825336978,None,,,,,,,,,,,,,,,,,,,21111,2019_Dec_16_1227,Mmi_3levels,3.1.5,59.98172808580886,
,,,2,0,9.5,,,,,,,,,0,1,1,1,0,26,26,24,,,,,,,,,,,,,,,,,,,,,,,,,,,,,,,,,,,,,,,,,,,,,,,,,,,,,,,,,,,,,False,True,True,0.54,0.54,16.04,-23.6,9.5,-14.100000000000001,-2.3000000000000007,gamble,lose,-14.100000000000001,37.688749999999935,761.8049911748385,None,761.8049911748385,None,761.8049911748385,None,761.8049911748385,None,761.8049911748385,None,761.8049911748385,None,761.8049911748385,None,1,1.6008464857004583,761.8049911748385,None,763.438934568374,None,763.438934568374,None,763.438934568374,None,763.438934568374,None,763.438934568374,None,763.438934568374,None,763.438934568374,None,767.4404925705749,None,767.4404925705749,None,767.4404925705749,None,767.4404925705749,None,767.4404925705749,None,767.4404925705749,None,767.4404925705749,None,768.4241823448101,None,,,,,,,,,,,,,,,,,,,,,,,,,,,,,,21111,2019_Dec_16_1227,Mmi_3levels,3.1.5,59.98172808580886,
,,,3,1,-0.9,,,,,,,,,0,2,2,2,0,0,0,26,,,,,,,,,,,,,,,,,,,,,,,,,,,,,,,,,,,,,,,,,,,,,,,,,773.4928089989698,None,0.56,7.502110294648446,776.4939023843617,None,None,,776.4939023843617,None,780.9956715760636,None,True,True,False,0.56,-0.43999999999999995,-0.43999999999999995,6.6,-0.9,-7.5,-4.2,certain,certain,-4.2,33.48874999999993,784.030195612635,None,784.030195612635,None,784.030195612635,None,784.030195612635,None,784.030195612635,None,784.030195612635,None,784.030195612635,None,3,2.017721035401337,784.030195612635,None,786.0809761176351,None,786.0809761176351,None,786.0809761176351,None,786.0809761176351,None,786.0809761176351,None,786.0809761176351,None,786.0809761176351,None,790.0825382796465,None,790.0825382796465,None,790.0825382796465,None,790.0825382796465,None,790.0825382796465,None,790.0825382796465,None,790.0825382796465,None,799.5695002105203,None,791.066201815207,None,792.0666161944973,None,0.59,7.502649467729498,795.0677057401044,None,None,795.0677057401044,None,770.4249544662307,None,4,3.0513932744506747,770.4249544662307,None,,,,,,,,,,,,,21111,2019_Dec_16_1227,Mmi_3levels,3.1.5,59.98172808580886,
,,,3,1,12.3,,,,,,,,,0,2,2,2,0,1,1,25,,,,,,,,,,,,,,,,,,,,,,,,,,,,,,,,,,,,,,,,,,,,,,,,,,,,,,,,,,,,,True,False,False,0.59,-0.41000000000000003,-0.85,-1.5058333333333334,12.3,10.794166666666667,5.397083333333334,gamble,lose,10.794166666666667,44.2829166666666,801.5870398149709,None,801.5870398149709,None,801.5870398149709,None,801.5870398149709,None,801.5870398149709,None,801.5870398149709,None,801.5870398149709,None,1,0.9505099905654788,801.5870398149709,None,802.5706463932875,None,802.5706463932875,None,802.5706463932875,None,802.5706463932875,None,802.5706463932875,None,802.5706463932875,None,802.5706463932875,None,806.5721925561083,None,806.5721925561083,None,806.5721925561083,None,806.5721925561083,None,806.5721925561083,None,806.5721925561083,None,806.5721925561083,None,807.5558992894948,None,,,,,,,,,,,,,,,,,,,,,,,,,,,,,,21111,2019_Dec_16_1227,Mmi_3levels,3.1.5,59.98172808580886,
,,,3,1,9.5,,,,,,,,,0,2,2,2,0,2,2,12,,,,,,,,,,,,,,,,,,,,,,,,,,,,,,,,,,,,,,,,,,,,,,,,,,,,,,,,,,,,,True,False,True,0.59,-0.41000000000000003,-1.26,-1.54,9.5,7.96,3.98,gamble,lose,7.96,52.2429166666666,809.5733476984315,None,809.5733476984315,None,809.5733476984315,None,809.5733476984315,None,809.5733476984315,None,809.5733476984315,None,809.5733476984315,None,1,1.033985183457844,809.5733476984315,None,810.6404224300641,None,810.6404224300641,None,810.6404224300641,None,810.6404224300641,None,810.6404224300641,None,810.6404224300641,None,810.6404224300641,None,814.6252833458129,None,814.6252833458129,None,814.6252833458129,None,814.6252833458129,None,814.6252833458129,None,814.6252833458129,None,814.6252833458129,None,815.6256718064542,None,,,,,,,,,,,,,,,,,,,,,,,,,,,,,,21111,2019_Dec_16_1227,Mmi_3levels,3.1.5,59.98172808580886,
,,,3,1,4.1,,,,,,,,,0,2,2,2,0,3,3,6,,,,,,,,,,,,,,,,,,,,,,,,,,,,,,,,,,,,,,,,,,,,,,,,,,,,,,,,,,,,,True,True,False,0.59,-0.41000000000000003,-1.67,7.41,4.1,-3.3100000000000005,0.3949999999999996,certain,certain,0.3949999999999996,52.6379166666666,817.6431688530138,None,817.6431688530138,None,817.6431688530138,None,817.6431688530138,None,817.6431688530138,None,817.6431688530138,None,817.6431688530138,None,3,2.251019789080601,817.6431688530138,None,819.9273277877946,None,819.9273277877946,None,819.9273277877946,None,819.9273277877946,None,819.9273277877946,None,819.9273277877946,None,819.9273277877946,None,823.9121781440335,None,823.9121781440335,None,823.9121781440335,None,823.9121781440335,None,823.9121781440335,None,823.9121781440335,None,823.9121781440335,None,833.4158432410914,None,824.9125778041198,None,825.9129585850751,None,0.57,7.502827378863003,828.9141386861447,None,None,828.9141386861447,None,,,,,,,,,,,,,,,,,,,21111,2019_Dec_16_1227,Mmi_3levels,3.1.5,59.98172808580886,
,,,3,1,8.5,,,,,,,,,0,2,2,2,0,4,4,23,,,,,,,,,,,,,,,,,,,,,,,,,,,,,,,,,,,,,,,,,,,,,,,,,,,,,,,,,,,,,True,True,True,0.57,-0.43000000000000005,-2.1,8.120000000000001,8.5,0.379999999999999,0.1899999999999995,gamble,win,8.5,61.1379166666666,835.4332874902757,None,835.4332874902757,None,835.4332874902757,None,835.4332874902757,None,835.4332874902757,None,835.4332874902757,None,835.4332874902757,None,1,1.034002462576609,835.4332874902757,None,836.5003683015821,None,836.5003683015821,None,836.5003683015821,None,836.5003683015821,None,836.5003683015821,None,836.5003683015821,None,836.5003683015821,None,840.4852237775922,None,840.4852237775922,None,840.4852237775922,None,840.4852237775922,None,840.4852237775922,None,840.4852237775922,None,840.4852237775922,None,841.4856115982402,None,,,,,,,,,,,,,,,,,,,,,,,,,,,,,,21111,2019_Dec_16_1227,Mmi_3levels,3.1.5,59.98172808580886,
,,,3,1,8.1,,,,,,,,,0,2,2,2,0,5,5,21,,,,,,,,,,,,,,,,,,,,,,,,,,,,,,,,,,,,,,,,,,,,,,,,,,,,,,,,,,,,,True,True,True,0.57,-0.43000000000000005,-2.5300000000000002,8.55,8.1,-0.45000000000000107,-0.22500000000000053,gamble,win,8.1,69.23791666666659,843.5030584072811,None,843.5030584072811,None,843.5030584072811,None,843.5030584072811,None,843.5030584072811,None,843.5030584072811,None,843.5030584072811,None,1,1.6008839238784276,843.5030584072811,None,845.137016520137,None,845.137016520137,None,845.137016520137,None,845.137016520137,None,845.137016520137,None,845.137016520137,None,845.137016520137,None,849.1218806356774,None,849.1218806356774,None,849.1218806356774,None,849.1218806356774,None,849.1218806356774,None,849.1218806356774,None,849.1218806356774,None,858.625536133186,None,850.1222716561751,None,851.1226501972997,None,0.6,7.5027848209720105,854.1237890204065,None,None,854.1237890204065,None,,,,,,,,,,,,,,,,,,,21111,2019_Dec_16_1227,Mmi_3levels,3.1.5,59.98172808580886,
,,,3,1,11.9,,,,,,,,,0,2,2,2,0,6,6,24,,,,,,,,,,,,,,,,,,,,,,,,,,,,,,,,,,,,,,,,,,,,,,,,,,,,,,,,,,,,,True,True,False,0.6,-0.4,-2.93,8.530000000000001,11.9,3.369999999999999,1.6849999999999996,gamble,win,11.9,81.1379166666666,860.6429832622525,None,860.6429832622525,None,860.6429832622525,None,860.6429832622525,None,860.6429832622525,None,860.6429832622525,None,860.6429832622525,None,1,1.0673182394821197,860.6429832622525,None,861.7434070490999,None,861.7434070490999,None,861.7434070490999,None,861.7434070490999,None,861.7434070490999,None,861.7434070490999,None,861.7434070490999,None,865.7282794842613,None,865.7282794842613,None,865.7282794842613,None,865.7282794842613,None,865.7282794842613,None,865.7282794842613,None,865.7282794842613,None,866.7286449060193,None,,,,,,,,,,,,,,,,,,,,,,,,,,,,,,21111,2019_Dec_16_1227,Mmi_3levels,3.1.5,59.98172808580886,
,,,3,1,4.3,,,,,,,,,0,2,2,2,0,7,7,19,,,,,,,,,,,,,,,,,,,,,,,,,,,,,,,,,,,,,,,,,,,,,,,,,,,,,,,,,,,,,True,True,True,0.6,-0.4,-3.33,8.93,4.3,-4.63,-0.16500000000000004,certain,certain,-0.16500000000000004,80.97291666666659,868.7460901151644,None,868.7460901151644,None,868.7460901151644,None,868.7460901151644,None,868.7460901151644,None,868.7460901151644,None,868.7460901151644,None,3,1.7510009100078605,868.7460901151644,None,870.5301140166703,None,870.5301140166703,None,870.5301140166703,None,870.5301140166703,None,870.5301140166703,None,870.5301140166703,None,870.5301140166703,None,874.5149640529999,None,874.5149640529999,None,874.5149640529999,None,874.5149640529999,None,874.5149640529999,None,874.5149640529999,None,874.5149640529999,None,884.018664668256,None,875.5153633930604,None,876.5157393742702,None,0.6,7.502812979568262,879.5168625182123,None,None,879.5168625182123,None,,,,,,,,,,,,,,,,,,,21111,2019_Dec_16_1227,Mmi_3levels,3.1.5,59.98172808580886,
,,,3,1,4.7,,,,,,,,,0,2,2,2,0,8,8,16,,,,,,,,,,,,,,,,,,,,,,,,,,,,,,,,,,,,,,,,,,,,,,,,,,,,,,,,,,,,,True,True,False,0.6,-0.4,-3.73,9.33,4.7,-4.63,0.03500000000000014,gamble,win,4.7,85.6729166666666,886.0360916382633,None,886.0360916382633,None,886.0360916382633,None,886.0360916382633,None,886.0360916382633,None,886.0360916382633,None,886.0360916382633,None,1,2.4345175088965334,886.0360916382633,None,888.5037233341136,None,888.5037233341136,None,888.5037233341136,None,888.5037233341136,None,888.5037233341136,None,888.5037233341136,None,888.5037233341136,None,892.4885791300912,None,892.4885791300912,None,892.4885791300912,None,892.4885791300912,None,892.4885791300912,None,892.4885791300912,None,892.4885791300912,None,893.4889451918425,None,,,,,,,,,,,,,,,,,,,,,,,,,,,,,,21111,2019_Dec_16_1227,Mmi_3levels,3.1.5,59.98172808580886,
,,,3,1,9.9,,,,,,,,,0,2,2,2,0,9,9,9,,,,,,,,,,,,,,,,,,,,,,,,,,,,,,,,,,,,,,,,,,,,,,,,,,,,,,,,,,,,,True,False,False,0.6,-0.4,-4.13,-1.7441666666666669,9.9,8.155833333333334,4.077916666666667,gamble,lose,8.155833333333334,93.82874999999993,895.5063907209551,None,895.5063907209551,None,895.5063907209551,None,895.5063907209551,None,895.5063907209551,None,895.5063907209551,None,895.5063907209551,None,1,1.167511317820754,895.5063907209551,None,896.7068421544391,None,896.7068421544391,None,896.7068421544391,None,896.7068421544391,None,896.7068421544391,None,896.7068421544391,None,896.7068421544391,None,900.6917094698292,None,900.6917094698292,None,900.6917094698292,None,900.6917094698292,None,900.6917094698292,None,900.6917094698292,None,900.6917094698292,None,901.6920950505883,None,,,,,,,,,,,,,,,,,,,,,,,,,,,,,,21111,2019_Dec_16_1227,Mmi_3levels,3.1.5,59.98172808580886,
,,,3,1,10.5,,,,,,,,,0,2,2,2,0,10,10,1,,,,,,,,,,,,,,,,,,,,,,,,,,,,,,,,,,,,,,,,,,,,,,,,,,,,,,,,,,,,,True,True,True,0.6,-0.4,-4.53,10.13,10.5,0.3699999999999992,0.1849999999999996,gamble,win,10.5,104.32874999999993,903.7095415396616,None,903.7095415396616,None,903.7095415396616,None,903.7095415396616,None,903.7095415396616,None,903.7095415396616,None,903.7095415396616,None,1,0.9339293782250024,903.7095415396616,None,904.6765713455388,None,904.6765713455388,None,904.6765713455388,None,904.6765713455388,None,904.6765713455388,None,904.6765713455388,None,904.6765713455388,None,908.6614437807002,None,908.6614437807002,None,908.6614437807002,None,908.6614437807002,None,908.6614437807002,None,908.6614437807002,None,908.6614437807002,None,918.165102798026,None,909.661832561309,None,910.6622267815983,None,0.6,7.502769781742245,913.6633480056189,None,None,913.6633480056189,None,,,,,,,,,,,,,,,,,,,21111,2019_Dec_16_1227,Mmi_3levels,3.1.5,59.98172808580886,
,,,3,1,0.3,,,,,,,,,0,2,2,2,0,11,11,0,,,,,,,,,,,,,,,,,,,,,,,,,,,,,,,,,,,,,,,,,,,,,,,,,,,,,,,,,,,,,True,True,False,0.6,-0.4,-4.930000000000001,10.530000000000001,0.3,-10.23,-4.965,certain,certain,-4.965,99.36374999999992,920.1825390476151,None,920.1825390476151,None,920.1825390476151,None,920.1825390476151,None,920.1825390476151,None,920.1825390476151,None,920.1825390476151,None,3,1.434129368280992,920.1825390476151,None,921.6497710833792,None,921.6497710833792,None,921.6497710833792,None,921.6497710833792,None,921.6497710833792,None,921.6497710833792,None,921.6497710833792,None,925.634635838971,None,925.634635838971,None,925.634635838971,None,925.634635838971,None,925.634635838971,None,925.634635838971,None,925.634635838971,None,926.6350194998085,None,,,,,,,,,,,,,,,,,,,,,,,,,,,,,,21111,2019_Dec_16_1227,Mmi_3levels,3.1.5,59.98172808580886,
,,,3,1,8.3,,,,,,,,,0,2,2,2,0,12,12,13,,,,,,,,,,,,,,,,,,,,,,,,,,,,,,,,,,,,,,,,,,,,,,,,,,,,,,,,,,,,,True,True,False,0.6,-0.4,-5.330000000000001,10.930000000000001,8.3,-2.630000000000001,-1.3150000000000004,gamble,win,8.3,107.66374999999992,928.6524595891824,None,928.6524595891824,None,928.6524595891824,None,928.6524595891824,None,928.6524595891824,None,928.6524595891824,None,928.6524595891824,None,1,1.3839501132024452,928.6524595891824,None,930.0696762017324,None,930.0696762017324,None,930.0696762017324,None,930.0696762017324,None,930.0696762017324,None,930.0696762017324,None,930.0696762017324,None,934.0712127650622,None,934.0712127650622,None,934.0712127650622,None,934.0712127650622,None,934.0712127650622,None,934.0712127650622,None,934.0712127650622,None,943.558211174095,None,935.0549262180575,None,936.0553076390061,None,0.6,7.502817779313773,939.0565558967064,None,None,939.0565558967064,None,,,,,,,,,,,,,,,,,,,21111,2019_Dec_16_1227,Mmi_3levels,3.1.5,59.98172808580886,
,,,3,1,3.9,,,,,,,,,0,2,2,2,0,13,13,3,,,,,,,,,,,,,,,,,,,,,,,,,,,,,,,,,,,,,,,,,,,,,,,,,,,,,,,,,,,,,True,True,False,0.6,-0.4,-5.730000000000001,11.330000000000002,3.9,-7.4300000000000015,-1.7650000000000008,certain,certain,-1.7650000000000008,105.89874999999992,945.5756407040171,None,945.5756407040171,None,945.5756407040171,None,945.5756407040171,None,945.5756407040171,None,945.5756407040171,None,945.5756407040171,None,3,1.3841094652889296,945.5756407040171,None,946.9928509168676,None,946.9928509168676,None,946.9928509168676,None,946.9928509168676,None,946.9928509168676,None,946.9928509168676,None,946.9928509168676,None,950.9777153524337,None,950.9777153524337,None,950.9777153524337,None,950.9777153524337,None,950.9777153524337,None,950.9777153524337,None,950.9777153524337,None,951.978100613167,None,,,,,,,,,,,,,,,,,,,,,,,,,,,,,,21111,2019_Dec_16_1227,Mmi_3levels,3.1.5,59.98172808580886,
,,,3,1,13.3,,,,,,,,,0,2,2,2,0,14,14,14,,,,,,,,,,,,,,,,,,,,,,,,,,,,,,,,,,,,,,,,,,,,,,,,,,,,,,,,,,,,,True,False,False,0.6,-0.4,-6.130000000000002,-1.9108333333333336,13.3,11.389166666666668,5.694583333333334,gamble,lose,11.389166666666668,117.28791666666659,953.9955400626059,None,953.9955400626059,None,953.9955400626059,None,953.9955400626059,None,953.9955400626059,None,953.9955400626059,None,953.9955400626059,None,1,0.7672273000353016,953.9955400626059,None,954.7958473112667,None,954.7958473112667,None,954.7958473112667,None,954.7958473112667,None,954.7958473112667,None,954.7958473112667,None,954.7958473112667,None,958.7973867544206,None,958.7973867544206,None,958.7973867544206,None,958.7973867544206,None,958.7973867544206,None,958.7973867544206,None,958.7973867544206,None,959.7810992475133,None,,,,,,,,,,,,,,,,,,,,,,,,,,,,,,21111,2019_Dec_16_1227,Mmi_3levels,3.1.5,59.98172808580886,
,,,3,1,10.9,,,,,,,,,0,2,2,2,0,15,15,2,,,,,,,,,,,,,,,,,,,,,,,,,,,,,,,,,,,,,,,,,,,,,,,,,,,,,,,,,,,,,True,False,False,0.6,-0.4,-6.530000000000002,-1.9441666666666668,10.9,8.955833333333334,4.477916666666667,gamble,lose,8.955833333333334,126.24374999999992,961.7985370969982,None,961.7985370969982,None,961.7985370969982,None,961.7985370969982,None,961.7985370969982,None,961.7985370969982,None,961.7985370969982,None,1,0.7338628855650313,961.7985370969982,None,962.565505849896,None,962.565505849896,None,962.565505849896,None,962.565505849896,None,962.565505849896,None,962.565505849896,None,962.565505849896,None,966.5504026038689,None,966.5504026038689,None,966.5504026038689,None,966.5504026038689,None,966.5504026038689,None,966.5504026038689,None,966.5504026038689,None,976.0540289828787,None,967.5508531414089,None,968.5512435219134,None,0.6,7.502784180978779,971.5523615460843,None,None,971.5523615460843,None,,,,,,,,,,,,,,,,,,,21111,2019_Dec_16_1227,Mmi_3levels,3.1.5,59.98172808580886,
,,,3,1,5.7,,,,,,,,,0,2,2,2,0,16,16,5,,,,,,,,,,,,,,,,,,,,,,,,,,,,,,,,,,,,,,,,,,,,,,,,,,,,,,,,,,,,,True,False,False,0.6,-0.4,-6.930000000000002,-1.9775000000000005,5.7,3.7224999999999997,1.8612499999999998,gamble,lose,3.7224999999999997,129.96624999999992,978.0714796317043,None,978.0714796317043,None,978.0714796317043,None,978.0714796317043,None,978.0714796317043,None,978.0714796317043,None,978.0714796317043,None,1,0.7005160702392459,978.0714796317043,None,978.8050810903078,None,978.8050810903078,None,978.8050810903078,None,978.8050810903078,None,978.8050810903078,None,978.8050810903078,None,978.8050810903078,None,982.7899400861934,None,982.7899400861934,None,982.7899400861934,None,982.7899400861934,None,982.7899400861934,None,982.7899400861934,None,982.7899400861934,None,983.7903259869199,None,,,,,,,,,,,,,,,,,,,,,,,,,,,,,,21111,2019_Dec_16_1227,Mmi_3levels,3.1.5,59.98172808580886,
,,,3,1,2.9,,,,,,,,,0,2,2,2,0,17,17,15,,,,,,,,,,,,,,,,,,,,,,,,,,,,,,,,,,,,,,,,,,,,,,,,,,,,,,,,,,,,,True,True,True,0.6,-0.4,-7.330000000000003,12.930000000000003,2.9,-10.030000000000003,-3.5650000000000013,certain,certain,-3.5650000000000013,126.40124999999992,985.8077705560718,None,985.8077705560718,None,985.8077705560718,None,985.8077705560718,None,985.8077705560718,None,985.8077705560718,None,985.8077705560718,None,3,1.2173965075635351,985.8077705560718,None,987.0582543719211,None,987.0582543719211,None,987.0582543719211,None,987.0582543719211,None,987.0582543719211,None,987.0582543719211,None,987.0582543719211,None,991.0598062944482,None,991.0598062944482,None,991.0598062944482,None,991.0598062944482,None,991.0598062944482,None,991.0598062944482,None,991.0598062944482,None,1000.546865180484,None,992.0435050281812,None,993.0439642053097,None,0.6,7.502765301964246,996.0450303920661,None,None,996.0450303920661,None,,,,,,,,,,,,,,,,,,,21111,2019_Dec_16_1227,Mmi_3levels,3.1.5,59.98172808580886,
,,,3,1,8.9,,,,,,,,,0,2,2,2,0,18,18,7,,,,,,,,,,,,,,,,,,,,,,,,,,,,,,,,,,,,,,,,,,,,,,,,,,,,,,,,,,,,,True,False,False,0.6,-0.4,-7.730000000000003,-2.044166666666667,8.9,6.855833333333333,3.4279166666666665,gamble,lose,6.855833333333333,133.25708333333324,1002.5642191941733,None,1002.5642191941733,None,1002.5642191941733,None,1002.5642191941733,None,1002.5642191941733,None,1002.5642191941733,None,1002.5642191941733,None,1,0.7338692852645181,1002.5642191941733,None,1003.3311764276586,None,1003.3311764276586,None,1003.3311764276586,None,1003.3311764276586,None,1003.3311764276586,None,1003.3311764276586,None,1003.3311764276586,None,1007.3160379833425,None,1007.3160379833425,None,1007.3160379833425,None,1007.3160379833425,None,1007.3160379833425,None,1007.3160379833425,None,1007.3160379833425,None,1008.3164280438796,None,,,,,,,,,,,,,,,,,,,,,,,,,,,,,,21111,2019_Dec_16_1227,Mmi_3levels,3.1.5,59.98172808580886,
,,,3,1,0.9,,,,,,,,,0,2,2,2,0,19,19,20,,,,,,,,,,,,,,,,,,,,,,,,,,,,,,,,,,,,,,,,,,,,,,,,,,,,,,,,,,,,,True,True,True,0.6,-0.4,-8.130000000000003,13.730000000000004,0.9,-12.830000000000004,-5.965000000000002,certain,certain,-5.965000000000002,127.29208333333324,1010.3339711681474,None,1010.3339711681474,None,1010.3339711681474,None,1010.3339711681474,None,1010.3339711681474,None,1010.3339711681474,None,1010.3339711681474,None,3,1.067230243817903,1010.3339711681474,None,1011.4342932000873,None,1011.4342932000873,None,1011.4342932000873,None,1011.4342932000873,None,1011.4342932000873,None,1011.4342932000873,None,1011.4342932000873,None,1015.4358316832804,None,1015.4358316832804,None,1015.4358316832804,None,1015.4358316832804,None,1015.4358316832804,None,1015.4358316832804,None,1015.4358316832804,None,1024.9228172929143,None,1016.4195435363799,None,1017.419929757074,None,0.71,7.502823219052516,1020.4210663403501,None,None,1020.4210663403501,None,,,,,,,,,,,,,,,,,,,21111,2019_Dec_16_1227,Mmi_3levels,3.1.5,59.98172808580886,
,,,3,1,11.1,,,,,,,,,0,2,2,2,0,20,20,17,,,,,,,,,,,,,,,,,,,,,,,,,,,,,,,,,,,,,,,,,,,,,,,,,,,,,,,,,,,,,True,False,False,0.71,-0.29000000000000004,-8.420000000000002,-1.7166666666666668,11.1,9.383333333333333,4.691666666666666,gamble,lose,9.383333333333333,136.67541666666656,1026.9402557823923,None,1026.9402557823923,None,1026.9402557823923,None,1026.9402557823923,None,1026.9402557823923,None,1026.9402557823923,None,1026.9402557823923,None,1,0.7838821485638618,1026.9402557823923,None,1027.7572364387452,None,1027.7572364387452,None,1027.7572364387452,None,1027.7572364387452,None,1027.7572364387452,None,1027.7572364387452,None,1027.7572364387452,None,1031.742097994429,None,1031.742097994429,None,1031.742097994429,None,1031.742097994429,None,1031.742097994429,None,1031.742097994429,None,1031.742097994429,None,1032.742483575188,None,,,,,,,,,,,,,,,,,,,,,,,,,,,,,,21111,2019_Dec_16_1227,Mmi_3levels,3.1.5,59.98172808580886,
,,,3,1,-0.1,,,,,,,,,0,2,2,2,0,21,21,10,,,,,,,,,,,,,,,,,,,,,,,,,,,,,,,,,,,,,,,,,,,,,,,,,,,,,,,,,,,,,True,False,True,0.71,-0.29000000000000004,-8.71,-1.7408333333333337,-0.1,-1.8408333333333338,-0.9704166666666669,certain,certain,-0.9704166666666669,135.7049999999999,1034.7599284643657,None,1034.7599284643657,None,1034.7599284643657,None,1034.7599284643657,None,1034.7599284643657,None,1034.7599284643657,None,1034.7599284643657,None,3,2.9347210187697783,1034.7599284643657,None,1037.7277361513698,None,1037.7277361513698,None,1037.7277361513698,None,1037.7277361513698,None,1037.7277361513698,None,1037.7277361513698,None,1037.7277361513698,None,1041.7125957871904,None,1041.7125957871904,None,1041.7125957871904,None,1041.7125957871904,None,1041.7125957871904,None,1041.7125957871904,None,1041.7125957871904,None,1042.7129807279562,None,,,,,,,,,,,,,,,,,,,,,,,,,,,,,,21111,2019_Dec_16_1227,Mmi_3levels,3.1.5,59.98172808580886,
,,,3,1,6.5,,,,,,,,,0,2,2,2,0,22,22,22,,,,,,,,,,,,,,,,,,,,,,,,,,,,,,,,,,,,,,,,,,,,,,,,,,,,,,,,,,,,,True,False,True,0.71,-0.29000000000000004,-9.0,-1.7650000000000001,6.5,4.734999999999999,2.3674999999999997,gamble,lose,4.734999999999999,140.43999999999988,1044.7304300969117,None,1044.7304300969117,None,1044.7304300969117,None,1044.7304300969117,None,1044.7304300969117,None,1044.7304300969117,None,1044.7304300969117,None,1,1.1340326690697111,1044.7304300969117,None,1045.8975446345285,None,1045.8975446345285,None,1045.8975446345285,None,1045.8975446345285,None,1045.8975446345285,None,1045.8975446345285,None,1045.8975446345285,None,1049.8990847176756,None,1049.8990847176756,None,1049.8990847176756,None,1049.8990847176756,None,1049.8990847176756,None,1049.8990847176756,None,1049.8990847176756,None,1059.3860690473812,None,1050.8827914510039,None,1051.8831811915734,None,0.62,7.502628028800245,1054.8842918561422,None,None,1054.8842918561422,None,,,,,,,,,,,,,,,,,,,21111,2019_Dec_16_1227,Mmi_3levels,3.1.5,59.98172808580886,
,,,3,1,7.1,,,,,,,,,0,2,2,2,0,23,23,11,,,,,,,,,,,,,,,,,,,,,,,,,,,,,,,,,,,,,,,,,,,,,,,,,,,,,,,,,,,,,True,True,True,0.62,-0.38,-9.38,14.700000000000001,7.1,-7.600000000000001,-0.2500000000000009,certain,certain,-0.2500000000000009,140.18999999999988,1061.4035036970745,None,1061.4035036970745,None,1061.4035036970745,None,1061.4035036970745,None,1061.4035036970745,None,1061.4035036970745,None,1061.4035036970745,None,3,2.034205652482342,1061.4035036970745,None,1063.454296681506,None,1063.454296681506,None,1063.454296681506,None,1063.454296681506,None,1063.454296681506,None,1063.454296681506,None,1063.454296681506,None,1067.455831644882,None,1067.455831644882,None,1067.455831644882,None,1067.455831644882,None,1067.455831644882,None,1067.455831644882,None,1067.455831644882,None,1068.4562188255368,None,,,,,,,,,,,,,,,,,,,,,,,,,,,,,,21111,2019_Dec_16_1227,Mmi_3levels,3.1.5,59.98172808580886,
,,,3,1,7.3,,,,,,,,,0,2,2,2,0,24,24,18,,,,,,,,,,,,,,,,,,,,,,,,,,,,,,,,,,,,,,,,,,,,,,,,,,,,,,,,,,,,,True,True,False,0.62,-0.38,-9.760000000000002,15.080000000000002,7.3,-7.780000000000002,-0.2400000000000011,certain,certain,-0.2400000000000011,139.94999999999987,1070.4736557150609,None,1070.4736557150609,None,1070.4736557150609,None,1070.4736557150609,None,1070.4736557150609,None,1070.4736557150609,None,1070.4736557150609,None,3,1.667555795633234,1070.4736557150609,None,1072.174317378027,None,1072.174317378027,None,1072.174317378027,None,1072.174317378027,None,1072.174317378027,None,1072.174317378027,None,1072.174317378027,None,1076.1591731740627,None,1076.1591731740627,None,1076.1591731740627,None,1076.1591731740627,None,1076.1591731740627,None,1076.1591731740627,None,1076.1591731740627,None,1085.6628635498346,None,1077.1595625946065,None,1078.1599446555483,None,0.57,7.502939053287264,1081.1610873184982,None,None,1081.1610873184982,None,,,,,,,,,,,,,,,,,,,21111,2019_Dec_16_1227,Mmi_3levels,3.1.5,59.98172808580886,
,,,3,1,3.1,,,,,,,,,0,2,2,2,0,25,25,8,,,,,,,,,,,,,,,,,,,,,,,,,,,,,,,,,,,,,,,,,,,,,,,,,,,,,,,,,,,,,True,True,True,0.57,-0.43000000000000005,-10.190000000000001,16.21,3.1,-13.110000000000001,-5.005000000000001,certain,certain,-5.005000000000001,134.94499999999988,1087.6802748406772,None,1087.6802748406772,None,1087.6802748406772,None,1087.6802748406772,None,1087.6802748406772,None,1087.6802748406772,None,1087.6802748406772,None,3,1.1006733743706718,1087.6802748406772,None,1088.8140473627136,None,1088.8140473627136,None,1088.8140473627136,None,1088.8140473627136,None,1088.8140473627136,None,1088.8140473627136,None,1088.8140473627136,None,1092.7989137182012,None,1092.7989137182012,None,1092.7989137182012,None,1092.7989137182012,None,1092.7989137182012,None,1092.7989137182012,None,1092.7989137182012,None,1093.7992743402137,None,,,,,,,,,,,,,,,,,,,,,,,,,,,,,,21111,2019_Dec_16_1227,Mmi_3levels,3.1.5,59.98172808580886,
,,,3,1,6.1,,,,,,,,,0,2,2,2,0,26,26,4,,,,,,,,,,,,,,,,,,,,,,,,,,,,,,,,,,,,,,,,,,,,,,,,,,,,,,,,,,,,,True,True,True,0.57,-0.43000000000000005,-10.620000000000001,16.64,6.1,-10.540000000000001,-2.2200000000000006,certain,certain,-2.2200000000000006,132.72499999999988,1095.8167368284776,None,1095.8167368284776,None,1095.8167368284776,None,1095.8167368284776,None,1095.8167368284776,None,1095.8167368284776,None,1095.8167368284776,None,3,1.7007240598322824,1095.8167368284776,None,1097.5508393820492,None,1097.5508393820492,None,1097.5508393820492,None,1097.5508393820492,None,1097.5508393820492,None,1097.5508393820492,None,1097.5508393820492,None,1101.5356020627078,None,1101.5356020627078,None,1101.5356020627078,None,1101.5356020627078,None,1101.5356020627078,None,1101.5356020627078,None,1101.5356020627078,None,1111.0392575602164,None,1102.5359438056475,None,1103.5363661845913,None,0.64,7.502795060456265,1106.537508207548,None,None,1106.537508207548,None,,,,,,,,,,,,,,,,,,,21111,2019_Dec_16_1227,Mmi_3levels,3.1.5,59.98172808580886,
,,,,,,,,,,,,,,,,,,,,,,,,,,,,,,0,0,0,0,,,,,,,,,,,,,,,,,,,,,,,,,,,,,,,,,,,,,,,,,,,,,,,,,,,,,,,,,,,,,,,,,,,,,,,,,,,,,,,,,,,,,,,,,,,,,,,,,,,,,,,,,,,,,,,,,,,,,,,,,,1113.0400184822502,None,4,1.9509733274462633,1113.0400184822502,None,132.72499999999988,4,1115.02422247082,None,1115.02422247082,None,1115.02422247082,None,4,6.719355769746471,1115.02422247082,None,21111,2019_Dec_16_1227,Mmi_3levels,3.1.5,59.98172808580886,
