currSlide,currImage,currText,blockNum,targetHappiness,highAmount,instructionLoop1.thisRepN,instructionLoop1.thisTrialN,instructionLoop1.thisN,instructionLoop1.thisIndex,instructionLoop2.thisRepN,instructionLoop2.thisTrialN,instructionLoop2.thisN,instructionLoop2.thisIndex,blockLoop.thisRepN,blockLoop.thisTrialN,blockLoop.thisN,blockLoop.thisIndex,trialLoop.thisRepN,trialLoop.thisTrialN,trialLoop.thisN,trialLoop.thisIndex,doRatingLoop.thisRepN,doRatingLoop.thisTrialN,doRatingLoop.thisN,doRatingLoop.thisIndex,trialHappyLoop.thisRepN,trialHappyLoop.thisTrialN,trialHappyLoop.thisN,trialHappyLoop.thisIndex,logWinningsLoop.thisRepN,logWinningsLoop.thisTrialN,logWinningsLoop.thisN,logWinningsLoop.thisIndex,instrImage.started,instrImage.stopped,instrText.started,instrText.stopped,instrContinueText.started,instrContinueText.stopped,instrKeyResp.keys,instrKeyResp.rt,instrKeyResp.started,instrKeyResp.stopped,lifeHappyText.started,lifeHappyText.stopped,lifeHappySlider.response,lifeHappySlider.rt,lifeHappySlider.started,lifeHappySlider.stopped,lifeHappyResp.keys,lifeHappyResp.started,lifeHappyResp.stopped,instrImage_2.started,instrImage_2.stopped,instrText_2.started,instrText_2.stopped,instrContinueText_2.started,instrContinueText_2.stopped,instrKeyResp_2.keys,instrKeyResp_2.rt,instrKeyResp_2.started,instrKeyResp_2.stopped,localizing.started,localizing.stopped,start_exp.keys,start_exp.rt,start_exp.started,start_exp.stopped,blockHappyText.started,blockHappyText.stopped,blockHappySlider.response,blockHappySlider.rt,blockHappySlider.started,blockHappySlider.stopped,blockHappyResp.keys,blockHappyResp.started,blockHappyResp.stopped,blankText.started,blankText.stopped,isHappyBlock,isCongruent,isWinOnTop,lastHappyRating,diff,sumDiff,RPE,winAmount,loseAmount,certainAmount,choice,outcome,outcomeAmount,currentWinnings,fixCross.started,fixCross.stopped,certainBox.started,certainBox.stopped,outcome1Box.started,outcome1Box.stopped,outcome2Box.started,outcome2Box.stopped,certainText.started,certainText.stopped,outcome1Text.started,outcome1Text.stopped,outcome2Text.started,outcome2Text.stopped,choiceKey.keys,choiceKey.rt,choiceKey.started,choiceKey.stopped,fixCross_2.started,fixCross_2.stopped,certainBox_2.started,certainBox_2.stopped,outcome1Box_2.started,outcome1Box_2.stopped,outcome2Box_2.started,outcome2Box_2.stopped,certainText_2.started,certainText_2.stopped,outcome1Text_2.started,outcome1Text_2.stopped,outcome2Text_2.started,outcome2Text_2.stopped,fixCross_3.started,fixCross_3.stopped,certainBox_3.started,certainBox_3.stopped,outcome1Box_3.started,outcome1Box_3.stopped,outcome2Box_3.started,outcome2Box_3.stopped,certainText_3.started,certainText_3.stopped,outcome1Text_3.started,outcome1Text_3.stopped,outcome2Text_3.started,outcome2Text_3.stopped,fixCross_ITI.started,fixCross_ITI.stopped,fixCross_ISI.started,fixCross_ISI.stopped,happyText.started,happyText.stopped,happySlider.response,happySlider.rt,happySlider.started,happySlider.stopped,happyResp.keys,happyResp.started,happyResp.stopped,endOfBlockText.started,endOfBlockText.stopped,restKeyResp.keys,restKeyResp.rt,restKeyResp.started,restKeyResp.stopped,finalWinnings,cashBonus,goodbyeText.started,goodbyeText.stopped,finalWinningsText.started,finalWinningsText.stopped,spaceToContinue.started,spaceToContinue.stopped,goodbyeKeyResp_2.keys,goodbyeKeyResp_2.rt,goodbyeKeyResp_2.started,goodbyeKeyResp_2.stopped,participant,date,expName,psychopyVersion,frameRate,
1,black.png,"Welcome! You are about to play our gambling task.
This task has 3 blocks and takes about 15 minutes.",,,,0,0,0,0,,,,,,,,,,,,,,,,,,,,,,,,,17.146055576286017,None,17.146055576286017,None,17.146055576286017,None,4,4.235258768712811,17.146055576286017,None,,,,,,,,,,,,,,,,,,,,,,,,,,,,,,,,,,,,,,,,,,,,,,,,,,,,,,,,,,,,,,,,,,,,,,,,,,,,,,,,,,,,,,,,,,,,,,,,,,,,,,,,,,,,,,,,,,,,,,,,,,,,,,,,23593,2019_Nov_15_1348,Mmi_3levels,3.1.5,59.96047590107259,
2,black.png,"In this game, you may win or lose points. Your goal is to get as many points as possible. These points will be converted to a cash bonus at the end.
Sometimes we will ask you to rate your mood.",,,,0,1,1,1,,,,,,,,,,,,,,,,,,,,,,,,,21.431140177133784,None,21.431140177133784,None,21.431140177133784,None,4,5.302280917436292,21.431140177133784,None,,,,,,,,,,,,,,,,,,,,,,,,,,,,,,,,,,,,,,,,,,,,,,,,,,,,,,,,,,,,,,,,,,,,,,,,,,,,,,,,,,,,,,,,,,,,,,,,,,,,,,,,,,,,,,,,,,,,,,,,,,,,,,,,23593,2019_Nov_15_1348,Mmi_3levels,3.1.5,59.96047590107259,
3,black.png,"On the next screen, please rate how you feel about your life these days. Use the LEFT (green) and RIGHT (blue) buttons to move the slider (you can press and hold them to slide gradually) and the TOP (red) button to lock in your response.
Make your rating as accurately and quickly as you can!",,,,0,2,2,2,,,,,,,,,,,,,,,,,,,,,,,,,26.783209808440006,None,26.783209808440006,None,26.783209808440006,None,4,4.201847849668411,26.783209808440006,None,,,,,,,,,,,,,,,,,,,,,,,,,,,,,,,,,,,,,,,,,,,,,,,,,,,,,,,,,,,,,,,,,,,,,,,,,,,,,,,,,,,,,,,,,,,,,,,,,,,,,,,,,,,,,,,,,,,,,,,,,,,,,,,,23593,2019_Nov_15_1348,Mmi_3levels,3.1.5,59.96047590107259,
,,,,,,,,,,,,,,,,,,,,,,,,,,,,,,,,,,,,,,,,,,,,31.00150968946764,None,0.3,10.502902904376242,35.00305489727543,None,None,35.00305489727543,None,,,,,,,,,,,,,,,,,,,,,,,,,,,,,,,,,,,,,,,,,,,,,,,,,,,,,,,,,,,,,,,,,,,,,,,,,,,,,,,,,,,,,,,,,,,,,,,,,,,,,,,,,,,,,,,,,,,,,,,23593,2019_Nov_15_1348,Mmi_3levels,3.1.5,59.96047590107259,
4,black.png,"In this game you can win money by earning points according to your choices. You will decide whether to gamble a number of points or stick with a guaranteed number of points. 
Make your choice by pressing the left or right arrow key once. An example of one trial is shown on the next screen.",,,,,,,,0,0,0,0,,,,,,,,,,,,,,,,,,,,,,,,,,,,,,,,,,,,,,,,41.5389511402027,None,41.5389511402027,None,41.5389511402027,None,4,3.5016376834864786,41.5389511402027,None,,,,,,,,,,,,,,,,,,,,,,,,,,,,,,,,,,,,,,,,,,,,,,,,,,,,,,,,,,,,,,,,,,,,,,,,,,,,,,,,,,,,,,,,,,,,,,,,,,,,,,,,,,,,,23593,2019_Nov_15_1348,Mmi_3levels,3.1.5,59.96047590107259,
5,example_start.png,"The GAMBLING OPTION will be shown on the RIGHT SIDE. 
Select this option using the RIGHT (blue) button on your keypad.",,,,,,,,0,1,1,1,,,,,,,,,,,,,,,,,,,,,,,,,,,,,,,,,,,,,,,,45.10698380171743,None,45.10698380171743,None,45.10698380171743,None,4,2.6345844322131597,45.10698380171743,None,,,,,,,,,,,,,,,,,,,,,,,,,,,,,,,,,,,,,,,,,,,,,,,,,,,,,,,,,,,,,,,,,,,,,,,,,,,,,,,,,,,,,,,,,,,,,,,,,,,,,,,,,,,,,23593,2019_Nov_15_1348,Mmi_3levels,3.1.5,59.96047590107259,
6,example_gamble.png,"Once you select the gambling choice, the choice you made will remain on the screen.",,,,,,,,0,2,2,2,,,,,,,,,,,,,,,,,,,,,,,,,,,,,,,,,,,,,,,,47.77467516717661,None,47.77467516717661,None,47.77467516717661,None,4,0.9672716090717586,47.77467516717661,None,,,,,,,,,,,,,,,,,,,,,,,,,,,,,,,,,,,,,,,,,,,,,,,,,,,,,,,,,,,,,,,,,,,,,,,,,,,,,,,,,,,,,,,,,,,,,,,,,,,,,,,,,,,,,23593,2019_Nov_15_1348,Mmi_3levels,3.1.5,59.96047590107259,
7,example_win.png,"The outcome you received will then be shown on the screen. In this example , you WON 10 points.",,,,,,,,0,3,3,3,,,,,,,,,,,,,,,,,,,,,,,,,,,,,,,,,,,,,,,,48.775070028728805,None,48.775070028728805,None,48.775070028728805,None,4,0.5672102999342314,48.775070028728805,None,,,,,,,,,,,,,,,,,,,,,,,,,,,,,,,,,,,,,,,,,,,,,,,,,,,,,,,,,,,,,,,,,,,,,,,,,,,,,,,,,,,,,,,,,,,,,,,,,,,,,,,,,,,,,23593,2019_Nov_15_1348,Mmi_3levels,3.1.5,59.96047590107259,
8,example_start.png,"The GUARANTEED OPTION will be shown on the LEFT SIDE. You are 100% guaranteed to gain or lose this amount. In this example, you have a 100% chance of winning 1 point. Select this option using the LEFT (green) button on your keyboard.",,,,,,,,0,4,4,4,,,,,,,,,,,,,,,,,,,,,,,,,,,,,,,,,,,,,,,,49.39197752681139,None,49.39197752681139,None,49.39197752681139,None,4,2.1343690822759527,49.39197752681139,None,,,,,,,,,,,,,,,,,,,,,,,,,,,,,,,,,,,,,,,,,,,,,,,,,,,,,,,,,,,,,,,,,,,,,,,,,,,,,,,,,,,,,,,,,,,,,,,,,,,,,,,,,,,,,23593,2019_Nov_15_1348,Mmi_3levels,3.1.5,59.96047590107259,
9,example_certain.png,"Once you select the guaranteed choice, your selection will remain on the screen.",,,,,,,,0,5,5,5,,,,,,,,,,,,,,,,,,,,,,,,,,,,,,,,,,,,,,,,51.55948810071641,None,51.55948810071641,None,51.55948810071641,None,4,2.717996215218591,51.55948810071641,None,,,,,,,,,,,,,,,,,,,,,,,,,,,,,,,,,,,,,,,,,,,,,,,,,,,,,,,,,,,,,,,,,,,,,,,,,,,,,,,,,,,,,,,,,,,,,,,,,,,,,,,,,,,,,23593,2019_Nov_15_1348,Mmi_3levels,3.1.5,59.96047590107259,
10,black.png,"Please make your choices as fast as possible.
You will be given a break at the end of each block.
Let's play!",,,,,,,,0,6,6,6,,,,,,,,,,,,,,,,,,,,,,,,,,,,,,,,,,,,,,,,54.310550291091204,None,54.310550291091204,None,54.310550291091204,None,4,2.234252095742704,54.310550291091204,None,,,,,,,,,,,,,,,,,,,,,,,,,,,,,,,,,,,,,,,,,,,,,,,,,,,,,,,,,,,,,,,,,,,,,,,,,,,,,,,,,,,,,,,,,,,,,,,,,,,,,,,,,,,,,23593,2019_Nov_15_1348,Mmi_3levels,3.1.5,59.96047590107259,
,,,,,,,,,,,,,,,,,,,,,,,,,,,,,,,,,,,,,,,,,,,,,,,,,,,,,,,,,,,,,,,56.56144256940388,None,space,36.53105838895135,56.56144256940388,None,,,,,,,,,,,,,,,,,,,,,,,,,,,,,,,,,,,,,,,,,,,,,,,,,,,,,,,,,,,,,,,,,,,,,,,,,,,,,,,,,,,,,,,,,,,,,,,,,,,,,,,23593,2019_Nov_15_1348,Mmi_3levels,3.1.5,59.96047590107259,
,,,1,1,9.7,,,,,,,,,0,0,0,0,0,0,0,22,,,,,,,,,,,,,,,,,,,,,,,,,,,,,,,,,,,,,,,,,,,,,,,,93.10896674907417,None,0.26,7.496241455599375,96.12672623935214,None,None,96.12672623935214,None,100.61185365419806,None,True,True,True,0.26,-0.74,-0.74,11.1,9.7,-1.4000000000000004,-0.7000000000000002,gamble,win,9.7,9.7,103.64634100295007,None,103.64634100295007,None,103.64634100295007,None,103.64634100295007,None,103.64634100295007,None,103.64634100295007,None,103.64634100295007,None,1,1.9010487829982594,103.64634100295007,None,105.58047528019597,None,105.58047528019597,None,105.58047528019597,None,105.58047528019597,None,105.58047528019597,None,105.58047528019597,None,105.58047528019597,None,109.56535022683966,None,109.56535022683966,None,109.56535022683966,None,109.56535022683966,None,109.56535022683966,None,109.56535022683966,None,109.56535022683966,None,110.56574412843474,None,,,,,,,,,,,,,,,,,,,,,,,,,,,,,,23593,2019_Nov_15_1348,Mmi_3levels,3.1.5,59.96047590107259,
,,,1,1,6.1,,,,,,,,,0,0,0,0,0,1,1,8,,,,,,,,,,,,,,,,,,,,,,,,,,,,,,,,,,,,,,,,,,,,,,,,,,,,,,,,,,,True,True,True,0.26,-0.74,-1.48,11.84,6.1,-5.74,0.17999999999999972,certain,certain,0.17999999999999972,9.879999999999999,112.58319867296086,None,112.58319867296086,None,112.58319867296086,None,112.58319867296086,None,112.58319867296086,None,112.58319867296086,None,112.58319867296086,None,3,1.2173968832175888,112.58319867296086,None,113.83368649016847,None,113.83368649016847,None,113.83368649016847,None,113.83368649016847,None,113.83368649016847,None,113.83368649016847,None,113.83368649016847,None,117.83524001758633,None,117.83524001758633,None,117.83524001758633,None,117.83524001758633,None,117.83524001758633,None,117.83524001758633,None,117.83524001758633,None,118.81895309851097,None,,,,,,,,,,,,,,,,,,,,,,,,,,,,,,23593,2019_Nov_15_1348,Mmi_3levels,3.1.5,59.96047590107259,
,,,1,1,11.9,,,,,,,,,0,0,0,0,0,2,2,23,,,,,,,,,,,,,,,,,,,,,,,,,,,,,,,,,,,,,,,,,,,,,,,,,,,,,,,,,,,True,False,True,0.26,-0.74,-2.2199999999999998,-2.775,11.9,9.125,4.5625,gamble,lose,9.125,19.005,120.83639548360588,None,120.83639548360588,None,120.83639548360588,None,120.83639548360588,None,120.83639548360588,None,120.83639548360588,None,120.83639548360588,None,1,1.3507938509137603,120.83639548360588,None,122.22020219215483,None,122.22020219215483,None,122.22020219215483,None,122.22020219215483,None,122.22020219215483,None,122.22020219215483,None,122.22020219215483,None,126.205083538498,None,126.205083538498,None,126.205083538498,None,126.205083538498,None,126.205083538498,None,126.205083538498,None,126.205083538498,None,135.70883888304888,None,127.20548543972109,None,128.20588830090128,None,0.43,7.5028693059430225,131.20707768533248,None,None,131.20707768533248,None,,,,,,,,,,,,,,,,,,,23593,2019_Nov_15_1348,Mmi_3levels,3.1.5,59.96047590107259,
,,,1,1,2.7,,,,,,,,,0,0,0,0,0,3,3,1,,,,,,,,,,,,,,,,,,,,,,,,,,,,,,,,,,,,,,,,,,,,,,,,,,,,,,,,,,,True,True,False,0.43,-0.5700000000000001,-2.79,10.77,2.7,-8.07,-2.685,certain,certain,-2.685,16.32,137.7262649489021,None,137.7262649489021,None,137.7262649489021,None,137.7262649489021,None,137.7262649489021,None,137.7262649489021,None,137.7262649489021,None,3,2.434548657885898,137.7262649489021,None,140.19392597978003,None,140.19392597978003,None,140.19392597978003,None,140.19392597978003,None,140.19392597978003,None,140.19392597978003,None,140.19392597978003,None,144.19546798773808,None,144.19546798773808,None,144.19546798773808,None,144.19546798773808,None,144.19546798773808,None,144.19546798773808,None,144.19546798773808,None,145.17917946873786,None,,,,,,,,,,,,,,,,,,,,,,,,,,,,,,23593,2019_Nov_15_1348,Mmi_3levels,3.1.5,59.96047590107259,
,,,1,1,10.1,,,,,,,,,0,0,0,0,0,4,4,25,,,,,,,,,,,,,,,,,,,,,,,,,,,,,,,,,,,,,,,,,,,,,,,,,,,,,,,,,,,True,True,True,0.43,-0.5700000000000001,-3.3600000000000003,11.34,10.1,-1.2400000000000002,-0.6200000000000001,certain,certain,-0.6200000000000001,15.7,147.19658057575725,None,147.19658057575725,None,147.19658057575725,None,147.19658057575725,None,147.19658057575725,None,147.19658057575725,None,147.19658057575725,None,3,1.9010007852448325,147.19658057575725,None,149.13066973511013,None,149.13066973511013,None,149.13066973511013,None,149.13066973511013,None,149.13066973511013,None,149.13066973511013,None,149.13066973511013,None,153.132270940303,None,153.132270940303,None,153.132270940303,None,153.132270940303,None,153.132270940303,None,153.132270940303,None,153.132270940303,None,162.61928242712747,None,154.1159853011668,None,155.11630336630697,None,0.36,7.502904824283178,158.11752218936454,None,None,158.11752218936454,None,,,,,,,,,,,,,,,,,,,23593,2019_Nov_15_1348,Mmi_3levels,3.1.5,59.96047590107259,
,,,1,1,10.5,,,,,,,,,0,0,0,0,0,5,5,24,,,,,,,,,,,,,,,,,,,,,,,,,,,,,,,,,,,,,,,,,,,,,,,,,,,,,,,,,,,True,True,True,0.36,-0.64,-4.0,12.96,10.5,-2.460000000000001,-1.2300000000000004,gamble,win,10.5,26.2,164.63673921154623,None,164.63673921154623,None,164.63673921154623,None,164.63673921154623,None,164.63673921154623,None,164.63673921154623,None,164.63673921154623,None,1,1.6342270089153317,164.63673921154623,None,166.30404819487012,None,166.30404819487012,None,166.30404819487012,None,166.30404819487012,None,166.30404819487012,None,166.30404819487012,None,166.30404819487012,None,170.30560204227368,None,170.30560204227368,None,170.30560204227368,None,170.30560204227368,None,170.30560204227368,None,170.30560204227368,None,170.30560204227368,None,171.2893170431089,None,,,,,,,,,,,,,,,,,,,,,,,,,,,,,,23593,2019_Nov_15_1348,Mmi_3levels,3.1.5,59.96047590107259,
,,,1,1,8.7,,,,,,,,,0,0,0,0,0,6,6,2,,,,,,,,,,,,,,,,,,,,,,,,,,,,,,,,,,,,,,,,,,,,,,,,,,,,,,,,,,,True,True,False,0.36,-0.64,-4.64,13.600000000000001,8.7,-4.900000000000002,1.8999999999999986,certain,certain,1.8999999999999986,28.099999999999998,173.30672007003886,None,173.30672007003886,None,173.30672007003886,None,173.30672007003886,None,173.30672007003886,None,173.30672007003886,None,173.30672007003886,None,3,1.334148548579833,173.30672007003886,None,174.67396723225102,None,174.67396723225102,None,174.67396723225102,None,174.67396723225102,None,174.67396723225102,None,174.67396723225102,None,174.67396723225102,None,178.65883993899843,None,178.65883993899843,None,178.65883993899843,None,178.65883993899843,None,178.65883993899843,None,178.65883993899843,None,178.65883993899843,None,179.65923256065798,None,,,,,,,,,,,,,,,,,,,,,,,,,,,,,,23593,2019_Nov_15_1348,Mmi_3levels,3.1.5,59.96047590107259,
,,,1,1,0.5,,,,,,,,,0,0,0,0,0,7,7,12,,,,,,,,,,,,,,,,,,,,,,,,,,,,,,,,,,,,,,,,,,,,,,,,,,,,,,,,,,,True,True,True,0.36,-0.64,-5.279999999999999,14.24,0.5,-13.74,-6.62,gamble,win,0.5,28.599999999999998,181.67665318676518,None,181.67665318676518,None,181.67665318676518,None,181.67665318676518,None,181.67665318676518,None,181.67665318676518,None,181.67665318676518,None,1,2.6680622281346587,181.67665318676518,None,184.37773275232757,None,184.37773275232757,None,184.37773275232757,None,184.37773275232757,None,184.37773275232757,None,184.37773275232757,None,184.37773275232757,None,188.3792833998814,None,188.3792833998814,None,188.3792833998814,None,188.3792833998814,None,188.3792833998814,None,188.3792833998814,None,188.3792833998814,None,197.86630640616568,None,189.3629974407595,None,190.36339422222227,None,0.48,7.502841787230864,193.36454168861383,None,None,193.36454168861383,None,,,,,,,,,,,,,,,,,,,23593,2019_Nov_15_1348,Mmi_3levels,3.1.5,59.96047590107259,
,,,1,1,10.7,,,,,,,,,0,0,0,0,0,8,8,4,,,,,,,,,,,,,,,,,,,,,,,,,,,,,,,,,,,,,,,,,,,,,,,,,,,,,,,,,,,True,True,False,0.48,-0.52,-5.799999999999999,13.079999999999998,10.7,-2.379999999999999,-1.1899999999999995,gamble,win,10.7,39.3,199.8837519911067,None,199.8837519911067,None,199.8837519911067,None,199.8837519911067,None,199.8837519911067,None,199.8837519911067,None,199.8837519911067,None,1,1.717574474922003,199.8837519911067,None,201.63443051940703,None,201.63443051940703,None,201.63443051940703,None,201.63443051940703,None,201.63443051940703,None,201.63443051940703,None,201.63443051940703,None,205.6359846867963,None,205.6359846867963,None,205.6359846867963,None,205.6359846867963,None,205.6359846867963,None,205.6359846867963,None,205.6359846867963,None,206.61970160754208,None,,,,,,,,,,,,,,,,,,,,,,,,,,,,,,23593,2019_Nov_15_1348,Mmi_3levels,3.1.5,59.96047590107259,
,,,1,1,8.5,,,,,,,,,0,0,0,0,0,9,9,10,,,,,,,,,,,,,,,,,,,,,,,,,,,,,,,,,,,,,,,,,,,,,,,,,,,,,,,,,,,True,True,False,0.48,-0.52,-6.3199999999999985,13.599999999999998,8.5,-5.099999999999998,1.700000000000001,certain,certain,1.700000000000001,41.0,208.63715071231854,None,208.63715071231854,None,208.63715071231854,None,208.63715071231854,None,208.63715071231854,None,208.63715071231854,None,208.63715071231854,None,3,1.4008398327641771,208.63715071231854,None,210.07103796110823,None,210.07103796110823,None,210.07103796110823,None,210.07103796110823,None,210.07103796110823,None,210.07103796110823,None,210.07103796110823,None,214.0725914885261,None,214.0725914885261,None,214.0725914885261,None,214.0725914885261,None,214.0725914885261,None,214.0725914885261,None,214.0725914885261,None,223.55960681517172,None,215.05630424946867,None,216.0566943112426,None,0.47,7.502822588128765,219.0578449774839,None,None,219.0578449774839,None,,,,,,,,,,,,,,,,,,,23593,2019_Nov_15_1348,Mmi_3levels,3.1.5,59.96047590107259,
,,,1,1,3.9,,,,,,,,,0,0,0,0,0,10,10,0,,,,,,,,,,,,,,,,,,,,,,,,,,,,,,,,,,,,,,,,,,,,,,,,,,,,,,,,,,,True,True,False,0.47,-0.53,-6.849999999999999,14.27,3.9,-10.37,-3.2349999999999994,certain,certain,-3.2349999999999994,37.765,225.57705655991958,None,225.57705655991958,None,225.57705655991958,None,225.57705655991958,None,225.57705655991958,None,225.57705655991958,None,225.57705655991958,None,3,2.3009568192974257,225.57705655991958,None,227.9112979041638,None,227.9112979041638,None,227.9112979041638,None,227.9112979041638,None,227.9112979041638,None,227.9112979041638,None,227.9112979041638,None,231.91284567184994,None,231.91284567184994,None,231.91284567184994,None,231.91284567184994,None,231.91284567184994,None,231.91284567184994,None,231.91284567184994,None,232.89656355255283,None,,,,,,,,,,,,,,,,,,,,,,,,,,,,,,23593,2019_Nov_15_1348,Mmi_3levels,3.1.5,59.96047590107259,
,,,1,1,2.3,,,,,,,,,0,0,0,0,0,11,11,15,,,,,,,,,,,,,,,,,,,,,,,,,,,,,,,,,,,,,,,,,,,,,,,,,,,,,,,,,,,True,True,True,0.47,-0.53,-7.379999999999999,14.799999999999999,2.3,-12.5,-5.1,certain,certain,-5.1,32.665,234.9140177770896,None,234.9140177770896,None,234.9140177770896,None,234.9140177770896,None,234.9140177770896,None,234.9140177770896,None,234.9140177770896,None,3,2.3678397745243274,234.9140177770896,None,237.314941125951,None,237.314941125951,None,237.314941125951,None,237.314941125951,None,237.314941125951,None,237.314941125951,None,237.314941125951,None,241.31649785322224,None,241.31649785322224,None,241.31649785322224,None,241.31649785322224,None,241.31649785322224,None,241.31649785322224,None,241.31649785322224,None,250.80351125995367,None,242.30016133646495,None,243.30060227586364,None,0.36,7.50280946874409,246.30175102219437,None,None,246.30175102219437,None,,,,,,,,,,,,,,,,,,,23593,2019_Nov_15_1348,Mmi_3levels,3.1.5,59.96047590107259,
,,,1,1,2.1,,,,,,,,,0,0,0,0,0,12,12,13,,,,,,,,,,,,,,,,,,,,,,,,,,,,,,,,,,,,,,,,,,,,,,,,,,,,,,,,,,,True,False,True,0.36,-0.64,-8.02,-2.9083333333333337,2.1,-0.8083333333333336,0.6458333333333333,gamble,lose,-0.8083333333333336,31.856666666666666,252.8209629246121,None,252.8209629246121,None,252.8209629246121,None,252.8209629246121,None,252.8209629246121,None,252.8209629246121,None,252.8209629246121,None,1,1.4174777754415118,252.8209629246121,None,254.27151947461243,None,254.27151947461243,None,254.27151947461243,None,254.27151947461243,None,254.27151947461243,None,254.27151947461243,None,254.27151947461243,None,258.2564059407159,None,258.2564059407159,None,258.2564059407159,None,258.2564059407159,None,258.2564059407159,None,258.2564059407159,None,258.2564059407159,None,259.2567880028655,None,,,,,,,,,,,,,,,,,,,,,,,,,,,,,,23593,2019_Nov_15_1348,Mmi_3levels,3.1.5,59.96047590107259,
,,,1,1,3.1,,,,,,,,,0,0,0,0,0,13,13,19,,,,,,,,,,,,,,,,,,,,,,,,,,,,,,,,,,,,,,,,,,,,,,,,,,,,,,,,,,,True,True,True,0.36,-0.64,-8.66,17.62,3.1,-14.520000000000001,-5.710000000000001,certain,certain,-5.710000000000001,26.146666666666665,261.2742415874345,None,261.2742415874345,None,261.2742415874345,None,261.2742415874345,None,261.2742415874345,None,261.2742415874345,None,261.2742415874345,None,3,2.3010902530622843,261.2742415874345,None,263.6084211745656,None,263.6084211745656,None,263.6084211745656,None,263.6084211745656,None,263.6084211745656,None,263.6084211745656,None,263.6084211745656,None,267.61003965895,None,267.61003965895,None,267.61003965895,None,267.61003965895,None,267.61003965895,None,267.61003965895,None,267.61003965895,None,268.59374954002124,None,,,,,,,,,,,,,,,,,,,,,,,,,,,,,,23593,2019_Nov_15_1348,Mmi_3levels,3.1.5,59.96047590107259,
,,,1,1,1.5,,,,,,,,,0,0,0,0,0,14,14,14,,,,,,,,,,,,,,,,,,,,,,,,,,,,,,,,,,,,,,,,,,,,,,,,,,,,,,,,,,,True,True,False,0.36,-0.64,-9.3,18.26,1.5,-16.76,-7.630000000000001,gamble,win,1.5,27.646666666666665,270.6111999247405,None,270.6111999247405,None,270.6111999247405,None,270.6111999247405,None,270.6111999247405,None,270.6111999247405,None,270.6111999247405,None,1,2.351189352433721,270.6111999247405,None,272.99545589230183,None,272.99545589230183,None,272.99545589230183,None,272.99545589230183,None,272.99545589230183,None,272.99545589230183,None,272.99545589230183,None,276.9970087797519,None,276.9970087797519,None,276.9970087797519,None,276.9970087797519,None,276.9970087797519,None,276.9970087797519,None,276.9970087797519,None,286.4840193066193,None,277.9806607435312,None,278.9811208820356,None,0.54,7.502814268515067,281.98226834842353,None,None,281.98226834842353,None,,,,,,,,,,,,,,,,,,,23593,2019_Nov_15_1348,Mmi_3levels,3.1.5,59.96047590107259,
,,,1,1,-1.5,,,,,,,,,0,0,0,0,0,15,15,26,,,,,,,,,,,,,,,,,,,,,,,,,,,,,,,,,,,,,,,,,,,,,,,,,,,,,,,,,,,True,True,False,0.54,-0.45999999999999996,-9.760000000000002,16.200000000000003,-1.5,-17.700000000000003,-9.600000000000001,certain,certain,-9.600000000000001,18.046666666666663,288.50147065129204,None,288.50147065129204,None,288.50147065129204,None,288.50147065129204,None,288.50147065129204,None,288.50147065129204,None,288.50147065129204,None,3,2.1010669581519323,288.50147065129204,None,290.6356355831085,None,290.6356355831085,None,290.6356355831085,None,290.6356355831085,None,290.6356355831085,None,290.6356355831085,None,290.6356355831085,None,294.6371417527371,None,294.6371417527371,None,294.6371417527371,None,294.6371417527371,None,294.6371417527371,None,294.6371417527371,None,294.6371417527371,None,295.62090571128647,None,,,,,,,,,,,,,,,,,,,,,,,,,,,,,,23593,2019_Nov_15_1348,Mmi_3levels,3.1.5,59.96047590107259,
,,,1,1,6.3,,,,,,,,,0,0,0,0,0,16,16,17,,,,,,,,,,,,,,,,,,,,,,,,,,,,,,,,,,,,,,,,,,,,,,,,,,,,,,,,,,,True,True,False,0.54,-0.45999999999999996,-10.220000000000002,16.660000000000004,6.3,-10.360000000000003,-2.0300000000000016,gamble,win,6.3,24.346666666666664,297.63834585648146,None,297.63834585648146,None,297.63834585648146,None,297.63834585648146,None,297.63834585648146,None,297.63834585648146,None,297.63834585648146,None,1,1.700859735832637,297.63834585648146,None,299.3723134855136,None,299.3723134855136,None,299.3723134855136,None,299.3723134855136,None,299.3723134855136,None,299.3723134855136,None,299.3723134855136,None,303.3739390095725,None,303.3739390095725,None,303.3739390095725,None,303.3739390095725,None,303.3739390095725,None,303.3739390095725,None,303.3739390095725,None,312.8609252175738,None,304.35763257140934,None,305.3580101537664,None,0.48,7.502850746812328,308.3591573001722,None,None,308.3591573001722,None,,,,,,,,,,,,,,,,,,,23593,2019_Nov_15_1348,Mmi_3levels,3.1.5,59.96047590107259,
,,,1,1,8.1,,,,,,,,,0,0,0,0,0,17,17,16,,,,,,,,,,,,,,,,,,,,,,,,,,,,,,,,,,,,,,,,,,,,,,,,,,,,,,,,,,,True,False,True,0.48,-0.52,-10.740000000000002,-2.7150000000000003,8.1,5.385,2.6925,gamble,lose,5.385,29.731666666666662,314.8783752823074,None,314.8783752823074,None,314.8783752823074,None,314.8783752823074,None,314.8783752823074,None,314.8783752823074,None,314.8783752823074,None,1,1.1673800200042024,314.8783752823074,None,316.0788481562158,None,316.0788481562158,None,316.0788481562158,None,316.0788481562158,None,316.0788481562158,None,316.0788481562158,None,316.0788481562158,None,320.0803431263703,None,320.0803431263703,None,320.0803431263703,None,320.0803431263703,None,320.0803431263703,None,320.0803431263703,None,320.0803431263703,None,321.0641109247408,None,,,,,,,,,,,,,,,,,,,,,,,,,,,,,,23593,2019_Nov_15_1348,Mmi_3levels,3.1.5,59.96047590107259,
,,,1,1,1.7,,,,,,,,,0,0,0,0,0,18,18,9,,,,,,,,,,,,,,,,,,,,,,,,,,,,,,,,,,,,,,,,,,,,,,,,,,,,,,,,,,,True,True,True,0.48,-0.52,-11.260000000000002,18.540000000000003,1.7,-16.840000000000003,-7.570000000000002,gamble,win,1.7,31.43166666666666,323.08150915189253,None,323.08150915189253,None,323.08150915189253,None,323.08150915189253,None,323.08150915189253,None,323.08150915189253,None,323.08150915189253,None,1,2.3512085515358194,323.08150915189253,None,325.4658163170643,None,325.4658163170643,None,325.4658163170643,None,325.4658163170643,None,325.4658163170643,None,325.4658163170643,None,325.4658163170643,None,329.4673672846002,None,329.4673672846002,None,329.4673672846002,None,329.4673672846002,None,329.4673672846002,None,329.4673672846002,None,329.4673672846002,None,330.4510822854354,None,,,,,,,,,,,,,,,,,,,,,,,,,,,,,,23593,2019_Nov_15_1348,Mmi_3levels,3.1.5,59.96047590107259,
,,,1,1,-0.9,,,,,,,,,0,0,0,0,0,19,19,11,,,,,,,,,,,,,,,,,,,,,,,,,,,,,,,,,,,,,,,,,,,,,,,,,,,,,,,,,,,True,True,False,0.48,-0.52,-11.780000000000001,19.060000000000002,-0.9,-19.96,-10.43,gamble,win,-0.9,30.531666666666663,332.4685358700044,None,332.4685358700044,None,332.4685358700044,None,332.4685358700044,None,332.4685358700044,None,332.4685358700044,None,332.4685358700044,None,None,,332.4685358700044,None,335.4697015755446,None,335.4697015755446,None,335.4697015755446,None,335.4697015755446,None,335.4697015755446,None,335.4697015755446,None,335.4697015755446,None,339.47124742332016,None,339.47124742332016,None,339.47124742332016,None,339.47124742332016,None,339.47124742332016,None,339.47124742332016,None,339.47124742332016,None,348.95826370991927,None,340.4549640240839,None,341.45535408585783,None,0.59,7.502840187305992,344.4564529145209,None,None,344.4564529145209,None,,,,,,,,,,,,,,,,,,,23593,2019_Nov_15_1348,Mmi_3levels,3.1.5,59.96047590107259,
,,,1,1,-0.5,,,,,,,,,0,0,0,0,0,20,20,18,,,,,,,,,,,,,,,,,,,,,,,,,,,,,,,,,,,,,,,,,,,,,,,,,,,,,,,,,,,True,True,True,0.59,-0.41000000000000003,-12.190000000000001,17.93,-0.5,-18.43,-9.465,certain,certain,-9.465,21.066666666666663,350.9757153745777,None,350.9757153745777,None,350.9757153745777,None,350.9757153745777,None,350.9757153745777,None,350.9757153745777,None,350.9757153745777,None,3,2.5178948439533997,350.9757153745777,None,353.5266966727322,None,353.5266966727322,None,353.5266966727322,None,353.5266966727322,None,353.5266966727322,None,353.5266966727322,None,353.5266966727322,None,357.52826011968864,None,357.52826011968864,None,357.52826011968864,None,357.52826011968864,None,357.52826011968864,None,357.52826011968864,None,357.52826011968864,None,358.51197480053816,None,,,,,,,,,,,,,,,,,,,,,,,,,,,,,,23593,2019_Nov_15_1348,Mmi_3levels,3.1.5,59.96047590107259,
,,,1,1,4.3,,,,,,,,,0,0,0,0,0,21,21,7,,,,,,,,,,,,,,,,,,,,,,,,,,,,,,,,,,,,,,,,,,,,,,,,,,,,,,,,,,,True,False,True,0.59,-0.41000000000000003,-12.600000000000001,-2.4850000000000003,4.3,1.8149999999999995,0.9074999999999998,gamble,lose,1.8149999999999995,22.88166666666666,360.5294267851823,None,360.5294267851823,None,360.5294267851823,None,360.5294267851823,None,360.5294267851823,None,360.5294267851823,None,360.5294267851823,None,1,1.450633346408722,360.5294267851823,None,362.01333697689915,None,362.01333697689915,None,362.01333697689915,None,362.01333697689915,None,362.01333697689915,None,362.01333697689915,None,362.01333697689915,None,365.99820328394344,None,365.99820328394344,None,365.99820328394344,None,365.99820328394344,None,365.99820328394344,None,365.99820328394344,None,365.99820328394344,None,375.50185399338443,None,366.9985994254348,None,367.9989894872124,None,0.43,7.502817468368448,371.00008255614375,None,None,371.00008255614375,None,,,,,,,,,,,,,,,,,,,23593,2019_Nov_15_1348,Mmi_3levels,3.1.5,59.96047590107259,
,,,1,1,3.5,,,,,,,,,0,0,0,0,0,22,22,5,,,,,,,,,,,,,,,,,,,,,,,,,,,,,,,,,,,,,,,,,,,,,,,,,,,,,,,,,,,True,True,True,0.43,-0.5700000000000001,-13.170000000000002,21.150000000000002,3.5,-17.650000000000002,-7.075000000000001,gamble,win,3.5,26.38166666666666,377.5193622953957,None,377.5193622953957,None,377.5193622953957,None,377.5193622953957,None,377.5193622953957,None,377.5193622953957,None,377.5193622953957,None,1,1.8507285739578947,377.5193622953957,None,379.4034259519394,None,379.4034259519394,None,379.4034259519394,None,379.4034259519394,None,379.4034259519394,None,379.4034259519394,None,379.4034259519394,None,383.40498427913553,None,383.40498427913553,None,383.40498427913553,None,383.40498427913553,None,383.40498427913553,None,383.40498427913553,None,383.40498427913553,None,384.3886807208364,None,,,,,,,,,,,,,,,,,,,,,,,,,,,,,,23593,2019_Nov_15_1348,Mmi_3levels,3.1.5,59.96047590107259,
,,,1,1,13.3,,,,,,,,,0,0,0,0,0,23,23,3,,,,,,,,,,,,,,,,,,,,,,,,,,,,,,,,,,,,,,,,,,,,,,,,,,,,,,,,,,,True,True,True,0.43,-0.5700000000000001,-13.740000000000002,21.720000000000002,13.3,-8.420000000000002,-4.210000000000001,gamble,win,13.3,39.68166666666666,386.4061311055557,None,386.4061311055557,None,386.4061311055557,None,386.4061311055557,None,386.4061311055557,None,386.4061311055557,None,386.4061311055557,None,None,,386.4061311055557,None,389.4072990509885,None,389.4072990509885,None,389.4072990509885,None,389.4072990509885,None,389.4072990509885,None,389.4072990509885,None,389.4072990509885,None,393.4088541783349,None,393.4088541783349,None,393.4088541783349,None,393.4088541783349,None,393.4088541783349,None,393.4088541783349,None,393.4088541783349,None,402.8958627852917,None,394.3925288610517,None,395.39294836145564,None,0.6,7.502835387527739,398.39407118899544,None,None,398.39407118899544,None,,,,,,,,,,,,,,,,,,,23593,2019_Nov_15_1348,Mmi_3levels,3.1.5,59.96047590107259,
,,,1,1,7.9,,,,,,,,,0,0,0,0,0,24,24,21,,,,,,,,,,,,,,,,,,,,,,,,,,,,,,,,,,,,,,,,,,,,,,,,,,,,,,,,,,,True,True,False,0.6,-0.4,-14.140000000000002,19.740000000000002,7.9,-11.840000000000002,-1.9700000000000006,certain,certain,-1.9700000000000006,37.71166666666666,404.91328053153484,None,404.91328053153484,None,404.91328053153484,None,404.91328053153484,None,404.91328053153484,None,404.91328053153484,None,404.91328053153484,None,3,1.8676036255565123,404.91328053153484,None,406.813983090713,None,406.813983090713,None,406.813983090713,None,406.813983090713,None,406.813983090713,None,406.813983090713,None,406.813983090713,None,410.7988164392991,None,410.7988164392991,None,410.7988164392991,None,410.7988164392991,None,410.7988164392991,None,410.7988164392991,None,410.7988164392991,None,411.79928073760675,None,,,,,,,,,,,,,,,,,,,,,,,,,,,,,,23593,2019_Nov_15_1348,Mmi_3levels,3.1.5,59.96047590107259,
,,,1,1,0.7,,,,,,,,,0,0,0,0,0,25,25,6,,,,,,,,,,,,,,,,,,,,,,,,,,,,,,,,,,,,,,,,,,,,,,,,,,,,,,,,,,,True,True,False,0.6,-0.4,-14.540000000000003,20.140000000000004,0.7,-19.440000000000005,-9.370000000000003,gamble,win,0.7,38.41166666666666,413.81673816199327,None,413.81673816199327,None,413.81673816199327,None,413.81673816199327,None,413.81673816199327,None,413.81673816199327,None,413.81673816199327,None,None,,413.81673816199327,None,416.8178753888642,None,416.8178753888642,None,416.8178753888642,None,416.8178753888642,None,416.8178753888642,None,416.8178753888642,None,416.8178753888642,None,420.8194394757884,None,420.8194394757884,None,420.8194394757884,None,420.8194394757884,None,420.8194394757884,None,420.8194394757884,None,420.8194394757884,None,421.8032011944415,None,,,,,,,,,,,,,,,,,,,,,,,,,,,,,,23593,2019_Nov_15_1348,Mmi_3levels,3.1.5,59.96047590107259,
,,,1,1,3.7,,,,,,,,,0,0,0,0,0,26,26,20,,,,,,,,,,,,,,,,,,,,,,,,,,,,,,,,,,,,,,,,,,,,,,,,,,,,,,,,,,,True,True,True,0.6,-0.4,-14.940000000000003,20.540000000000003,3.7,-16.840000000000003,-6.570000000000002,certain,certain,-6.570000000000002,31.84166666666666,423.8205754227165,None,423.8205754227165,None,423.8205754227165,None,423.8205754227165,None,423.8205754227165,None,423.8205754227165,None,423.8205754227165,None,3,2.1511686174017086,423.8205754227165,None,426.00479529596487,None,426.00479529596487,None,426.00479529596487,None,426.00479529596487,None,426.00479529596487,None,426.00479529596487,None,426.00479529596487,None,430.0063491433684,None,430.0063491433684,None,430.0063491433684,None,430.0063491433684,None,430.0063491433684,None,430.0063491433684,None,430.0063491433684,None,439.4933487907474,None,430.9900609443539,None,431.9904734050833,None,0.46,7.502792509534629,434.99160903202574,None,None,434.99160903202574,None,,,,,,,,,,,,,,,,,,,23593,2019_Nov_15_1348,Mmi_3levels,3.1.5,59.96047590107259,
,,,2,0,7.1,,,,,,,,,0,1,1,1,0,0,0,20,,,,,,,,,,,,,,,,,,,,,,,,,,,,,,,,,,,,,,,,,,,,,,,,444.2785562658537,None,0.43,7.501728879225993,447.2963781532126,None,None,447.2963781532126,None,451.7814479707522,None,False,True,False,0.43,0.43,0.43,-6.449999999999999,7.1,0.6500000000000004,0.3250000000000002,gamble,lose,0.6500000000000004,32.49166666666666,454.79931241612576,None,454.79931241612576,None,454.79931241612576,None,454.79931241612576,None,454.79931241612576,None,454.79931241612576,None,454.79931241612576,None,1,1.350747453077929,454.79931241612576,None,456.18311528485356,None,456.18311528485356,None,456.18311528485356,None,456.18311528485356,None,456.18311528485356,None,456.18311528485356,None,456.18311528485356,None,460.16804942873205,None,460.16804942873205,None,460.16804942873205,None,460.16804942873205,None,460.16804942873205,None,460.16804942873205,None,460.16804942873205,None,461.16849100810214,None,,,,,,,,,,,,441.4941378738804,None,4,2.768097874468367,441.4941378738804,None,,,,,,,,,,,,,23593,2019_Nov_15_1348,Mmi_3levels,3.1.5,59.96047590107259,
,,,2,0,-1.1,,,,,,,,,0,1,1,1,0,1,1,21,,,,,,,,,,,,,,,,,,,,,,,,,,,,,,,,,,,,,,,,,,,,,,,,,,,,,,,,,,,False,True,True,0.43,0.43,0.86,-6.88,-1.1,-7.98,-4.54,gamble,lose,-7.98,24.51166666666666,463.18583867761845,None,463.18583867761845,None,463.18583867761845,None,463.18583867761845,None,463.18583867761845,None,463.18583867761845,None,463.18583867761845,None,1,2.701342913256667,463.18583867761845,None,465.92028244440735,None,465.92028244440735,None,465.92028244440735,None,465.92028244440735,None,465.92028244440735,None,465.92028244440735,None,465.92028244440735,None,469.92183693177867,None,469.92183693177867,None,469.92183693177867,None,469.92183693177867,None,469.92183693177867,None,469.92183693177867,None,469.92183693177867,None,479.4088522584243,None,470.905550332689,None,471.90596951310727,None,0.35,7.502845627052011,474.9070891407973,None,None,474.9070891407973,None,,,,,,,,,,,,,,,,,,,23593,2019_Nov_15_1348,Mmi_3levels,3.1.5,59.96047590107259,
,,,2,0,4.1,,,,,,,,,0,1,1,1,0,2,2,0,,,,,,,,,,,,,,,,,,,,,,,,,,,,,,,,,,,,,,,,,,,,,,,,,,,,,,,,,,,False,True,True,0.35,0.35,1.21,-6.109999999999999,4.1,-2.01,1.045,certain,certain,1.045,25.556666666666658,481.4262988033224,None,481.4262988033224,None,481.4262988033224,None,481.4262988033224,None,481.4262988033224,None,481.4262988033224,None,481.4262988033224,None,3,1.750984114019957,481.4262988033224,None,483.21032617356104,None,483.21032617356104,None,483.21032617356104,None,483.21032617356104,None,483.21032617356104,None,483.21032617356104,None,483.21032617356104,None,487.2118589019519,None,487.2118589019519,None,487.2118589019519,None,487.2118589019519,None,487.2118589019519,None,487.2118589019519,None,487.2118589019519,None,488.19554702404275,None,,,,,,,,,,,,,,,,,,,,,,,,,,,,,,23593,2019_Nov_15_1348,Mmi_3levels,3.1.5,59.96047590107259,
,,,2,0,6.3,,,,,,,,,0,1,1,1,0,3,3,16,,,,,,,,,,,,,,,,,,,,,,,,,,,,,,,,,,,,,,,,,,,,,,,,,,,,,,,,,,,False,True,False,0.35,0.35,1.56,-6.459999999999999,6.3,-0.15999999999999925,-0.07999999999999963,gamble,lose,-0.15999999999999925,25.396666666666658,490.2129855693165,None,490.2129855693165,None,490.2129855693165,None,490.2129855693165,None,490.2129855693165,None,490.2129855693165,None,490.2129855693165,None,1,1.4842516157623322,490.2129855693165,None,491.7302942006572,None,491.7302942006572,None,491.7302942006572,None,491.7302942006572,None,491.7302942006572,None,491.7302942006572,None,491.7302942006572,None,495.715180346775,None,495.715180346775,None,495.715180346775,None,495.715180346775,None,495.715180346775,None,495.715180346775,None,495.715180346775,None,505.23553811565944,None,496.71556592876004,None,497.7159518307308,None,0.36,7.5195370072324295,500.71709257743714,None,None,500.71709257743714,None,,,,,,,,,,,,,,,,,,,23593,2019_Nov_15_1348,Mmi_3levels,3.1.5,59.96047590107259,
,,,2,0,8.3,,,,,,,,,0,1,1,1,0,4,4,11,,,,,,,,,,,,,,,,,,,,,,,,,,,,,,,,,,,,,,,,,,,,,,,,,,,,,,,,,,,False,True,True,0.36,0.36,1.92,-6.96,8.3,1.3400000000000007,0.6700000000000004,gamble,lose,1.3400000000000007,26.736666666666657,507.25298562051466,None,507.25298562051466,None,507.25298562051466,None,507.25298562051466,None,507.25298562051466,None,507.25298562051466,None,507.25298562051466,None,1,1.1007300138953724,507.25298562051466,None,508.3867579306716,None,508.3867579306716,None,508.3867579306716,None,508.3867579306716,None,508.3867579306716,None,508.3867579306716,None,508.3867579306716,None,512.3882413813626,None,512.3882413813626,None,512.3882413813626,None,512.3882413813626,None,512.3882413813626,None,512.3882413813626,None,512.3882413813626,None,513.3720302987458,None,,,,,,,,,,,,,,,,,,,,,,,,,,,,,,23593,2019_Nov_15_1348,Mmi_3levels,3.1.5,59.96047590107259,
,,,2,0,8.9,,,,,,,,,0,1,1,1,0,5,5,7,,,,,,,,,,,,,,,,,,,,,,,,,,,,,,,,,,,,,,,,,,,,,,,,,,,,,,,,,,,False,True,True,0.36,0.36,2.28,-7.32,8.9,1.58,0.79,gamble,lose,1.58,28.316666666666656,515.389527721265,None,515.389527721265,None,515.389527721265,None,515.389527721265,None,515.389527721265,None,515.389527721265,None,515.389527721265,None,1,1.0506440339122491,515.389527721265,None,516.4732332505446,None,516.4732332505446,None,516.4732332505446,None,516.4732332505446,None,516.4732332505446,None,516.4732332505446,None,516.4732332505446,None,520.4581065972598,None,520.4581065972598,None,520.4581065972598,None,520.4581065972598,None,520.4581065972598,None,520.4581065972598,None,520.4581065972598,None,521.4584982589622,None,,,,,,,,,,,,,,,,,,,,,,,,,,,,,,23593,2019_Nov_15_1348,Mmi_3levels,3.1.5,59.96047590107259,
,,,2,0,1.3,,,,,,,,,0,1,1,1,0,6,6,2,,,,,,,,,,,,,,,,,,,,,,,,,,,,,,,,,,,,,,,,,,,,,,,,,,,,,,,,,,,False,True,True,0.36,0.36,2.6399999999999997,-7.68,1.3,-6.38,-2.54,certain,certain,-2.54,25.776666666666657,523.4759480037101,None,523.4759480037101,None,523.4759480037101,None,523.4759480037101,None,523.4759480037101,None,523.4759480037101,None,523.4759480037101,None,3,1.984399448858312,523.4759480037101,None,525.4933993483828,None,525.4933993483828,None,525.4933993483828,None,525.4933993483828,None,525.4933993483828,None,525.4933993483828,None,525.4933993483828,None,529.4949522358329,None,529.4949522358329,None,529.4949522358329,None,529.4949522358329,None,529.4949522358329,None,529.4949522358329,None,529.4949522358329,None,538.9819637226574,None,530.4786627568792,None,531.4790518586997,None,0.33,7.502988020398334,534.4801990051055,None,None,534.4801990051055,None,,,,,,,,,,,,,,,,,,,23593,2019_Nov_15_1348,Mmi_3levels,3.1.5,59.96047590107259,
,,,2,0,7.5,,,,,,,,,0,1,1,1,0,7,7,13,,,,,,,,,,,,,,,,,,,,,,,,,,,,,,,,,,,,,,,,,,,,,,,,,,,,,,,,,,,False,False,True,0.33,0.33,2.9699999999999998,1.4025,1.875,0.4724999999999999,1.17375,gamble,win,1.875,27.651666666666657,540.9993593899308,None,540.9993593899308,None,540.9993593899308,None,540.9993593899308,None,540.9993593899308,None,540.9993593899308,None,540.9993593899308,None,1,2.3845817123401503,540.9993593899308,None,543.4170137971159,None,543.4170137971159,None,543.4170137971159,None,543.4170137971159,None,543.4170137971159,None,543.4170137971159,None,543.4170137971159,None,547.4185702044015,None,547.4185702044015,None,547.4185702044015,None,547.4185702044015,None,547.4185702044015,None,547.4185702044015,None,547.4185702044015,None,548.4022400873437,None,,,,,,,,,,,,,,,,,,,,,,,,,,,,,,23593,2019_Nov_15_1348,Mmi_3levels,3.1.5,59.96047590107259,
,,,2,0,0.1,,,,,,,,,0,1,1,1,0,8,8,5,,,,,,,,,,,,,,,,,,,,,,,,,,,,,,,,,,,,,,,,,,,,,,,,,,,,,,,,,,,False,True,True,0.33,0.33,3.3,-7.92,0.1,-7.82,-3.8600000000000003,certain,certain,-3.8600000000000003,23.791666666666657,550.4197813478168,None,550.4197813478168,None,550.4197813478168,None,550.4197813478168,None,550.4197813478168,None,550.4197813478168,None,550.4197813478168,None,3,2.8013462411036016,550.4197813478168,None,553.2541692452141,None,553.2541692452141,None,553.2541692452141,None,553.2541692452141,None,553.2541692452141,None,553.2541692452141,None,553.2541692452141,None,557.2557144530219,None,557.2557144530219,None,557.2557144530219,None,557.2557144530219,None,557.2557144530219,None,557.2557144530219,None,557.2557144530219,None,566.7427374593062,None,558.2394332936783,None,559.2398233554559,None,0.31,7.5028321876816335,562.2409724217687,None,None,562.2409724217687,None,,,,,,,,,,,,,,,,,,,23593,2019_Nov_15_1348,Mmi_3levels,3.1.5,59.96047590107259,
,,,2,0,9.9,,,,,,,,,0,1,1,1,0,9,9,10,,,,,,,,,,,,,,,,,,,,,,,,,,,,,,,,,,,,,,,,,,,,,,,,,,,,,,,,,,,False,True,True,0.31,0.31,3.61,-7.949999999999999,9.9,1.950000000000001,0.9750000000000005,gamble,lose,1.950000000000001,25.74166666666666,568.7601926438001,None,568.7601926438001,None,568.7601926438001,None,568.7601926438001,None,568.7601926438001,None,568.7601926438001,None,568.7601926438001,None,1,0.9839857081897208,568.7601926438001,None,569.7772440071603,None,569.7772440071603,None,569.7772440071603,None,569.7772440071603,None,569.7772440071603,None,569.7772440071603,None,569.7772440071603,None,573.7621291933247,None,573.7621291933247,None,573.7621291933247,None,573.7621291933247,None,573.7621291933247,None,573.7621291933247,None,573.7621291933247,None,574.762565012963,None,,,,,,,,,,,,,,,,,,,,,,,,,,,,,,23593,2019_Nov_15_1348,Mmi_3levels,3.1.5,59.96047590107259,
,,,2,0,12.9,,,,,,,,,0,1,1,1,0,10,10,3,,,,,,,,,,,,,,,,,,,,,,,,,,,,,,,,,,,,,,,,,,,,,,,,,,,,,,,,,,,False,True,True,0.31,0.31,3.92,-8.26,12.9,4.640000000000001,2.3200000000000003,gamble,lose,4.640000000000001,30.38166666666666,576.7799610002221,None,576.7799610002221,None,576.7799610002221,None,576.7799610002221,None,576.7799610002221,None,576.7799610002221,None,576.7799610002221,None,1,0.9839191512983234,576.7799610002221,None,577.796972685439,None,577.796972685439,None,577.796972685439,None,577.796972685439,None,577.796972685439,None,577.796972685439,None,577.796972685439,None,581.7818725909128,None,581.7818725909128,None,581.7818725909128,None,581.7818725909128,None,581.7818725909128,None,581.7818725909128,None,581.7818725909128,None,582.7822882514956,None,,,,,,,,,,,,,,,,,,,,,,,,,,,,,,23593,2019_Nov_15_1348,Mmi_3levels,3.1.5,59.96047590107259,
,,,2,0,1.7,,,,,,,,,0,1,1,1,0,11,11,26,,,,,,,,,,,,,,,,,,,,,,,,,,,,,,,,,,,,,,,,,,,,,,,,,,,,,,,,,,,False,True,True,0.31,0.31,4.2299999999999995,-8.57,1.7,-6.87,-2.585,gamble,lose,-6.87,23.51166666666666,584.7997363963186,None,584.7997363963186,None,584.7997363963186,None,584.7997363963186,None,584.7997363963186,None,584.7997363963186,None,584.7997363963186,None,1,2.2345032840094063,584.7997363963186,None,587.0672803766611,None,587.0672803766611,None,587.0672803766611,None,587.0672803766611,None,587.0672803766611,None,587.0672803766611,None,587.0672803766611,None,591.0687571076705,None,591.0687571076705,None,591.0687571076705,None,591.0687571076705,None,591.0687571076705,None,591.0687571076705,None,591.0687571076705,None,600.5558485907568,None,592.0525732237802,None,593.0529389666917,None,0.3,7.502831867692294,596.0540928327828,None,None,596.0540928327828,None,,,,,,,,,,,,,,,,,,,23593,2019_Nov_15_1348,Mmi_3levels,3.1.5,59.96047590107259,
,,,2,0,3.5,,,,,,,,,0,1,1,1,0,12,12,22,,,,,,,,,,,,,,,,,,,,,,,,,,,,,,,,,,,,,,,,,,,,,,,,,,,,,,,,,,,False,True,True,0.3,0.3,4.529999999999999,-8.73,3.5,-5.23,-0.8650000000000002,certain,certain,-0.8650000000000002,22.64666666666666,602.5732960956084,None,602.5732960956084,None,602.5732960956084,None,602.5732960956084,None,602.5732960956084,None,602.5732960956084,None,602.5732960956084,None,3,1.6175497080766945,602.5732960956084,None,604.2239101789164,None,604.2239101789164,None,604.2239101789164,None,604.2239101789164,None,604.2239101789164,None,604.2239101789164,None,604.2239101789164,None,608.2254944249034,None,608.2254944249034,None,608.2254944249034,None,608.2254944249034,None,608.2254944249034,None,608.2254944249034,None,608.2254944249034,None,609.2092059059032,None,,,,,,,,,,,,,,,,,,,,,,,,,,,,,,23593,2019_Nov_15_1348,Mmi_3levels,3.1.5,59.96047590107259,
,,,2,0,-0.1,,,,,,,,,0,1,1,1,0,13,13,4,,,,,,,,,,,,,,,,,,,,,,,,,,,,,,,,,,,,,,,,,,,,,,,,,,,,,,,,,,,False,False,True,0.3,0.3,4.829999999999999,1.4525,-0.025,-1.4774999999999998,-0.7512499999999999,certain,certain,-0.7512499999999999,21.895416666666662,611.2266076528904,None,611.2266076528904,None,611.2266076528904,None,611.2266076528904,None,611.2266076528904,None,611.2266076528904,None,611.2266076528904,None,3,2.001071949918696,611.2266076528904,None,613.2607814162948,None,613.2607814162948,None,613.2607814162948,None,613.2607814162948,None,613.2607814162948,None,613.2607814162948,None,613.2607814162948,None,617.2456522031316,None,617.2456522031316,None,617.2456522031316,None,617.2456522031316,None,617.2456522031316,None,617.2456522031316,None,617.2456522031316,None,626.7493467505228,None,618.2460441848161,None,619.2464291268334,None,0.36,7.502800189173286,622.2475922724916,None,None,622.2475922724916,None,,,,,,,,,,,,,,,,,,,23593,2019_Nov_15_1348,Mmi_3levels,3.1.5,59.96047590107259,
,,,2,0,0.7,,,,,,,,,0,1,1,1,0,14,14,18,,,,,,,,,,,,,,,,,,,,,,,,,,,,,,,,,,,,,,,,,,,,,,,,,,,,,,,,,,,False,True,False,0.36,0.36,5.1899999999999995,-10.23,0.7,-9.530000000000001,-4.415000000000001,gamble,lose,-9.530000000000001,12.365416666666661,628.7667923354638,None,628.7667923354638,None,628.7667923354638,None,628.7667923354638,None,628.7667923354638,None,628.7667923354638,None,628.7667923354638,None,1,2.484590479933104,628.7667923354638,None,631.2845044679525,None,631.2845044679525,None,631.2845044679525,None,631.2845044679525,None,631.2845044679525,None,631.2845044679525,None,631.2845044679525,None,635.2693176574794,None,635.2693176574794,None,635.2693176574794,None,635.2693176574794,None,635.2693176574794,None,635.2693176574794,None,635.2693176574794,None,636.2697009995718,None,,,,,,,,,,,,,,,,,,,,,,,,,,,,,,23593,2019_Nov_15_1348,Mmi_3levels,3.1.5,59.96047590107259,
,,,2,0,4.7,,,,,,,,,0,1,1,1,0,15,15,25,,,,,,,,,,,,,,,,,,,,,,,,,,,,,,,,,,,,,,,,,,,,,,,,,,,,,,,,,,,False,True,True,0.36,0.36,5.55,-10.59,4.7,-5.89,-0.5949999999999998,certain,certain,-0.5949999999999998,11.770416666666662,638.2871574640048,None,638.2871574640048,None,638.2871574640048,None,638.2871574640048,None,638.2871574640048,None,638.2871574640048,None,638.2871574640048,None,3,2.3178510699981416,638.2871574640048,None,640.638070669338,None,640.638070669338,None,640.638070669338,None,640.638070669338,None,640.638070669338,None,640.638070669338,None,640.638070669338,None,644.6396113973569,None,644.6396113973569,None,644.6396113973569,None,644.6396113973569,None,644.6396113973569,None,644.6396113973569,None,644.6396113973569,None,654.1266644822354,None,645.6233356777593,None,646.6237222196978,None,0.31,7.502852986708604,649.6248748058497,None,None,649.6248748058497,None,,,,,,,,,,,,,,,,,,,23593,2019_Nov_15_1348,Mmi_3levels,3.1.5,59.96047590107259,
,,,2,0,-1.3,,,,,,,,,0,1,1,1,0,16,16,1,,,,,,,,,,,,,,,,,,,,,,,,,,,,,,,,,,,,,,,,,,,,,,,,,,,,,,,,,,,False,True,True,0.31,0.31,5.859999999999999,-10.2,-1.3,-11.5,-6.4,certain,certain,-6.4,5.370416666666662,656.1440835084213,None,656.1440835084213,None,656.1440835084213,None,656.1440835084213,None,656.1440835084213,None,656.1440835084213,None,656.1440835084213,None,3,1.8010038570973848,656.1440835084213,None,657.9781303017553,None,657.9781303017553,None,657.9781303017553,None,657.9781303017553,None,657.9781303017553,None,657.9781303017553,None,657.9781303017553,None,661.9796931087403,None,661.9796931087403,None,661.9796931087403,None,661.9796931087403,None,661.9796931087403,None,661.9796931087403,None,661.9796931087403,None,662.963388270502,None,,,,,,,,,,,,,,,,,,,,,,,,,,,,,,23593,2019_Nov_15_1348,Mmi_3levels,3.1.5,59.96047590107259,
,,,2,0,7.3,,,,,,,,,0,1,1,1,0,17,17,9,,,,,,,,,,,,,,,,,,,,,,,,,,,,,,,,,,,,,,,,,,,,,,,,,,,,,,,,,,,False,True,False,0.31,0.31,6.169999999999999,-10.509999999999998,7.3,-3.209999999999998,-1.604999999999999,gamble,lose,-3.209999999999998,2.1604166666666638,664.9809016922736,None,664.9809016922736,None,664.9809016922736,None,664.9809016922736,None,664.9809016922736,None,664.9809016922736,None,664.9809016922736,None,1,1.467432561552414,664.9809016922736,None,666.4814287076515,None,666.4814287076515,None,666.4814287076515,None,666.4814287076515,None,666.4814287076515,None,666.4814287076515,None,666.4814287076515,None,670.4829902346974,None,670.4829902346974,None,670.4829902346974,None,670.4829902346974,None,670.4829902346974,None,670.4829902346974,None,670.4829902346974,None,671.466697875876,None,,,,,,,,,,,,,,,,,,,,,,,,,,,,,,23593,2019_Nov_15_1348,Mmi_3levels,3.1.5,59.96047590107259,
,,,2,0,5.7,,,,,,,,,0,1,1,1,0,18,18,12,,,,,,,,,,,,,,,,,,,,,,,,,,,,,,,,,,,,,,,,,,,,,,,,,,,,,,,,,,,False,True,True,0.31,0.31,6.479999999999999,-10.819999999999999,5.7,-5.119999999999998,0.2900000000000009,certain,certain,0.2900000000000009,2.4504166666666647,673.484140580953,None,673.484140580953,None,673.484140580953,None,673.484140580953,None,673.484140580953,None,673.484140580953,None,673.484140580953,None,3,1.8343478992646851,673.484140580953,None,675.3515365362146,None,675.3515365362146,None,675.3515365362146,None,675.3515365362146,None,675.3515365362146,None,675.3515365362146,None,675.3515365362146,None,679.3530951833927,None,679.3530951833927,None,679.3530951833927,None,679.3530951833927,None,679.3530951833927,None,679.3530951833927,None,679.3530951833927,None,688.8400983506071,None,680.3368063444104,None,681.3371957662166,None,0.28,7.502781310056889,684.3383358729479,None,None,684.3383358729479,None,,,,,,,,,,,,,,,,,,,23593,2019_Nov_15_1348,Mmi_3levels,3.1.5,59.96047590107259,
,,,2,0,-1.5,,,,,,,,,0,1,1,1,0,19,19,24,,,,,,,,,,,,,,,,,,,,,,,,,,,,,,,,,,,,,,,,,,,,,,,,,,,,,,,,,,,False,False,True,0.28,0.28,6.759999999999999,1.5433333333333334,-0.375,-1.9183333333333334,-1.1466666666666667,certain,certain,-1.1466666666666667,1.303749999999998,690.8575935332301,None,690.8575935332301,None,690.8575935332301,None,690.8575935332301,None,690.8575935332301,None,690.8575935332301,None,690.8575935332301,None,3,1.6506790402781917,690.8575935332301,None,692.5415452590059,None,692.5415452590059,None,692.5415452590059,None,692.5415452590059,None,692.5415452590059,None,692.5415452590059,None,692.5415452590059,None,696.543129824975,None,696.543129824975,None,696.543129824975,None,696.543129824975,None,696.543129824975,None,696.543129824975,None,696.543129824975,None,697.5268006678743,None,,,,,,,,,,,,,,,,,,,,,,,,,,,,,,23593,2019_Nov_15_1348,Mmi_3levels,3.1.5,59.96047590107259,
,,,2,0,4.3,,,,,,,,,0,1,1,1,0,20,20,8,,,,,,,,,,,,,,,,,,,,,,,,,,,,,,,,,,,,,,,,,,,,,,,,,,,,,,,,,,,False,False,False,0.28,0.28,7.039999999999999,1.5666666666666667,1.075,-0.4916666666666667,0.29166666666666663,certain,certain,0.29166666666666663,1.5954166666666647,699.5442552123968,None,699.5442552123968,None,699.5442552123968,None,699.5442552123968,None,699.5442552123968,None,699.5442552123968,None,699.5442552123968,None,3,1.7842727987772378,699.5442552123968,None,701.3616211850604,None,701.3616211850604,None,701.3616211850604,None,701.3616211850604,None,701.3616211850604,None,701.3616211850604,None,701.3616211850604,None,705.3464986915824,None,705.3464986915824,None,705.3464986915824,None,705.3464986915824,None,705.3464986915824,None,705.3464986915824,None,705.3464986915824,None,714.8501893991524,None,706.346868274315,None,707.3472301774091,None,0.28,7.502858106468921,710.3484176419297,None,None,710.3484176419297,None,,,,,,,,,,,,,,,,,,,23593,2019_Nov_15_1348,Mmi_3levels,3.1.5,59.96047590107259,
,,,2,0,5.5,,,,,,,,,0,1,1,1,0,21,21,17,,,,,,,,,,,,,,,,,,,,,,,,,,,,,,,,,,,,,,,,,,,,,,,,,,,,,,,,,,,False,True,True,0.28,0.28,7.319999999999999,-11.24,5.5,-5.74,-0.1200000000000001,certain,certain,-0.1200000000000001,1.4754166666666646,716.8676794620187,None,716.8676794620187,None,716.8676794620187,None,716.8676794620187,None,716.8676794620187,None,716.8676794620187,None,716.8676794620187,None,3,2.51768173390883,716.8676794620187,None,719.4186284416792,None,719.4186284416792,None,719.4186284416792,None,719.4186284416792,None,719.4186284416792,None,719.4186284416792,None,719.4186284416792,None,723.4201259717156,None,723.4201259717156,None,723.4201259717156,None,723.4201259717156,None,723.4201259717156,None,723.4201259717156,None,723.4201259717156,None,724.4038963299645,None,,,,,,,,,,,,,,,,,,,,,,,,,,,,,,23593,2019_Nov_15_1348,Mmi_3levels,3.1.5,59.96047590107259,
,,,2,0,4.5,,,,,,,,,0,1,1,1,0,22,22,19,,,,,,,,,,,,,,,,,,,,,,,,,,,,,,,,,,,,,,,,,,,,,,,,,,,,,,,,,,,False,True,True,0.28,0.28,7.6,-11.52,4.5,-7.02,-1.2599999999999998,certain,certain,-1.2599999999999998,0.2154166666666648,726.4213447947732,None,726.4213447947732,None,726.4213447947732,None,726.4213447947732,None,726.4213447947732,None,726.4213447947732,None,726.4213447947732,None,3,2.3345181313125067,726.4213447947732,None,728.7889330610487,None,728.7889330610487,None,728.7889330610487,None,728.7889330610487,None,728.7889330610487,None,728.7889330610487,None,728.7889330610487,None,732.7904875484237,None,732.7904875484237,None,732.7904875484237,None,732.7904875484237,None,732.7904875484237,None,732.7904875484237,None,732.7904875484237,None,742.2774804761139,None,733.774195509588,None,734.774588131244,None,0.2,7.502839227348886,737.7757352776498,None,None,737.7757352776498,None,,,,,,,,,,,,,,,,,,,23593,2019_Nov_15_1348,Mmi_3levels,3.1.5,59.96047590107259,
,,,2,0,10.9,,,,,,,,,0,1,1,1,0,23,23,14,,,,,,,,,,,,,,,,,,,,,,,,,,,,,,,,,,,,,,,,,,,,,,,,,,,,,,,,,,,False,False,False,0.2,0.2,7.8,1.35,2.725,1.375,0.6875,gamble,win,2.725,2.940416666666665,744.2949452601606,None,744.2949452601606,None,744.2949452601606,None,744.2949452601606,None,744.2949452601606,None,744.2949452601606,None,744.2949452601606,None,1,1.23411642208157,744.2949452601606,None,745.5621052584429,None,745.5621052584429,None,745.5621052584429,None,745.5621052584429,None,745.5621052584429,None,745.5621052584429,None,745.5621052584429,None,749.5469859648183,None,749.5469859648183,None,749.5469859648183,None,749.5469859648183,None,749.5469859648183,None,749.5469859648183,None,749.5469859648183,None,750.5473689869214,None,,,,,,,,,,,,,,,,,,,,,,,,,,,,,,23593,2019_Nov_15_1348,Mmi_3levels,3.1.5,59.96047590107259,
,,,2,0,-0.5,,,,,,,,,0,1,1,1,0,24,24,15,,,,,,,,,,,,,,,,,,,,,,,,,,,,,,,,,,,,,,,,,,,,,,,,,,,,,,,,,,,False,True,False,0.2,0.2,8.0,-10.8,-0.5,-11.3,-5.9,gamble,lose,-11.3,-8.359583333333337,752.5648196916263,None,752.5648196916263,None,752.5648196916263,None,752.5648196916263,None,752.5648196916263,None,752.5648196916263,None,752.5648196916263,None,1,2.3678752928644826,752.5648196916263,None,754.9657513600978,None,754.9657513600978,None,754.9657513600978,None,754.9657513600978,None,754.9657513600978,None,754.9657513600978,None,754.9657513600978,None,758.9673032875908,None,758.9673032875908,None,758.9673032875908,None,758.9673032875908,None,758.9673032875908,None,758.9673032875908,None,758.9673032875908,None,759.9510099688159,None,,,,,,,,,,,,,,,,,,,,,,,,,,,,,,23593,2019_Nov_15_1348,Mmi_3levels,3.1.5,59.96047590107259,
,,,2,0,3.3,,,,,,,,,0,1,1,1,0,25,25,23,,,,,,,,,,,,,,,,,,,,,,,,,,,,,,,,,,,,,,,,,,,,,,,,,,,,,,,,,,,False,False,True,0.2,0.2,8.2,1.3833333333333333,0.825,-0.5583333333333333,0.1333333333333333,certain,certain,0.1333333333333333,-8.226250000000004,761.9684648333241,None,761.9684648333241,None,761.9684648333241,None,761.9684648333241,None,761.9684648333241,None,761.9684648333241,None,761.9684648333241,None,3,1.667619048836059,761.9684648333241,None,763.669129058293,None,763.669129058293,None,763.669129058293,None,763.669129058293,None,763.669129058293,None,763.669129058293,None,763.669129058293,None,767.6540072047865,None,767.6540072047865,None,767.6540072047865,None,767.6540072047865,None,767.6540072047865,None,767.6540072047865,None,767.6540072047865,None,777.1576374351789,None,768.6543889469503,None,769.6547841284882,None,0.19,7.502775230339466,772.6559341547581,None,None,772.6559341547581,None,,,,,,,,,,,,,,,,,,,23593,2019_Nov_15_1348,Mmi_3levels,3.1.5,59.96047590107259,
,,,2,0,10.3,,,,,,,,,0,1,1,1,0,26,26,6,,,,,,,,,,,,,,,,,,,,,,,,,,,,,,,,,,,,,,,,,,,,,,,,,,,,,,,,,,,False,False,False,0.19,0.19,8.389999999999999,1.3641666666666667,2.575,1.2108333333333334,1.8929166666666668,gamble,win,2.575,-5.651250000000004,779.1751438172832,None,779.1751438172832,None,779.1751438172832,None,779.1751438172832,None,779.1751438172832,None,779.1751438172832,None,779.1751438172832,None,1,1.9677368673328601,779.1751438172832,None,781.1759796182341,None,781.1759796182341,None,781.1759796182341,None,781.1759796182341,None,781.1759796182341,None,781.1759796182341,None,781.1759796182341,None,785.1775373054588,None,785.1775373054588,None,785.1775373054588,None,785.1775373054588,None,785.1775373054588,None,785.1775373054588,None,785.1775373054588,None,786.161180949628,None,,,,,,,,,,,,,,,,,,,,,,,,,,,,,,23593,2019_Nov_15_1348,Mmi_3levels,3.1.5,59.96047590107259,
,,,3,1,12.7,,,,,,,,,0,2,2,2,0,0,0,22,,,,,,,,,,,,,,,,,,,,,,,,,,,,,,,,,,,,,,,,,,,,,,,,790.996380649096,None,0.29,7.502023585457209,793.9975485945324,None,None,793.9975485945324,None,798.4992861133542,None,True,True,True,0.29,-0.71,-0.71,10.649999999999999,12.7,2.0500000000000007,1.0250000000000004,gamble,win,12.7,7.048749999999996,801.5338157001315,None,801.5338157001315,None,801.5338157001315,None,801.5338157001315,None,801.5338157001315,None,801.5338157001315,None,801.5338157001315,None,1,1.1674260978506936,801.5338157001315,None,802.7342802544263,None,802.7342802544263,None,802.7342802544263,None,802.7342802544263,None,802.7342802544263,None,802.7342802544263,None,802.7342802544263,None,806.7191609608017,None,806.7191609608017,None,806.7191609608017,None,806.7191609608017,None,806.7191609608017,None,806.7191609608017,None,806.7191609608017,None,816.2228497484612,None,807.7195721415919,None,808.7199017261919,None,0.63,7.502864826154109,811.7210815110739,None,None,811.7210815110739,None,788.1619514736303,None,4,2.8180408211337635,788.1619514736303,None,,,,,,,,,,,,,23593,2019_Nov_15_1348,Mmi_3levels,3.1.5,59.96047590107259,
,,,3,1,2.9,,,,,,,,,0,2,2,2,0,1,1,8,,,,,,,,,,,,,,,,,,,,,,,,,,,,,,,,,,,,,,,,,,,,,,,,,,,,,,,,,,,True,True,False,0.63,-0.37,-1.08,6.26,2.9,-3.36,-0.22999999999999998,certain,certain,-0.22999999999999998,6.818749999999996,818.2402991732233,None,818.2402991732233,None,818.2402991732233,None,818.2402991732233,None,818.2402991732233,None,818.2402991732233,None,818.2402991732233,None,3,1.5675789227134374,818.2402991732233,None,819.8409216721411,None,819.8409216721411,None,819.8409216721411,None,819.8409216721411,None,819.8409216721411,None,819.8409216721411,None,819.8409216721411,None,823.8257940589028,None,823.8257940589028,None,823.8257940589028,None,823.8257940589028,None,823.8257940589028,None,823.8257940589028,None,823.8257940589028,None,824.8261847606482,None,,,,,,,,,,,,,,,,,,,,,,,,,,,,,,23593,2019_Nov_15_1348,Mmi_3levels,3.1.5,59.96047590107259,
,,,3,1,12.9,,,,,,,,,0,2,2,2,0,2,2,2,,,,,,,,,,,,,,,,,,,,,,,,,,,,,,,,,,,,,,,,,,,,,,,,,,,,,,,,,,,True,True,False,0.63,-0.37,-1.4500000000000002,6.63,12.9,6.2700000000000005,3.1350000000000002,gamble,win,12.9,19.718749999999996,826.8436377052494,None,826.8436377052494,None,826.8436377052494,None,826.8436377052494,None,826.8436377052494,None,826.8436377052494,None,826.8436377052494,None,1,1.1006868159129226,826.8436377052494,None,827.9774167350915,None,827.9774167350915,None,827.9774167350915,None,827.9774167350915,None,827.9774167350915,None,827.9774167350915,None,827.9774167350915,None,831.9622888018675,None,831.9622888018675,None,831.9622888018675,None,831.9622888018675,None,831.9622888018675,None,831.9622888018675,None,831.9622888018675,None,832.9626756637954,None,,,,,,,,,,,,,,,,,,,,,,,,,,,,,,23593,2019_Nov_15_1348,Mmi_3levels,3.1.5,59.96047590107259,
,,,3,1,9.3,,,,,,,,,0,2,2,2,0,3,3,4,,,,,,,,,,,,,,,,,,,,,,,,,,,,,,,,,,,,,,,,,,,,,,,,,,,,,,,,,,,True,True,False,0.63,-0.37,-1.8200000000000003,7.0,9.3,2.3000000000000007,1.1500000000000004,gamble,win,9.3,29.018749999999997,834.9801244485861,None,834.9801244485861,None,834.9801244485861,None,834.9801244485861,None,834.9801244485861,None,834.9801244485861,None,834.9801244485861,None,1,1.1006880958520924,834.9801244485861,None,836.113899318625,None,836.113899318625,None,836.113899318625,None,836.113899318625,None,836.113899318625,None,836.113899318625,None,836.113899318625,None,840.1154013284504,None,840.1154013284504,None,840.1154013284504,None,840.1154013284504,None,840.1154013284504,None,840.1154013284504,None,840.1154013284504,None,849.6024649728388,None,841.0991732866241,None,842.09951055087,None,0.81,7.502876345617551,845.1006503376193,None,None,845.1006503376193,None,,,,,,,,,,,,,,,,,,,23593,2019_Nov_15_1348,Mmi_3levels,3.1.5,59.96047590107259,
,,,3,1,10.9,,,,,,,,,0,2,2,2,0,4,4,18,,,,,,,,,,,,,,,,,,,,,,,,,,,,,,,,,,,,,,,,,,,,,,,,,,,,,,,,,,,True,True,True,0.81,-0.18999999999999995,-2.0100000000000002,4.67,10.9,6.23,3.115,gamble,win,10.9,39.918749999999996,851.6198836790354,None,851.6198836790354,None,851.6198836790354,None,851.6198836790354,None,851.6198836790354,None,851.6198836790354,None,851.6198836790354,None,1,1.0340112109952315,851.6198836790354,None,852.6869787843534,None,852.6869787843534,None,852.6869787843534,None,852.6869787843534,None,852.6869787843534,None,852.6869787843534,None,852.6869787843534,None,856.6718460513548,None,856.6718460513548,None,856.6718460513548,None,856.6718460513548,None,856.6718460513548,None,856.6718460513548,None,856.6718460513548,None,857.6722588320699,None,,,,,,,,,,,,,,,,,,,,,,,,,,,,,,23593,2019_Nov_15_1348,Mmi_3levels,3.1.5,59.96047590107259,
,,,3,1,8.3,,,,,,,,,0,2,2,2,0,5,5,12,,,,,,,,,,,,,,,,,,,,,,,,,,,,,,,,,,,,,,,,,,,,,,,,,,,,,,,,,,,True,True,False,0.81,-0.18999999999999995,-2.2,4.859999999999999,8.3,3.4400000000000013,1.7200000000000006,gamble,win,8.3,48.21875,859.6896925775654,None,859.6896925775654,None,859.6896925775654,None,859.6896925775654,None,859.6896925775654,None,859.6896925775654,None,859.6896925775654,None,1,1.3841487725694606,859.6896925775654,None,861.1069178847974,None,861.1069178847974,None,861.1069178847974,None,861.1069178847974,None,861.1069178847974,None,861.1069178847974,None,861.1069178847974,None,865.1084682123656,None,865.1084682123656,None,865.1084682123656,None,865.1084682123656,None,865.1084682123656,None,865.1084682123656,None,865.1084682123656,None,874.5954777792795,None,866.092189932886,None,867.0925431963842,None,0.82,7.502848826901754,870.0936932226541,None,None,870.0936932226541,None,,,,,,,,,,,,,,,,,,,23593,2019_Nov_15_1348,Mmi_3levels,3.1.5,59.96047590107259,
,,,3,1,4.9,,,,,,,,,0,2,2,2,0,6,6,20,,,,,,,,,,,,,,,,,,,,,,,,,,,,,,,,,,,,,,,,,,,,,,,,,,,,,,,,,,,True,False,True,0.82,-0.18000000000000005,-2.3800000000000003,-0.8283333333333335,4.9,4.071666666666667,2.0358333333333336,gamble,lose,4.071666666666667,52.290416666666665,876.6130040004537,None,876.6130040004537,None,876.6130040004537,None,876.6130040004537,None,876.6130040004537,None,876.6130040004537,None,876.6130040004537,None,1,1.1838099723972846,876.6130040004537,None,877.8300802586527,None,877.8300802586527,None,877.8300802586527,None,877.8300802586527,None,877.8300802586527,None,877.8300802586527,None,877.8300802586527,None,881.8149510454896,None,881.8149510454896,None,881.8149510454896,None,881.8149510454896,None,881.8149510454896,None,881.8149510454896,None,881.8149510454896,None,882.8153449470847,None,,,,,,,,,,,,,,,,,,,,,,,,,,,,,,23593,2019_Nov_15_1348,Mmi_3levels,3.1.5,59.96047590107259,
,,,3,1,10.5,,,,,,,,,0,2,2,2,0,7,7,3,,,,,,,,,,,,,,,,,,,,,,,,,,,,,,,,,,,,,,,,,,,,,,,,,,,,,,,,,,,True,True,True,0.82,-0.18000000000000005,-2.5600000000000005,5.080000000000001,10.5,5.419999999999999,2.7099999999999995,gamble,win,10.5,62.790416666666665,884.8327962917574,None,884.8327962917574,None,884.8327962917574,None,884.8327962917574,None,884.8327962917574,None,884.8327962917574,None,884.8327962917574,None,1,1.017140639189165,884.8327962917574,None,885.8832048166732,None,885.8832048166732,None,885.8832048166732,None,885.8832048166732,None,885.8832048166732,None,885.8832048166732,None,885.8832048166732,None,889.8847519443916,None,889.8847519443916,None,889.8847519443916,None,889.8847519443916,None,889.8847519443916,None,889.8847519443916,None,889.8847519443916,None,899.3717704708833,None,890.8683936686502,None,891.8688000496622,None,0.92,7.502851386783732,894.8699516758606,None,None,894.8699516758606,None,,,,,,,,,,,,,,,,,,,23593,2019_Nov_15_1348,Mmi_3levels,3.1.5,59.96047590107259,
,,,3,1,7.7,,,,,,,,,0,2,2,2,0,8,8,1,,,,,,,,,,,,,,,,,,,,,,,,,,,,,,,,,,,,,,,,,,,,,,,,,,,,,,,,,,,True,True,True,0.92,-0.07999999999999996,-2.6400000000000006,3.76,7.7,3.9400000000000004,1.9700000000000002,gamble,win,7.7,70.49041666666666,901.3892746130914,None,901.3892746130914,None,901.3892746130914,None,901.3892746130914,None,901.3892746130914,None,901.3892746130914,None,901.3892746130914,None,1,1.0006290906094364,901.3892746130914,None,902.4229530396369,None,902.4229530396369,None,902.4229530396369,None,902.4229530396369,None,902.4229530396369,None,902.4229530396369,None,902.4229530396369,None,906.4078292662198,None,906.4078292662198,None,906.4078292662198,None,906.4078292662198,None,906.4078292662198,None,906.4078292662198,None,906.4078292662198,None,907.4082222078614,None,,,,,,,,,,,,,,,,,,,,,,,,,,,,,,23593,2019_Nov_15_1348,Mmi_3levels,3.1.5,59.96047590107259,
,,,3,1,13.7,,,,,,,,,0,2,2,2,0,9,9,6,,,,,,,,,,,,,,,,,,,,,,,,,,,,,,,,,,,,,,,,,,,,,,,,,,,,,,,,,,,True,True,False,0.92,-0.07999999999999996,-2.7200000000000006,3.84,13.7,9.86,4.93,gamble,win,13.7,84.19041666666666,909.425664272967,None,909.425664272967,None,909.425664272967,None,909.425664272967,None,909.425664272967,None,909.425664272967,None,909.425664272967,None,1,1.1006992953261943,909.425664272967,None,910.5594753013138,None,910.5594753013138,None,910.5594753013138,None,910.5594753013138,None,910.5594753013138,None,910.5594753013138,None,910.5594753013138,None,914.5443147296173,None,914.5443147296173,None,914.5443147296173,None,914.5443147296173,None,914.5443147296173,None,914.5443147296173,None,914.5443147296173,None,915.5447022315129,None,,,,,,,,,,,,,,,,,,,,,,,,,,,,,,23593,2019_Nov_15_1348,Mmi_3levels,3.1.5,59.96047590107259,
,,,3,1,0.1,,,,,,,,,0,2,2,2,0,10,10,21,,,,,,,,,,,,,,,,,,,,,,,,,,,,,,,,,,,,,,,,,,,,,,,,,,,,,,,,,,,True,False,False,0.92,-0.07999999999999996,-2.8000000000000007,-0.5133333333333332,0.1,-0.4133333333333332,-0.15666666666666662,certain,certain,-0.15666666666666662,84.03375,917.5621529362179,None,917.5621529362179,None,917.5621529362179,None,917.5621529362179,None,917.5621529362179,None,917.5621529362179,None,917.5621529362179,None,3,2.2178397425268486,917.5621529362179,None,919.8130698533787,None,919.8130698533787,None,919.8130698533787,None,919.8130698533787,None,919.8130698533787,None,919.8130698533787,None,919.8130698533787,None,923.7978683235924,None,923.7978683235924,None,923.7978683235924,None,923.7978683235924,None,923.7978683235924,None,923.7978683235924,None,923.7978683235924,None,933.3015948694883,None,924.7982948636636,None,925.7986874853232,None,0.67,7.502836987456249,928.7997821541794,None,None,928.7997821541794,None,,,,,,,,,,,,,,,,,,,23593,2019_Nov_15_1348,Mmi_3levels,3.1.5,59.96047590107259,
,,,3,1,13.1,,,,,,,,,0,2,2,2,0,11,11,13,,,,,,,,,,,,,,,,,,,,,,,,,,,,,,,,,,,,,,,,,,,,,,,,,,,,,,,,,,,True,False,False,0.67,-0.32999999999999996,-3.130000000000001,-1.4158333333333333,13.1,11.684166666666666,5.842083333333333,gamble,lose,11.684166666666666,95.71791666666667,935.3189940566008,None,935.3189940566008,None,935.3189940566008,None,935.3189940566008,None,935.3189940566008,None,935.3189940566008,None,935.3189940566008,None,1,0.9006446418825362,935.3189940566008,None,936.2527353922051,None,936.2527353922051,None,936.2527353922051,None,936.2527353922051,None,936.2527353922051,None,936.2527353922051,None,936.2527353922051,None,940.2542943593689,None,940.2542943593689,None,940.2542943593689,None,940.2542943593689,None,940.2542943593689,None,940.2542943593689,None,940.2542943593689,None,941.2379991206835,None,,,,,,,,,,,,,,,,,,,,,,,,,,,,,,23593,2019_Nov_15_1348,Mmi_3levels,3.1.5,59.96047590107259,
,,,3,1,1.9,,,,,,,,,0,2,2,2,0,12,12,10,,,,,,,,,,,,,,,,,,,,,,,,,,,,,,,,,,,,,,,,,,,,,,,,,,,,,,,,,,,True,True,False,0.67,-0.32999999999999996,-3.460000000000001,8.08,1.9,-6.18,-2.1399999999999997,certain,certain,-2.1399999999999997,93.57791666666667,943.2554018276278,None,943.2554018276278,None,943.2554018276278,None,943.2554018276278,None,943.2554018276278,None,943.2554018276278,None,943.2554018276278,None,3,1.8508024905095226,943.2554018276278,None,945.1394686840249,None,945.1394686840249,None,945.1394686840249,None,945.1394686840249,None,945.1394686840249,None,945.1394686840249,None,945.1394686840249,None,949.141074049021,None,949.141074049021,None,949.141074049021,None,949.141074049021,None,949.141074049021,None,949.141074049021,None,949.141074049021,None,958.6280868157846,None,950.124753531516,None,951.1251743118592,None,0.62,7.502845947034075,954.1263246581148,None,None,954.1263246581148,None,,,,,,,,,,,,,,,,,,,23593,2019_Nov_15_1348,Mmi_3levels,3.1.5,59.96047590107259,
,,,3,1,1.1,,,,,,,,,0,2,2,2,0,13,13,9,,,,,,,,,,,,,,,,,,,,,,,,,,,,,,,,,,,,,,,,,,,,,,,,,,,,,,,,,,,True,True,True,0.62,-0.38,-3.8400000000000007,9.16,1.1,-8.06,-3.4800000000000004,certain,certain,-3.4800000000000004,90.09791666666666,960.6455039220564,None,960.6455039220564,None,960.6455039220564,None,960.6455039220564,None,960.6455039220564,None,960.6455039220564,None,960.6455039220564,None,3,1.7009512515578535,960.6455039220564,None,962.3795425877724,None,962.3795425877724,None,962.3795425877724,None,962.3795425877724,None,962.3795425877724,None,962.3795425877724,None,962.3795425877724,None,966.3810970751474,None,966.3810970751474,None,966.3810970751474,None,966.3810970751474,None,966.3810970751474,None,966.3810970751474,None,966.3810970751474,None,967.3648088761292,None,,,,,,,,,,,,,,,,,,,,,,,,,,,,,,23593,2019_Nov_15_1348,Mmi_3levels,3.1.5,59.96047590107259,
,,,3,1,6.7,,,,,,,,,0,2,2,2,0,14,14,15,,,,,,,,,,,,,,,,,,,,,,,,,,,,,,,,,,,,,,,,,,,,,,,,,,,,,,,,,,,True,True,True,0.62,-0.38,-4.220000000000001,9.540000000000001,6.7,-2.8400000000000007,1.9299999999999997,certain,certain,1.9299999999999997,92.02791666666667,969.3822531811311,None,969.3822531811311,None,969.3822531811311,None,969.3822531811311,None,969.3822531811311,None,969.3822531811311,None,969.3822531811311,None,3,1.9676447116398776,969.3822531811311,None,971.3829795471975,None,971.3829795471975,None,971.3829795471975,None,971.3829795471975,None,971.3829795471975,None,971.3829795471975,None,971.3829795471975,None,975.3845893919861,None,975.3845893919861,None,975.3845893919861,None,975.3845893919861,None,975.3845893919861,None,975.3845893919861,None,975.3845893919861,None,976.368302152925,None,,,,,,,,,,,,,,,,,,,,,,,,,,,,,,23593,2019_Nov_15_1348,Mmi_3levels,3.1.5,59.96047590107259,
,,,3,1,12.1,,,,,,,,,0,2,2,2,0,15,15,14,,,,,,,,,,,,,,,,,,,,,,,,,,,,,,,,,,,,,,,,,,,,,,,,,,,,,,,,,,,True,True,True,0.62,-0.38,-4.6000000000000005,9.920000000000002,12.1,2.179999999999998,1.089999999999999,gamble,win,12.1,104.12791666666666,978.3856971802306,None,978.3856971802306,None,978.3856971802306,None,978.3856971802306,None,978.3856971802306,None,978.3856971802306,None,978.3856971802306,None,1,1.034050249170832,978.3856971802306,None,979.4528281238709,None,979.4528281238709,None,979.4528281238709,None,979.4528281238709,None,979.4528281238709,None,979.4528281238709,None,979.4528281238709,None,983.4377136300209,None,983.4377136300209,None,983.4377136300209,None,983.4377136300209,None,983.4377136300209,None,983.4377136300209,None,983.4377136300209,None,992.9414392159597,None,984.4380988920202,None,985.4384822341126,None,0.65,7.50283986732029,988.43958074279,None,None,988.43958074279,None,,,,,,,,,,,,,,,,,,,23593,2019_Nov_15_1348,Mmi_3levels,3.1.5,59.96047590107259,
,,,3,1,0.3,,,,,,,,,0,2,2,2,0,16,16,19,,,,,,,,,,,,,,,,,,,,,,,,,,,,,,,,,,,,,,,,,,,,,,,,,,,,,,,,,,,True,False,False,0.65,-0.35,-4.95,-1.6375,0.3,-1.3375,-0.5187499999999999,certain,certain,-0.5187499999999999,103.60916666666667,994.9588691216377,None,994.9588691216377,None,994.9588691216377,None,994.9588691216377,None,994.9588691216377,None,994.9588691216377,None,994.9588691216377,None,3,1.9676821498906065,994.9588691216377,None,996.9596809237082,None,996.9596809237082,None,996.9596809237082,None,996.9596809237082,None,996.9596809237082,None,996.9596809237082,None,996.9596809237082,None,1000.9611554148214,None,1000.9611554148214,None,1000.9611554148214,None,1000.9611554148214,None,1000.9611554148214,None,1000.9611554148214,None,1000.9611554148214,None,1001.944883855027,None,,,,,,,,,,,,,,,,,,,,,,,,,,,,,,23593,2019_Nov_15_1348,Mmi_3levels,3.1.5,59.96047590107259,
,,,3,1,5.3,,,,,,,,,0,2,2,2,0,17,17,0,,,,,,,,,,,,,,,,,,,,,,,,,,,,,,,,,,,,,,,,,,,,,,,,,,,,,,,,,,,True,True,True,0.65,-0.35,-5.3,10.2,5.3,-4.8999999999999995,0.20000000000000018,certain,certain,0.20000000000000018,103.80916666666667,1003.962334879714,None,1003.962334879714,None,1003.962334879714,None,1003.962334879714,None,1003.962334879714,None,1003.962334879714,None,1003.962334879714,None,3,1.4342059538976173,1003.962334879714,None,1005.4295744902811,None,1005.4295744902811,None,1005.4295744902811,None,1005.4295744902811,None,1005.4295744902811,None,1005.4295744902811,None,1005.4295744902811,None,1009.4311193781032,None,1009.4311193781032,None,1009.4311193781032,None,1009.4311193781032,None,1009.4311193781032,None,1009.4311193781032,None,1009.4311193781032,None,1018.9181340647774,None,1010.4148433385199,None,1011.4152302004477,None,0.58,7.502770750550553,1014.4163821466282,None,None,1014.4163821466282,None,,,,,,,,,,,,,,,,,,,23593,2019_Nov_15_1348,Mmi_3levels,3.1.5,59.96047590107259,
,,,3,1,5.9,,,,,,,,,0,2,2,2,0,18,18,17,,,,,,,,,,,,,,,,,,,,,,,,,,,,,,,,,,,,,,,,,,,,,,,,,,,,,,,,,,,True,False,True,0.58,-0.42000000000000004,-5.72,-1.9466666666666668,5.9,3.9533333333333336,1.9766666666666668,gamble,lose,3.9533333333333336,107.7625,1020.9355665303337,None,1020.9355665303337,None,1020.9355665303337,None,1020.9355665303337,None,1020.9355665303337,None,1020.9355665303337,None,1020.9355665303337,None,1,1.034019530605292,1020.9355665303337,None,1022.0026654754693,None,1022.0026654754693,None,1022.0026654754693,None,1022.0026654754693,None,1022.0026654754693,None,1022.0026654754693,None,1022.0026654754693,None,1025.9874764251035,None,1025.9874764251035,None,1025.9874764251035,None,1025.9874764251035,None,1025.9874764251035,None,1025.9874764251035,None,1025.9874764251035,None,1026.9879311238583,None,,,,,,,,,,,,,,,,,,,,,,,,,,,,,,23593,2019_Nov_15_1348,Mmi_3levels,3.1.5,59.96047590107259,
,,,3,1,6.1,,,,,,,,,0,2,2,2,0,19,19,26,,,,,,,,,,,,,,,,,,,,,,,,,,,,,,,,,,,,,,,,,,,,,,,,,,,,,,,,,,,True,False,True,0.58,-0.42000000000000004,-6.14,-1.981666666666667,6.1,4.118333333333332,2.059166666666666,gamble,lose,4.118333333333332,111.88083333333333,1029.0053802286384,None,1029.0053802286384,None,1029.0053802286384,None,1029.0053802286384,None,1029.0053802286384,None,1029.0053802286384,None,1029.0053802286384,None,1,1.0840680723376863,1029.0053802286384,None,1030.1224886773307,None,1030.1224886773307,None,1030.1224886773307,None,1030.1224886773307,None,1030.1224886773307,None,1030.1224886773307,None,1030.1224886773307,None,1034.1240316452422,None,1034.1240316452422,None,1034.1240316452422,None,1034.1240316452422,None,1034.1240316452422,None,1034.1240316452422,None,1034.1240316452422,None,1043.6110472918735,None,1035.1077453661383,None,1036.1081216685561,None,0.57,7.502822908114467,1039.1092851342,None,None,1039.1092851342,None,,,,,,,,,,,,,,,,,,,23593,2019_Nov_15_1348,Mmi_3levels,3.1.5,59.96047590107259,
,,,3,1,9.5,,,,,,,,,0,2,2,2,0,20,20,5,,,,,,,,,,,,,,,,,,,,,,,,,,,,,,,,,,,,,,,,,,,,,,,,,,,,,,,,,,,True,False,True,0.57,-0.43000000000000005,-6.569999999999999,-2.0525,9.5,7.4475,3.72375,gamble,lose,7.4475,119.32833333333333,1045.6285005564569,None,1045.6285005564569,None,1045.6285005564569,None,1045.6285005564569,None,1045.6285005564569,None,1045.6285005564569,None,1045.6285005564569,None,1,1.000683808055328,1045.6285005564569,None,1046.6622343404124,None,1046.6622343404124,None,1046.6622343404124,None,1046.6622343404124,None,1046.6622343404124,None,1046.6622343404124,None,1046.6622343404124,None,1050.647101287428,None,1050.647101287428,None,1050.647101287428,None,1050.647101287428,None,1050.647101287428,None,1050.647101287428,None,1050.647101287428,None,1051.6474971089374,None,,,,,,,,,,,,,,,,,,,,,,,,,,,,,,23593,2019_Nov_15_1348,Mmi_3levels,3.1.5,59.96047590107259,
,,,3,1,12.5,,,,,,,,,0,2,2,2,0,21,21,24,,,,,,,,,,,,,,,,,,,,,,,,,,,,,,,,,,,,,,,,,,,,,,,,,,,,,,,,,,,True,True,True,0.57,-0.43000000000000005,-6.999999999999999,13.02,12.5,-0.5199999999999996,-0.2599999999999998,gamble,win,12.5,131.82833333333332,1053.6649487735958,None,1053.6649487735958,None,1053.6649487735958,None,1053.6649487735958,None,1053.6649487735958,None,1053.6649487735958,None,1053.6649487735958,None,1,1.284098086936865,1053.6649487735958,None,1054.982130114884,None,1054.982130114884,None,1054.982130114884,None,1054.982130114884,None,1054.982130114884,None,1054.982130114884,None,1054.982130114884,None,1058.983716280778,None,1058.983716280778,None,1058.983716280778,None,1058.983716280778,None,1058.983716280778,None,1058.983716280778,None,1058.983716280778,None,1059.9673951233017,None,,,,,,,,,,,,,,,,,,,,,,,,,,,,,,23593,2019_Nov_15_1348,Mmi_3levels,3.1.5,59.96047590107259,
,,,3,1,11.9,,,,,,,,,0,2,2,2,0,22,22,11,,,,,,,,,,,,,,,,,,,,,,,,,,,,,,,,,,,,,,,,,,,,,,,,,,,,,,,,,,,True,True,False,0.57,-0.43000000000000005,-7.429999999999999,13.45,11.9,-1.549999999999999,-0.7749999999999995,gamble,win,11.9,143.72833333333332,1061.9847891906502,None,1061.9847891906502,None,1061.9847891906502,None,1061.9847891906502,None,1061.9847891906502,None,1061.9847891906502,None,1061.9847891906502,None,1,1.4675416764512192,1061.9847891906502,None,1063.485424680959,None,1063.485424680959,None,1063.485424680959,None,1063.485424680959,None,1063.485424680959,None,1063.485424680959,None,1063.485424680959,None,1067.4702535497563,None,1067.4702535497563,None,1067.4702535497563,None,1067.4702535497563,None,1067.4702535497563,None,1067.4702535497563,None,1067.4702535497563,None,1076.9739919350977,None,1068.4706909693195,None,1069.4710768712903,None,0.74,7.502818428321916,1072.4722262575924,None,None,1072.4722262575924,None,,,,,,,,,,,,,,,,,,,23593,2019_Nov_15_1348,Mmi_3levels,3.1.5,59.96047590107259,
,,,3,1,1.3,,,,,,,,,0,2,2,2,0,23,23,16,,,,,,,,,,,,,,,,,,,,,,,,,,,,,,,,,,,,,,,,,,,,,,,,,,,,,,,,,,,True,True,True,0.74,-0.26,-7.689999999999999,11.329999999999998,1.3,-10.029999999999998,-4.364999999999998,certain,certain,-4.364999999999998,139.36333333333332,1078.9914432797705,None,1078.9914432797705,None,1078.9914432797705,None,1078.9914432797705,None,1078.9914432797705,None,1078.9914432797705,None,1078.9914432797705,None,3,2.084369818243431,1078.9914432797705,None,1081.108910431707,None,1081.108910431707,None,1081.108910431707,None,1081.108910431707,None,1081.108910431707,None,1081.108910431707,None,1081.108910431707,None,1085.1104751586026,None,1085.1104751586026,None,1085.1104751586026,None,1085.1104751586026,None,1085.1104751586026,None,1085.1104751586026,None,1085.1104751586026,None,1086.0941904794236,None,,,,,,,,,,,,,,,,,,,,,,,,,,,,,,23593,2019_Nov_15_1348,Mmi_3levels,3.1.5,59.96047590107259,
,,,3,1,2.1,,,,,,,,,0,2,2,2,0,24,24,23,,,,,,,,,,,,,,,,,,,,,,,,,,,,,,,,,,,,,,,,,,,,,,,,,,,,,,,,,,,True,False,True,0.74,-0.26,-7.949999999999998,-1.5724999999999998,2.1,0.5275000000000003,1.3137500000000002,certain,certain,1.3137500000000002,140.67708333333331,1088.111647583828,None,1088.111647583828,None,1088.111647583828,None,1088.111647583828,None,1088.111647583828,None,1088.111647583828,None,1088.111647583828,None,3,1.7009618110641895,1088.111647583828,None,1089.8456904093473,None,1089.8456904093473,None,1089.8456904093473,None,1089.8456904093473,None,1089.8456904093473,None,1089.8456904093473,None,1089.8456904093473,None,1093.8305253578583,None,1093.8305253578583,None,1093.8305253578583,None,1093.8305253578583,None,1093.8305253578583,None,1093.8305253578583,None,1093.8305253578583,None,1103.3342698229135,None,1094.830917019557,None,1095.8313003616495,None,0.57,7.5028216281716595,1098.832455187694,None,None,1098.832455187694,None,,,,,,,,,,,,,,,,,,,23593,2019_Nov_15_1348,Mmi_3levels,3.1.5,59.96047590107259,
,,,3,1,6.5,,,,,,,,,0,2,2,2,0,25,25,7,,,,,,,,,,,,,,,,,,,,,,,,,,,,,,,,,,,,,,,,,,,,,,,,,,,,,,,,,,,True,True,False,0.57,-0.43000000000000005,-8.379999999999999,14.399999999999999,6.5,-7.899999999999999,-0.6999999999999993,certain,certain,-0.6999999999999993,139.97708333333333,1105.3516642102477,None,1105.3516642102477,None,1105.3516642102477,None,1105.3516642102477,None,1105.3516642102477,None,1105.3516642102477,None,1105.3516642102477,None,3,1.7175773547824065,1105.3516642102477,None,1107.1023401786697,None,1107.1023401786697,None,1107.1023401786697,None,1107.1023401786697,None,1107.1023401786697,None,1107.1023401786697,None,1107.1023401786697,None,1111.087217365206,None,1111.087217365206,None,1111.087217365206,None,1111.087217365206,None,1111.087217365206,None,1111.087217365206,None,1111.087217365206,None,1112.0876058270587,None,,,,,,,,,,,,,,,,,,,,,,,,,,,,,,23593,2019_Nov_15_1348,Mmi_3levels,3.1.5,59.96047590107259,
,,,3,1,4.3,,,,,,,,,0,2,2,2,0,26,26,25,,,,,,,,,,,,,,,,,,,,,,,,,,,,,,,,,,,,,,,,,,,,,,,,,,,,,,,,,,,True,True,True,0.57,-0.43000000000000005,-8.809999999999999,14.829999999999998,4.3,-10.529999999999998,-3.114999999999999,certain,certain,-3.114999999999999,136.86208333333332,1114.10505653176,None,1114.10505653176,None,1114.10505653176,None,1114.10505653176,None,1114.10505653176,None,1114.10505653176,None,1114.10505653176,None,3,1.7509809141702135,1114.10505653176,None,1115.889128379924,None,1115.889128379924,None,1115.889128379924,None,1115.889128379924,None,1115.889128379924,None,1115.889128379924,None,1115.889128379924,None,1119.8906345495561,None,1119.8906345495561,None,1119.8906345495561,None,1119.8906345495561,None,1119.8906345495561,None,1119.8906345495561,None,1119.8906345495561,None,1129.3776501961838,None,1120.8742673142333,None,1121.8747332124658,None,0.5,7.502899384540797,1124.8758870785568,None,None,1124.8758870785568,None,,,,,,,,,,,,,,,,,,,23593,2019_Nov_15_1348,Mmi_3levels,3.1.5,59.96047590107259,
,,,,,,,,,,,,,,,,,,,,,,,,,,,,,,0,0,0,0,,,,,,,,,,,,,,,,,,,,,,,,,,,,,,,,,,,,,,,,,,,,,,,,,,,,,,,,,,,,,,,,,,,,,,,,,,,,,,,,,,,,,,,,,,,,,,,,,,,,,,,,,,,,,,,,,,,,,,,,1131.3784133605295,None,4,1.3674180342313775,1131.3784133605295,None,136.86208333333332,4,1132.778922328751,None,1132.778922328751,None,1132.778922328751,None,4,6.002753151369689,1132.778922328751,None,23593,2019_Nov_15_1348,Mmi_3levels,3.1.5,59.96047590107259,
