currSlide,currImage,currText,blockNum,targetHappiness,highAmount,instructionLoop1.thisRepN,instructionLoop1.thisTrialN,instructionLoop1.thisN,instructionLoop1.thisIndex,instructionLoop2.thisRepN,instructionLoop2.thisTrialN,instructionLoop2.thisN,instructionLoop2.thisIndex,blockLoop.thisRepN,blockLoop.thisTrialN,blockLoop.thisN,blockLoop.thisIndex,trialLoop.thisRepN,trialLoop.thisTrialN,trialLoop.thisN,trialLoop.thisIndex,doRatingLoop.thisRepN,doRatingLoop.thisTrialN,doRatingLoop.thisN,doRatingLoop.thisIndex,trialHappyLoop.thisRepN,trialHappyLoop.thisTrialN,trialHappyLoop.thisN,trialHappyLoop.thisIndex,logWinningsLoop.thisRepN,logWinningsLoop.thisTrialN,logWinningsLoop.thisN,logWinningsLoop.thisIndex,instrImage.started,instrImage.stopped,instrText.started,instrText.stopped,instrContinueText.started,instrContinueText.stopped,instrKeyResp.keys,instrKeyResp.rt,instrKeyResp.started,instrKeyResp.stopped,lifeHappyText.started,lifeHappyText.stopped,lifeHappySlider.response,lifeHappySlider.rt,lifeHappySlider.started,lifeHappySlider.stopped,lifeHappyResp.keys,lifeHappyResp.rt,lifeHappyResp.started,lifeHappyResp.stopped,instrImage_2.started,instrImage_2.stopped,instrText_2.started,instrText_2.stopped,instrContinueText_2.started,instrContinueText_2.stopped,instrKeyResp_2.keys,instrKeyResp_2.rt,instrKeyResp_2.started,instrKeyResp_2.stopped,localizing.started,localizing.stopped,start_exp.keys,start_exp.rt,start_exp.started,start_exp.stopped,blockHappyText.started,blockHappyText.stopped,blockHappySlider.response,blockHappySlider.rt,blockHappySlider.started,blockHappySlider.stopped,blockHappyResp.keys,blockHappyResp.started,blockHappyResp.stopped,blankText.started,blankText.stopped,isHappyBlock,isCongruent,isWinOnTop,lastHappyRating,diff,sumDiff,RPE,winAmount,loseAmount,certainAmount,choice,outcome,outcomeAmount,currentWinnings,fixCross.started,fixCross.stopped,certainBox.started,certainBox.stopped,outcome1Box.started,outcome1Box.stopped,outcome2Box.started,outcome2Box.stopped,certainText.started,certainText.stopped,outcome1Text.started,outcome1Text.stopped,outcome2Text.started,outcome2Text.stopped,choiceKey.keys,choiceKey.started,choiceKey.stopped,fixCross_2.started,fixCross_2.stopped,certainBox_2.started,certainBox_2.stopped,outcome1Box_2.started,outcome1Box_2.stopped,outcome2Box_2.started,outcome2Box_2.stopped,certainText_2.started,certainText_2.stopped,outcome1Text_2.started,outcome1Text_2.stopped,outcome2Text_2.started,outcome2Text_2.stopped,fixCross_3.started,fixCross_3.stopped,certainBox_3.started,certainBox_3.stopped,outcome1Box_3.started,outcome1Box_3.stopped,outcome2Box_3.started,outcome2Box_3.stopped,certainText_3.started,certainText_3.stopped,outcome1Text_3.started,outcome1Text_3.stopped,outcome2Text_3.started,outcome2Text_3.stopped,fixCross_ITI.started,fixCross_ITI.stopped,choiceKey.rt,fixCross_ISI.started,fixCross_ISI.stopped,happyText.started,happyText.stopped,happySlider.response,happySlider.rt,happySlider.started,happySlider.stopped,happyResp.keys,happyResp.started,happyResp.stopped,endOfBlockText.started,endOfBlockText.stopped,restKeyResp.keys,restKeyResp.rt,restKeyResp.started,restKeyResp.stopped,finalWinnings,cashBonus,goodbyeText.started,goodbyeText.stopped,finalWinningsText.started,finalWinningsText.stopped,spaceToContinue.started,spaceToContinue.stopped,goodbyeKeyResp_2.keys,goodbyeKeyResp_2.rt,goodbyeKeyResp_2.started,goodbyeKeyResp_2.stopped,participant,date,expName,psychopyVersion,frameRate,
1,black.png,"Welcome! You are about to play our gambling task.
This task has 3 blocks and takes about 15 minutes.",,,,0,0,0,0,,,,,,,,,,,,,,,,,,,,,,,,,17.461728950496763,None,17.461728950496763,None,17.461728950496763,None,4,10.470843055518344,17.461728950496763,None,,,,,,,,,,,,,,,,,,,,,,,,,,,,,,,,,,,,,,,,,,,,,,,,,,,,,,,,,,,,,,,,,,,,,,,,,,,,,,,,,,,,,,,,,,,,,,,,,,,,,,,,,,,,,,,,,,,,,,,,,,,,,,,,,24281,2020_Feb_24_1510,Mmi_3levels,3.1.5,59.97689326161149,
2,black.png,"In this game, you may win or lose points. Your goal is to get as many points as possible. These points will be converted to a cash bonus at the end.
Sometimes we will ask you to rate your mood.",,,,0,1,1,1,,,,,,,,,,,,,,,,,,,,,,,,,27.982479914615396,None,27.982479914615396,None,27.982479914615396,None,4,6.902888367825653,27.982479914615396,None,,,,,,,,,,,,,,,,,,,,,,,,,,,,,,,,,,,,,,,,,,,,,,,,,,,,,,,,,,,,,,,,,,,,,,,,,,,,,,,,,,,,,,,,,,,,,,,,,,,,,,,,,,,,,,,,,,,,,,,,,,,,,,,,,24281,2020_Feb_24_1510,Mmi_3levels,3.1.5,59.97689326161149,
3,black.png,"On the next screen, please rate how you feel about your life these days. Use the LEFT (green) and RIGHT (blue) buttons to move the slider (you can press and hold them to slide gradually) and the TOP (red) button to lock in your response.
Make your rating as accurately and quickly as you can!",,,,0,2,2,2,,,,,,,,,,,,,,,,,,,,,,,,,34.93514051777311,None,34.93514051777311,None,34.93514051777311,None,4,10.004118194396142,34.93514051777311,None,,,,,,,,,,,,,,,,,,,,,,,,,,,,,,,,,,,,,,,,,,,,,,,,,,,,,,,,,,,,,,,,,,,,,,,,,,,,,,,,,,,,,,,,,,,,,,,,,,,,,,,,,,,,,,,,,,,,,,,,,,,,,,,,,24281,2020_Feb_24_1510,Mmi_3levels,3.1.5,59.97689326161149,
,,,,,,,,,,,,,,,,,,,,,,,,,,,,,,,,,,,,,,,,,,,,44.95568989193998,None,0.35,10.302999594248831,48.95717397786211,None,4,6.285965244635008,48.95717397786211,None,,,,,,,,,,,,,,,,,,,,,,,,,,,,,,,,,,,,,,,,,,,,,,,,,,,,,,,,,,,,,,,,,,,,,,,,,,,,,,,,,,,,,,,,,,,,,,,,,,,,,,,,,,,,,,,,,,,,,,,24281,2020_Feb_24_1510,Mmi_3levels,3.1.5,59.97689326161149,
4,black.png,"In this game you can win money by earning points according to your choices. You will decide whether to gamble a number of points or stick with a guaranteed number of points. 
Make your choice by pressing the left or right arrow key once. An example of one trial is shown on the next screen.",,,,,,,,0,0,0,0,,,,,,,,,,,,,,,,,,,,,,,,,,,,,,,,,,,,,,,,,55.309669021342415,None,55.309669021342415,None,55.309669021342415,None,4,10.887695526296739,55.309669021342415,None,,,,,,,,,,,,,,,,,,,,,,,,,,,,,,,,,,,,,,,,,,,,,,,,,,,,,,,,,,,,,,,,,,,,,,,,,,,,,,,,,,,,,,,,,,,,,,,,,,,,,,,,,,,,,24281,2020_Feb_24_1510,Mmi_3levels,3.1.5,59.97689326161149,
5,example_start.png,"The GAMBLING OPTION will be shown on the RIGHT SIDE. 
Select this option using the RIGHT (blue) button on your keypad.",,,,,,,,0,1,1,1,,,,,,,,,,,,,,,,,,,,,,,,,,,,,,,,,,,,,,,,,66.26379803119926,None,66.26379803119926,None,66.26379803119926,None,4,6.6695550557924435,66.26379803119926,None,,,,,,,,,,,,,,,,,,,,,,,,,,,,,,,,,,,,,,,,,,,,,,,,,,,,,,,,,,,,,,,,,,,,,,,,,,,,,,,,,,,,,,,,,,,,,,,,,,,,,,,,,,,,,24281,2020_Feb_24_1510,Mmi_3levels,3.1.5,59.97689326161149,
6,example_gamble.png,"Once you select the gambling choice, the choice you made will remain on the screen.",,,,,,,,0,2,2,2,,,,,,,,,,,,,,,,,,,,,,,,,,,,,,,,,,,,,,,,,72.9664119167137,None,72.9664119167137,None,72.9664119167137,None,4,2.417615312617272,72.9664119167137,None,,,,,,,,,,,,,,,,,,,,,,,,,,,,,,,,,,,,,,,,,,,,,,,,,,,,,,,,,,,,,,,,,,,,,,,,,,,,,,,,,,,,,,,,,,,,,,,,,,,,,,,,,,,,,24281,2020_Feb_24_1510,Mmi_3levels,3.1.5,59.97689326161149,
7,example_win.png,"The outcome you received will then be shown on the screen. In this example , you WON 10 points.",,,,,,,,0,3,3,3,,,,,,,,,,,,,,,,,,,,,,,,,,,,,,,,,,,,,,,,,75.41733820649097,None,75.41733820649097,None,75.41733820649097,None,4,2.7011125204735436,75.41733820649097,None,,,,,,,,,,,,,,,,,,,,,,,,,,,,,,,,,,,,,,,,,,,,,,,,,,,,,,,,,,,,,,,,,,,,,,,,,,,,,,,,,,,,,,,,,,,,,,,,,,,,,,,,,,,,,24281,2020_Feb_24_1510,Mmi_3levels,3.1.5,59.97689326161149,
8,example_start.png,"The GUARANTEED OPTION will be shown on the LEFT SIDE. You are 100% guaranteed to gain or lose this amount. In this example, you have a 100% chance of winning 1 point. Select this option using the LEFT (green) button on your keyboard.",,,,,,,,0,4,4,4,,,,,,,,,,,,,,,,,,,,,,,,,,,,,,,,,,,,,,,,,78.16839799354784,None,78.16839799354784,None,78.16839799354784,None,4,3.1849085293943062,78.16839799354784,None,,,,,,,,,,,,,,,,,,,,,,,,,,,,,,,,,,,,,,,,,,,,,,,,,,,,,,,,,,,,,,,,,,,,,,,,,,,,,,,,,,,,,,,,,,,,,,,,,,,,,,,,,,,,,24281,2020_Feb_24_1510,Mmi_3levels,3.1.5,59.97689326161149,
9,example_certain.png,"Once you select the guaranteed choice, your selection will remain on the screen.",,,,,,,,0,5,5,5,,,,,,,,,,,,,,,,,,,,,,,,,,,,,,,,,,,,,,,,,81.38642710953718,None,81.38642710953718,None,81.38642710953718,None,4,3.8350229556672275,81.38642710953718,None,,,,,,,,,,,,,,,,,,,,,,,,,,,,,,,,,,,,,,,,,,,,,,,,,,,,,,,,,,,,,,,,,,,,,,,,,,,,,,,,,,,,,,,,,,,,,,,,,,,,,,,,,,,,,24281,2020_Feb_24_1510,Mmi_3levels,3.1.5,59.97689326161149,
10,black.png,"Please make your choices as fast as possible.
You will be given a break at the end of each block.
Let's play!",,,,,,,,0,6,6,6,,,,,,,,,,,,,,,,,,,,,,,,,,,,,,,,,,,,,,,,,85.25450761499815,None,85.25450761499815,None,85.25450761499815,None,4,2.601272704487201,85.25450761499815,None,,,,,,,,,,,,,,,,,,,,,,,,,,,,,,,,,,,,,,,,,,,,,,,,,,,,,,,,,,,,,,,,,,,,,,,,,,,,,,,,,,,,,,,,,,,,,,,,,,,,,,,,,,,,,24281,2020_Feb_24_1510,Mmi_3levels,3.1.5,59.97689326161149,
,,,,,,,,,,,,,,,,,,,,,,,,,,,,,,,,,,,,,,,,,,,,,,,,,,,,,,,,,,,,,,,,87.87220317963511,None,space,19.4576238754089,87.87220317963511,None,,,,,,,,,,,,,,,,,,,,,,,,,,,,,,,,,,,,,,,,,,,,,,,,,,,,,,,,,,,,,,,,,,,,,,,,,,,,,,,,,,,,,,,,,,,,,,,,,,,,,,,24281,2020_Feb_24_1510,Mmi_3levels,3.1.5,59.97689326161149,
,,,1,1,9.3,,,,,,,,,0,0,0,0,0,0,0,4,,,,,,,,,,,,,,,,,,,,,,,,,,,,,,,,,,,,,,,,,,,,,,,,,107.34636126965052,None,0.55,7.493741112470161,110.36416422092589,None,None,110.36416422092589,None,114.84922768652905,None,True,False,True,0.55,-0.44999999999999996,-0.44999999999999996,-1.6124999999999998,9.3,7.687500000000001,3.8437500000000004,gamble,lose,7.687500000000001,7.687500000000001,117.88368868624093,None,117.88368868624093,None,117.88368868624093,None,117.88368868624093,None,117.88368868624093,None,117.88368868624093,None,117.88368868624093,None,None,117.88368868624093,None,120.88483614899451,None,120.88483614899451,None,120.88483614899451,None,120.88483614899451,None,120.88483614899451,None,120.88483614899451,None,120.88483614899451,None,124.86970538430614,None,124.86970538430614,None,124.86970538430614,None,124.86970538430614,None,124.86970538430614,None,124.86970538430614,None,124.86970538430614,None,125.87013992259745,None,,,,,,,,,,,,,,,,,,,,,,,,,,,,,,,24281,2020_Feb_24_1510,Mmi_3levels,3.1.5,59.97689326161149,
,,,1,1,5.3,,,,,,,,,0,0,0,0,0,1,1,10,,,,,,,,,,,,,,,,,,,,,,,,,,,,,,,,,,,,,,,,,,,,,,,,,,,,,,,,,,,,True,True,False,0.55,-0.44999999999999996,-0.8999999999999999,7.199999999999999,5.3,-1.8999999999999995,1.7000000000000002,certain,certain,1.7000000000000002,9.387500000000001,127.88753617421025,None,127.88753617421025,None,127.88753617421025,None,127.88753617421025,None,127.88753617421025,None,127.88753617421025,None,127.88753617421025,None,3,127.88753617421025,None,130.57199512602529,None,130.57199512602529,None,130.57199512602529,None,130.57199512602529,None,130.57199512602529,None,130.57199512602529,None,130.57199512602529,None,134.5567715659854,None,134.5567715659854,None,134.5567715659854,None,134.5567715659854,None,134.5567715659854,None,134.5567715659854,None,134.5567715659854,None,135.55716194648994,None,2.651259329111781,,,,,,,,,,,,,,,,,,,,,,,,,,,,,,24281,2020_Feb_24_1510,Mmi_3levels,3.1.5,59.97689326161149,
,,,1,1,2.9,,,,,,,,,0,0,0,0,0,2,2,22,,,,,,,,,,,,,,,,,,,,,,,,,,,,,,,,,,,,,,,,,,,,,,,,,,,,,,,,,,,,True,True,False,0.55,-0.44999999999999996,-1.3499999999999999,7.649999999999999,2.9,-4.749999999999998,-0.9249999999999992,gamble,win,2.9,12.287500000000001,137.57464683364378,None,137.57464683364378,None,137.57464683364378,None,137.57464683364378,None,137.57464683364378,None,137.57464683364378,None,137.57464683364378,None,1,137.57464683364378,None,140.09224307525437,None,140.09224307525437,None,140.09224307525437,None,140.09224307525437,None,140.09224307525437,None,140.09224307525437,None,140.09224307525437,None,144.09376939904178,None,144.09376939904178,None,144.09376939904178,None,144.09376939904178,None,144.09376939904178,None,144.09376939904178,None,144.09376939904178,None,153.5807566086296,None,2.484505413507577,145.0774879718083,None,146.07792091020383,None,0.55,7.5027713816962205,149.07906037330395,None,None,149.07906037330395,None,,,,,,,,,,,,,,,,,,,24281,2020_Feb_24_1510,Mmi_3levels,3.1.5,59.97689326161149,
,,,1,1,-0.5,,,,,,,,,0,0,0,0,0,3,3,12,,,,,,,,,,,,,,,,,,,,,,,,,,,,,,,,,,,,,,,,,,,,,,,,,,,,,,,,,,,,True,True,False,0.55,-0.44999999999999996,-1.7999999999999998,8.099999999999998,-0.5,-8.599999999999998,-4.549999999999999,gamble,win,-0.5,11.787500000000001,155.59825141530018,None,155.59825141530018,None,155.59825141530018,None,155.59825141530018,None,155.59825141530018,None,155.59825141530018,None,155.59825141530018,None,1,155.59825141530018,None,158.39932470570784,None,158.39932470570784,None,158.39932470570784,None,158.39932470570784,None,158.39932470570784,None,158.39932470570784,None,158.39932470570784,None,162.40086606878322,None,162.40086606878322,None,162.40086606878322,None,162.40086606878322,None,162.40086606878322,None,162.40086606878322,None,162.40086606878322,None,163.38453536399174,None,2.7679699829313904,,,,,,,,,,,,,,,,,,,,,,,,,,,,,,24281,2020_Feb_24_1510,Mmi_3levels,3.1.5,59.97689326161149,
,,,1,1,5.7,,,,,,,,,0,0,0,0,0,4,4,13,,,,,,,,,,,,,,,,,,,,,,,,,,,,,,,,,,,,,,,,,,,,,,,,,,,,,,,,,,,,True,True,True,0.55,-0.44999999999999996,-2.25,8.549999999999999,5.7,-2.8499999999999988,1.4250000000000007,certain,certain,1.4250000000000007,13.212500000000002,165.40197961317608,None,165.40197961317608,None,165.40197961317608,None,165.40197961317608,None,165.40197961317608,None,165.40197961317608,None,165.40197961317608,None,3,165.40197961317608,None,167.18605151231168,None,167.18605151231168,None,167.18605151231168,None,167.18605151231168,None,167.18605151231168,None,167.18605151231168,None,167.18605151231168,None,171.17087051016279,None,171.17087051016279,None,171.17087051016279,None,171.17087051016279,None,171.17087051016279,None,171.17087051016279,None,171.17087051016279,None,180.67453464725986,None,1.7509775512153283,172.17128872929607,None,173.17162631242536,None,0.55,7.502751862630248,176.172766095493,None,None,176.172766095493,None,,,,,,,,,,,,,,,,,,,24281,2020_Feb_24_1510,Mmi_3levels,3.1.5,59.97689326161149,
,,,1,1,12.3,,,,,,,,,0,0,0,0,0,5,5,26,,,,,,,,,,,,,,,,,,,,,,,,,,,,,,,,,,,,,,,,,,,,,,,,,,,,,,,,,,,,True,True,True,0.55,-0.44999999999999996,-2.7,9.0,12.3,3.3000000000000007,1.6500000000000004,gamble,win,12.3,25.512500000000003,182.691985616053,None,182.691985616053,None,182.691985616053,None,182.691985616053,None,182.691985616053,None,182.691985616053,None,182.691985616053,None,1,182.691985616053,None,185.02619453234365,None,185.02619453234365,None,185.02619453234365,None,185.02619453234365,None,185.02619453234365,None,185.02619453234365,None,185.02619453234365,None,189.011050648347,None,189.011050648347,None,189.011050648347,None,189.011050648347,None,189.011050648347,None,189.011050648347,None,189.011050648347,None,190.01143942895578,None,2.30093025759561,,,,,,,,,,,,,,,,,,,,,,,,,,,,,,24281,2020_Feb_24_1510,Mmi_3levels,3.1.5,59.97689326161149,
,,,1,1,13.1,,,,,,,,,0,0,0,0,0,6,6,20,,,,,,,,,,,,,,,,,,,,,,,,,,,,,,,,,,,,,,,,,,,,,,,,,,,,,,,,,,,,True,False,True,0.55,-0.44999999999999996,-3.1500000000000004,-1.8374999999999997,13.1,11.2625,5.63125,gamble,lose,11.2625,36.775000000000006,192.02893807541113,None,192.02893807541113,None,192.02893807541113,None,192.02893807541113,None,192.02893807541113,None,192.02893807541113,None,192.02893807541113,None,1,192.02893807541113,None,194.8466380558093,None,194.8466380558093,None,194.8466380558093,None,194.8466380558093,None,194.8466380558093,None,194.8466380558093,None,194.8466380558093,None,198.8482200568542,None,198.8482200568542,None,198.8482200568542,None,198.8482200568542,None,198.8482200568542,None,198.8482200568542,None,198.8482200568542,None,199.83188359235646,None,2.7847381058963947,,,,,,,,,,,,,,,,,,,,,,,,,,,,,,24281,2020_Feb_24_1510,Mmi_3levels,3.1.5,59.97689326161149,
,,,1,1,12.7,,,,,,,,,0,0,0,0,0,7,7,6,,,,,,,,,,,,,,,,,,,,,,,,,,,,,,,,,,,,,,,,,,,,,,,,,,,,,,,,,,,,True,True,True,0.55,-0.44999999999999996,-3.6000000000000005,9.899999999999999,12.7,2.8000000000000007,1.4000000000000004,gamble,win,12.7,49.47500000000001,201.84933872101828,None,201.84933872101828,None,201.84933872101828,None,201.84933872101828,None,201.84933872101828,None,201.84933872101828,None,201.84933872101828,None,1,201.84933872101828,None,204.46699844743125,None,204.46699844743125,None,204.46699844743125,None,204.46699844743125,None,204.46699844743125,None,204.46699844743125,None,204.46699844743125,None,208.4518612831016,None,208.4518612831016,None,208.4518612831016,None,208.4518612831016,None,208.4518612831016,None,208.4518612831016,None,208.4518612831016,None,217.95551998045994,None,2.584601536684204,209.45224110415438,None,210.4526375643327,None,0.56,7.502798900241032,213.4537703077658,None,None,213.4537703077658,None,,,,,,,,,,,,,,,,,,,24281,2020_Feb_24_1510,Mmi_3levels,3.1.5,59.97689326161149,
,,,1,1,11.7,,,,,,,,,0,0,0,0,0,8,8,14,,,,,,,,,,,,,,,,,,,,,,,,,,,,,,,,,,,,,,,,,,,,,,,,,,,,,,,,,,,,True,True,True,0.56,-0.43999999999999995,-4.040000000000001,10.2,11.7,1.5,0.75,gamble,win,11.7,61.17500000000001,219.9729648695793,None,219.9729648695793,None,219.9729648695793,None,219.9729648695793,None,219.9729648695793,None,219.9729648695793,None,219.9729648695793,None,1,219.9729648695793,None,222.07376847747946,None,222.07376847747946,None,222.07376847747946,None,222.07376847747946,None,222.07376847747946,None,222.07376847747946,None,222.07376847747946,None,226.05863931274507,None,226.05863931274507,None,226.05863931274507,None,226.05863931274507,None,226.05863931274507,None,226.05863931274507,None,226.05863931274507,None,227.0590271333931,None,2.0678337337449193,,,,,,,,,,,,,,,,,,,,,,,,,,,,,,24281,2020_Feb_24_1510,Mmi_3levels,3.1.5,59.97689326161149,
,,,1,1,11.1,,,,,,,,,0,0,0,0,0,9,9,24,,,,,,,,,,,,,,,,,,,,,,,,,,,,,,,,,,,,,,,,,,,,,,,,,,,,,,,,,,,,True,True,True,0.56,-0.43999999999999995,-4.48,10.64,11.1,0.4599999999999991,0.22999999999999954,gamble,win,11.1,72.275,229.07647010259097,None,229.07647010259097,None,229.07647010259097,None,229.07647010259097,None,229.07647010259097,None,229.07647010259097,None,229.07647010259097,None,1,229.07647010259097,None,231.67747018067166,None,231.67747018067166,None,231.67747018067166,None,231.67747018067166,None,231.67747018067166,None,231.67747018067166,None,231.67747018067166,None,235.67900738393655,None,235.67900738393655,None,235.67900738393655,None,235.67900738393655,None,235.67900738393655,None,235.67900738393655,None,235.67900738393655,None,245.16598531400086,None,2.5677287789876573,236.6627582751098,None,237.66309969808208,None,0.57,7.502768181846477,240.66423628129996,None,None,240.66423628129996,None,,,,,,,,,,,,,,,,,,,24281,2020_Feb_24_1510,Mmi_3levels,3.1.5,59.97689326161149,
,,,1,1,2.5,,,,,,,,,0,0,0,0,0,10,10,25,,,,,,,,,,,,,,,,,,,,,,,,,,,,,,,,,,,,,,,,,,,,,,,,,,,,,,,,,,,,True,False,False,0.57,-0.43000000000000005,-4.91,-1.9141666666666668,2.5,0.5858333333333332,1.5429166666666667,certain,certain,1.5429166666666667,73.81791666666668,247.18351691885618,None,247.18351691885618,None,247.18351691885618,None,247.18351691885618,None,247.18351691885618,None,247.18351691885618,None,247.18351691885618,None,3,247.18351691885618,None,250.05119840416592,None,250.05119840416592,None,250.05119840416592,None,250.05119840416592,None,250.05119840416592,None,250.05119840416592,None,250.05119840416592,None,254.0527807251783,None,254.0527807251783,None,254.0527807251783,None,254.0527807251783,None,254.0527807251783,None,254.0527807251783,None,254.0527807251783,None,255.03655785502633,None,2.8346159359789453,,,,,,,,,,,,,,,,,,,,,,,,,,,,,,24281,2020_Feb_24_1510,Mmi_3levels,3.1.5,59.97689326161149,
,,,1,1,7.3,,,,,,,,,0,0,0,0,0,11,11,15,,,,,,,,,,,,,,,,,,,,,,,,,,,,,,,,,,,,,,,,,,,,,,,,,,,,,,,,,,,,True,True,False,0.57,-0.43000000000000005,-5.34,11.36,7.3,-4.06,1.62,gamble,win,7.3,81.11791666666667,257.0540005043149,None,257.0540005043149,None,257.0540005043149,None,257.0540005043149,None,257.0540005043149,None,257.0540005043149,None,257.0540005043149,None,None,257.0540005043149,None,260.055101249367,None,260.055101249367,None,260.055101249367,None,260.055101249367,None,260.055101249367,None,260.055101249367,None,260.055101249367,None,264.0399157673819,None,264.0399157673819,None,264.0399157673819,None,264.0399157673819,None,264.0399157673819,None,264.0399157673819,None,264.0399157673819,None,273.5435715849162,None,,265.0403119076509,None,266.04068180918694,None,0.6,7.502828658791259,269.04181711247656,None,None,269.04181711247656,None,,,,,,,,,,,,,,,,,,,24281,2020_Feb_24_1510,Mmi_3levels,3.1.5,59.97689326161149,
,,,1,1,5.9,,,,,,,,,0,0,0,0,0,12,12,18,,,,,,,,,,,,,,,,,,,,,,,,,,,,,,,,,,,,,,,,,,,,,,,,,,,,,,,,,,,,True,True,True,0.6,-0.4,-5.74,11.34,5.9,-5.4399999999999995,0.23000000000000043,certain,certain,0.23000000000000043,81.34791666666668,275.56103215325857,None,275.56103215325857,None,275.56103215325857,None,275.56103215325857,None,275.56103215325857,None,275.56103215325857,None,275.56103215325857,None,3,275.56103215325857,None,277.29500895313686,None,277.29500895313686,None,277.29500895313686,None,277.29500895313686,None,277.29500895313686,None,277.29500895313686,None,277.29500895313686,None,281.27987466863124,None,281.27987466863124,None,281.27987466863124,None,281.27987466863124,None,281.27987466863124,None,281.27987466863124,None,281.27987466863124,None,282.28028872801224,None,1.7008840518537909,,,,,,,,,,,,,,,,,,,,,,,,,,,,,,24281,2020_Feb_24_1510,Mmi_3levels,3.1.5,59.97689326161149,
,,,1,1,12.9,,,,,,,,,0,0,0,0,0,13,13,23,,,,,,,,,,,,,,,,,,,,,,,,,,,,,,,,,,,,,,,,,,,,,,,,,,,,,,,,,,,,True,True,False,0.6,-0.4,-6.140000000000001,11.740000000000002,12.9,1.1599999999999984,0.5799999999999992,gamble,win,12.9,94.24791666666668,284.2977025787113,None,284.2977025787113,None,284.2977025787113,None,284.2977025787113,None,284.2977025787113,None,284.2977025787113,None,284.2977025787113,None,1,284.2977025787113,None,285.71492559090257,None,285.71492559090257,None,285.71492559090257,None,285.71492559090257,None,285.71492559090257,None,285.71492559090257,None,285.71492559090257,None,289.7165114317322,None,289.7165114317322,None,289.7165114317322,None,289.7165114317322,None,289.7165114317322,None,289.7165114317322,None,289.7165114317322,None,290.7001775271492,None,1.3841622626059689,,,,,,,,,,,,,,,,,,,,,,,,,,,,,,24281,2020_Feb_24_1510,Mmi_3levels,3.1.5,59.97689326161149,
,,,1,1,6.7,,,,,,,,,0,0,0,0,0,14,14,9,,,,,,,,,,,,,,,,,,,,,,,,,,,,,,,,,,,,,,,,,,,,,,,,,,,,,,,,,,,,True,False,True,0.6,-0.4,-6.540000000000001,-1.9450000000000003,6.7,4.755,2.3775,gamble,lose,4.755,99.00291666666668,292.7176976125338,None,292.7176976125338,None,292.7176976125338,None,292.7176976125338,None,292.7176976125338,None,292.7176976125338,None,292.7176976125338,None,1,292.7176976125338,None,294.73507242515916,None,294.73507242515916,None,294.73507242515916,None,294.73507242515916,None,294.73507242515916,None,294.73507242515916,None,294.73507242515916,None,298.7199659792823,None,298.7199659792823,None,298.7199659792823,None,298.7199659792823,None,298.7199659792823,None,298.7199659792823,None,298.7199659792823,None,308.2235798789188,None,1.9844231776078232,299.7203582797083,None,300.72072882123757,None,0.63,7.502701625111513,303.72187628393294,None,None,303.72187628393294,None,,,,,,,,,,,,,,,,,,,24281,2020_Feb_24_1510,Mmi_3levels,3.1.5,59.97689326161149,
,,,1,1,13.9,,,,,,,,,0,0,0,0,0,15,15,3,,,,,,,,,,,,,,,,,,,,,,,,,,,,,,,,,,,,,,,,,,,,,,,,,,,,,,,,,,,,True,True,True,0.63,-0.37,-6.910000000000001,12.09,13.9,1.8100000000000005,0.9050000000000002,gamble,win,13.9,112.90291666666668,310.2410254080314,None,310.2410254080314,None,310.2410254080314,None,310.2410254080314,None,310.2410254080314,None,310.2410254080314,None,310.2410254080314,None,1,310.2410254080314,None,312.67528628971195,None,312.67528628971195,None,312.67528628971195,None,312.67528628971195,None,312.67528628971195,None,312.67528628971195,None,312.67528628971195,None,316.66020832239883,None,316.66020832239883,None,316.66020832239883,None,316.66020832239883,None,316.66020832239883,None,316.66020832239883,None,316.66020832239883,None,317.6605839836411,None,2.4011562942760065,,,,,,,,,,,,,,,,,,,,,,,,,,,,,,24281,2020_Feb_24_1510,Mmi_3levels,3.1.5,59.97689326161149,
,,,1,1,11.9,,,,,,,,,0,0,0,0,0,16,16,11,,,,,,,,,,,,,,,,,,,,,,,,,,,,,,,,,,,,,,,,,,,,,,,,,,,,,,,,,,,,True,True,False,0.63,-0.37,-7.280000000000001,12.46,11.9,-0.5600000000000005,-0.28000000000000025,gamble,win,11.9,124.80291666666669,319.6779802352539,None,319.6779802352539,None,319.6779802352539,None,319.6779802352539,None,319.6779802352539,None,319.6779802352539,None,319.6779802352539,None,None,319.6779802352539,None,322.6791372974403,None,322.6791372974403,None,322.6791372974403,None,322.6791372974403,None,322.6791372974403,None,322.6791372974403,None,322.6791372974403,None,326.6806786605157,None,326.6806786605157,None,326.6806786605157,None,326.6806786605157,None,326.6806786605157,None,326.6806786605157,None,326.6806786605157,None,336.1676649101428,None,,327.6643837939482,None,328.6647687347722,None,0.63,7.50273842329625,331.66591491753934,None,None,331.66591491753934,None,,,,,,,,,,,,,,,,,,,24281,2020_Feb_24_1510,Mmi_3levels,3.1.5,59.97689326161149,
,,,1,1,4.1,,,,,,,,,0,0,0,0,0,17,17,5,,,,,,,,,,,,,,,,,,,,,,,,,,,,,,,,,,,,,,,,,,,,,,,,,,,,,,,,,,,,True,True,True,0.63,-0.37,-7.650000000000001,12.830000000000002,4.1,-8.730000000000002,-2.3150000000000013,gamble,win,4.1,128.9029166666667,338.18510499957483,None,338.18510499957483,None,338.18510499957483,None,338.18510499957483,None,338.18510499957483,None,338.18510499957483,None,338.18510499957483,None,None,338.18510499957483,None,341.1862527822377,None,341.1862527822377,None,341.1862527822377,None,341.1862527822377,None,341.1862527822377,None,341.1862527822377,None,341.1862527822377,None,345.1877925454173,None,345.1877925454173,None,345.1877925454173,None,345.1877925454173,None,345.1877925454173,None,345.1877925454173,None,345.1877925454173,None,346.1715130380471,None,,,,,,,,,,,,,,,,,,,,,,,,,,,,,,,24281,2020_Feb_24_1510,Mmi_3levels,3.1.5,59.97689326161149,
,,,1,1,5.5,,,,,,,,,0,0,0,0,0,18,18,7,,,,,,,,,,,,,,,,,,,,,,,,,,,,,,,,,,,,,,,,,,,,,,,,,,,,,,,,,,,,True,True,False,0.63,-0.37,-8.020000000000001,13.200000000000001,5.5,-7.700000000000001,-1.1000000000000005,gamble,win,5.5,134.4029166666667,348.18896112707444,None,348.18896112707444,None,348.18896112707444,None,348.18896112707444,None,348.18896112707444,None,348.18896112707444,None,348.18896112707444,None,1,348.18896112707444,None,350.9233510263148,None,350.9233510263148,None,350.9233510263148,None,350.9233510263148,None,350.9233510263148,None,350.9233510263148,None,350.9233510263148,None,354.90820330247516,None,354.90820330247516,None,354.90820330247516,None,354.90820330247516,None,354.90820330247516,None,354.90820330247516,None,354.90820330247516,None,355.9086292012362,None,2.701336829282809,,,,,,,,,,,,,,,,,,,,,,,,,,,,,,24281,2020_Feb_24_1510,Mmi_3levels,3.1.5,59.97689326161149,
,,,1,1,10.7,,,,,,,,,0,0,0,0,0,19,19,21,,,,,,,,,,,,,,,,,,,,,,,,,,,,,,,,,,,,,,,,,,,,,,,,,,,,,,,,,,,,True,False,True,0.63,-0.37,-8.39,-1.9941666666666666,10.7,8.705833333333333,4.352916666666666,gamble,lose,8.705833333333333,143.10875000000004,357.92602449288825,None,357.92602449288825,None,357.92602449288825,None,357.92602449288825,None,357.92602449288825,None,357.92602449288825,None,357.92602449288825,None,1,357.92602449288825,None,359.55998740543146,None,359.55998740543146,None,359.55998740543146,None,359.55998740543146,None,359.55998740543146,None,359.55998740543146,None,359.55998740543146,None,363.5448566407431,None,363.5448566407431,None,363.5448566407431,None,363.5448566407431,None,363.5448566407431,None,363.5448566407431,None,363.5448566407431,None,373.0485194979119,None,1.6009437608881854,364.54524254146963,None,365.5456310021109,None,0.65,7.502884656016249,368.54676886531524,None,None,368.54676886531524,None,,,,,,,,,,,,,,,,,,,24281,2020_Feb_24_1510,Mmi_3levels,3.1.5,59.97689326161149,
,,,1,1,2.3,,,,,,,,,0,0,0,0,0,20,20,19,,,,,,,,,,,,,,,,,,,,,,,,,,,,,,,,,,,,,,,,,,,,,,,,,,,,,,,,,,,,True,False,False,0.65,-0.35,-8.74,-1.9533333333333331,2.3,0.3466666666666667,1.3233333333333333,gamble,lose,0.3466666666666667,143.4554166666667,375.06595478754025,None,375.06595478754025,None,375.06595478754025,None,375.06595478754025,None,375.06595478754025,None,375.06595478754025,None,375.06595478754025,None,1,375.06595478754025,None,377.5836399847176,None,377.5836399847176,None,377.5836399847176,None,377.5836399847176,None,377.5836399847176,None,377.5836399847176,None,377.5836399847176,None,381.58516950835474,None,381.58516950835474,None,381.58516950835474,None,381.58516950835474,None,381.58516950835474,None,381.58516950835474,None,381.58516950835474,None,382.5688461632235,None,2.484562690660823,,,,,,,,,,,,,,,,,,,,,,,,,,,,,,24281,2020_Feb_24_1510,Mmi_3levels,3.1.5,59.97689326161149,
,,,1,1,12.1,,,,,,,,,0,0,0,0,0,21,21,0,,,,,,,,,,,,,,,,,,,,,,,,,,,,,,,,,,,,,,,,,,,,,,,,,,,,,,,,,,,,True,True,False,0.65,-0.35,-9.09,13.989999999999998,12.1,-1.8899999999999988,-0.9449999999999994,gamble,win,12.1,155.5554166666667,384.58630833151983,None,384.58630833151983,None,384.58630833151983,None,384.58630833151983,None,384.58630833151983,None,384.58630833151983,None,384.58630833151983,None,None,384.58630833151983,None,387.5874442748027,None,387.5874442748027,None,387.5874442748027,None,387.5874442748027,None,387.5874442748027,None,387.5874442748027,None,387.5874442748027,None,391.58897379843984,None,391.58897379843984,None,391.58897379843984,None,391.58897379843984,None,391.58897379843984,None,391.58897379843984,None,391.58897379843984,None,401.07595844817115,None,,392.5727445285884,None,393.5731233896804,None,0.59,7.502820979163516,396.574217735033,None,None,396.574217735033,None,,,,,,,,,,,,,,,,,,,24281,2020_Feb_24_1510,Mmi_3levels,3.1.5,59.97689326161149,
,,,1,1,1.3,,,,,,,,,0,0,0,0,0,22,22,1,,,,,,,,,,,,,,,,,,,,,,,,,,,,,,,,,,,,,,,,,,,,,,,,,,,,,,,,,,,,True,True,False,0.59,-0.41000000000000003,-9.5,15.24,1.3,-13.94,-6.319999999999999,certain,certain,-6.319999999999999,149.2354166666667,403.09340013744077,None,403.09340013744077,None,403.09340013744077,None,403.09340013744077,None,403.09340013744077,None,403.09340013744077,None,403.09340013744077,None,3,403.09340013744077,None,404.8274498936953,None,404.8274498936953,None,404.8274498936953,None,404.8274498936953,None,404.8274498936953,None,404.8274498936953,None,404.8274498936953,None,408.82898133725394,None,408.82898133725394,None,408.82898133725394,None,408.82898133725394,None,408.82898133725394,None,408.82898133725394,None,408.82898133725394,None,409.8126963902032,None,1.7010501236072741,,,,,,,,,,,,,,,,,,,,,,,,,,,,,,24281,2020_Feb_24_1510,Mmi_3levels,3.1.5,59.97689326161149,
,,,1,1,7.1,,,,,,,,,0,0,0,0,0,23,23,17,,,,,,,,,,,,,,,,,,,,,,,,,,,,,,,,,,,,,,,,,,,,,,,,,,,,,,,,,,,,True,True,False,0.59,-0.41000000000000003,-9.91,15.65,7.1,-8.55,-0.7250000000000005,certain,certain,-0.7250000000000005,148.5104166666667,411.83014575910056,None,411.83014575910056,None,411.83014575910056,None,411.83014575910056,None,411.83014575910056,None,411.83014575910056,None,411.83014575910056,None,3,411.83014575910056,None,414.46450833173003,None,414.46450833173003,None,414.46450833173003,None,414.46450833173003,None,414.46450833173003,None,414.46450833173003,None,414.46450833173003,None,418.4660119366599,None,418.4660119366599,None,418.4660119366599,None,418.4660119366599,None,418.4660119366599,None,418.4660119366599,None,418.4660119366599,None,427.9529933865997,None,2.601249025668949,419.4496866716654,None,420.45007737213746,None,0.6,7.502932013652753,423.45125939312857,None,None,423.45125939312857,None,,,,,,,,,,,,,,,,,,,24281,2020_Feb_24_1510,Mmi_3levels,3.1.5,59.97689326161149,
,,,1,1,1.5,,,,,,,,,0,0,0,0,0,24,24,2,,,,,,,,,,,,,,,,,,,,,,,,,,,,,,,,,,,,,,,,,,,,,,,,,,,,,,,,,,,,True,True,False,0.6,-0.4,-10.31,15.91,1.5,-14.41,-6.455,gamble,win,1.5,150.0104166666667,429.97041075711604,None,429.97041075711604,None,429.97041075711604,None,429.97041075711604,None,429.97041075711604,None,429.97041075711604,None,429.97041075711604,None,1,429.97041075711604,None,432.8215161099215,None,432.8215161099215,None,432.8215161099215,None,432.8215161099215,None,432.8215161099215,None,432.8215161099215,None,432.8215161099215,None,436.8231435486814,None,436.8231435486814,None,436.8231435486814,None,436.8231435486814,None,436.8231435486814,None,436.8231435486814,None,436.8231435486814,None,437.80683364288416,None,2.818034363735933,,,,,,,,,,,,,,,,,,,,,,,,,,,,,,24281,2020_Feb_24_1510,Mmi_3levels,3.1.5,59.97689326161149,
,,,1,1,13.3,,,,,,,,,0,0,0,0,0,25,25,16,,,,,,,,,,,,,,,,,,,,,,,,,,,,,,,,,,,,,,,,,,,,,,,,,,,,,,,,,,,,True,False,False,0.6,-0.4,-10.71,-2.2925000000000004,13.3,11.0075,5.50375,gamble,lose,11.0075,161.0179166666667,439.824194696208,None,439.824194696208,None,439.824194696208,None,439.824194696208,None,439.824194696208,None,439.824194696208,None,439.824194696208,None,1,439.824194696208,None,441.04136913485127,None,441.04136913485127,None,441.04136913485127,None,441.04136913485127,None,441.04136913485127,None,441.04136913485127,None,441.04136913485127,None,445.02622173103737,None,445.02622173103737,None,445.02622173103737,None,445.02622173103737,None,445.02622173103737,None,445.02622173103737,None,445.02622173103737,None,446.02662459091516,None,1.1840509721660055,,,,,,,,,,,,,,,,,,,,,,,,,,,,,,24281,2020_Feb_24_1510,Mmi_3levels,3.1.5,59.97689326161149,
,,,1,1,-1.3,,,,,,,,,0,0,0,0,0,26,26,8,,,,,,,,,,,,,,,,,,,,,,,,,,,,,,,,,,,,,,,,,,,,,,,,,,,,,,,,,,,,True,True,True,0.6,-0.4,-11.110000000000001,16.71,-1.3,-18.01,-9.655000000000001,gamble,win,-1.3,159.7179166666667,448.04407267988427,None,448.04407267988427,None,448.04407267988427,None,448.04407267988427,None,448.04407267988427,None,448.04407267988427,None,448.04407267988427,None,None,448.04407267988427,None,451.04518462438136,None,451.04518462438136,None,451.04518462438136,None,451.04518462438136,None,451.04518462438136,None,451.04518462438136,None,451.04518462438136,None,455.046720547718,None,455.046720547718,None,455.046720547718,None,455.046720547718,None,455.046720547718,None,455.046720547718,None,455.046720547718,None,464.5336936780368,None,,456.0304090419668,None,457.03084550017957,None,0.6,7.502786420925986,460.0319945628289,None,None,460.0319945628289,None,,,,,,,,,,,,,,,,,,,24281,2020_Feb_24_1510,Mmi_3levels,3.1.5,59.97689326161149,
,,,2,0,8.7,,,,,,,,,0,1,1,1,0,0,0,21,,,,,,,,,,,,,,,,,,,,,,,,,,,,,,,,,,,,,,,,,,,,,,,,,470.38594937341986,None,0.61,7.5018210291164,473.40375744440826,None,None,473.40375744440826,None,477.8888762673014,None,False,False,True,0.61,0.61,0.61,2.185833333333333,2.175,-0.01083333333333325,1.0820833333333333,gamble,win,2.175,161.8929166666667,480.9233401468373,None,480.9233401468373,None,480.9233401468373,None,480.9233401468373,None,480.9233401468373,None,480.9233401468373,None,480.9233401468373,None,None,480.9233401468373,None,483.9244879295584,None,483.9244879295584,None,483.9244879295584,None,483.9244879295584,None,483.9244879295584,None,483.9244879295584,None,483.9244879295584,None,487.92613232746953,None,487.92613232746953,None,487.92613232746953,None,487.92613232746953,None,487.92613232746953,None,487.92613232746953,None,487.92613232746953,None,488.90983746090205,None,,,,,,,,,,,,,466.5345582748414,None,4,3.834926320472732,466.5345582748414,None,,,,,,,,,,,,,24281,2020_Feb_24_1510,Mmi_3levels,3.1.5,59.97689326161149,
,,,2,0,5.7,,,,,,,,,0,1,1,1,0,1,1,26,,,,,,,,,,,,,,,,,,,,,,,,,,,,,,,,,,,,,,,,,,,,,,,,,,,,,,,,,,,,False,True,True,0.61,0.61,1.22,-9.76,5.7,-4.06,0.8200000000000003,certain,certain,0.8200000000000003,162.7129166666667,490.92723115260014,None,490.92723115260014,None,490.92723115260014,None,490.92723115260014,None,490.92723115260014,None,490.92723115260014,None,490.92723115260014,None,3,490.92723115260014,None,492.6445083061699,None,492.6445083061699,None,492.6445083061699,None,492.6445083061699,None,492.6445083061699,None,492.6445083061699,None,492.6445083061699,None,496.62937146180775,None,496.62937146180775,None,496.62937146180775,None,496.62937146180775,None,496.62937146180775,None,496.62937146180775,None,496.62937146180775,None,506.13302695931634,None,1.6843143189908005,497.6297644021688,None,498.6301423033001,None,0.59,7.50281233957503,501.6313451232272,None,None,501.6313451232272,None,,,,,,,,,,,,,,,,,,,24281,2020_Feb_24_1510,Mmi_3levels,3.1.5,59.97689326161149,
,,,2,0,10.9,,,,,,,,,0,1,1,1,0,2,2,4,,,,,,,,,,,,,,,,,,,,,,,,,,,,,,,,,,,,,,,,,,,,,,,,,,,,,,,,,,,,False,True,False,0.59,0.59,1.81,-10.07,10.9,0.8300000000000001,0.41500000000000004,gamble,lose,0.8300000000000001,163.5429166666667,508.15052208595444,None,508.15052208595444,None,508.15052208595444,None,508.15052208595444,None,508.15052208595444,None,508.15052208595444,None,508.15052208595444,None,1,508.15052208595444,None,509.8344527441077,None,509.8344527441077,None,509.8344527441077,None,509.8344527441077,None,509.8344527441077,None,509.8344527441077,None,509.8344527441077,None,513.8193523779046,None,513.8193523779046,None,513.8193523779046,None,513.8193523779046,None,513.8193523779046,None,513.8193523779046,None,513.8193523779046,None,514.8197133199428,None,1.6508283106377348,,,,,,,,,,,,,,,,,,,,,,,,,,,,,,24281,2020_Feb_24_1510,Mmi_3levels,3.1.5,59.97689326161149,
,,,2,0,5.1,,,,,,,,,0,1,1,1,0,3,3,19,,,,,,,,,,,,,,,,,,,,,,,,,,,,,,,,,,,,,,,,,,,,,,,,,,,,,,,,,,,,False,False,True,0.59,0.59,2.4,2.265,1.275,-0.9900000000000002,0.14249999999999985,gamble,win,1.275,164.81791666666672,516.8371502094669,None,516.8371502094669,None,516.8371502094669,None,516.8371502094669,None,516.8371502094669,None,516.8371502094669,None,516.8371502094669,None,None,516.8371502094669,None,519.8383488696418,None,519.8383488696418,None,519.8383488696418,None,519.8383488696418,None,519.8383488696418,None,519.8383488696418,None,519.8383488696418,None,523.8398444749764,None,523.8398444749764,None,523.8398444749764,None,523.8398444749764,None,523.8398444749764,None,523.8398444749764,None,523.8398444749764,None,533.3268198451842,None,,524.8235505683697,None,525.824025424663,None,0.58,7.502804660005495,528.8250717724441,None,None,528.8250717724441,None,,,,,,,,,,,,,,,,,,,24281,2020_Feb_24_1510,Mmi_3levels,3.1.5,59.97689326161149,
,,,2,0,-1.1,,,,,,,,,0,1,1,1,0,4,4,7,,,,,,,,,,,,,,,,,,,,,,,,,,,,,,,,,,,,,,,,,,,,,,,,,,,,,,,,,,,,False,False,True,0.58,0.58,2.98,2.2783333333333333,-0.275,-2.5533333333333332,-1.4141666666666666,certain,certain,-1.4141666666666666,163.40375000000006,535.3443533699028,None,535.3443533699028,None,535.3443533699028,None,535.3443533699028,None,535.3443533699028,None,535.3443533699028,None,535.3443533699028,None,3,535.3443533699028,None,537.8119002699386,None,537.8119002699386,None,537.8119002699386,None,537.8119002699386,None,537.8119002699386,None,537.8119002699386,None,537.8119002699386,None,541.8134701115778,None,541.8134701115778,None,541.8134701115778,None,541.8134701115778,None,541.8134701115778,None,541.8134701115778,None,541.8134701115778,None,542.7971845245338,None,2.4344663114170544,,,,,,,,,,,,,,,,,,,,,,,,,,,,,,24281,2020_Feb_24_1510,Mmi_3levels,3.1.5,59.97689326161149,
,,,2,0,5.3,,,,,,,,,0,1,1,1,0,5,5,20,,,,,,,,,,,,,,,,,,,,,,,,,,,,,,,,,,,,,,,,,,,,,,,,,,,,,,,,,,,,False,True,False,0.58,0.58,3.56,-11.68,5.3,-6.38,-0.54,gamble,lose,-6.38,157.02375000000006,544.8145842959639,None,544.8145842959639,None,544.8145842959639,None,544.8145842959639,None,544.8145842959639,None,544.8145842959639,None,544.8145842959639,None,1,544.8145842959639,None,547.2821871932247,None,547.2821871932247,None,547.2821871932247,None,547.2821871932247,None,547.2821871932247,None,547.2821871932247,None,547.2821871932247,None,551.2837317560916,None,551.2837317560916,None,551.2837317560916,None,551.2837317560916,None,551.2837317560916,None,551.2837317560916,None,551.2837317560916,None,552.2674829672324,None,2.4343354380107485,,,,,,,,,,,,,,,,,,,,,,,,,,,,,,24281,2020_Feb_24_1510,Mmi_3levels,3.1.5,59.97689326161149,
,,,2,0,13.5,,,,,,,,,0,1,1,1,0,6,6,14,,,,,,,,,,,,,,,,,,,,,,,,,,,,,,,,,,,,,,,,,,,,,,,,,,,,,,,,,,,,False,True,True,0.58,0.58,4.14,-12.259999999999998,13.5,1.240000000000002,0.620000000000001,gamble,lose,1.240000000000002,158.26375000000007,554.2848788988194,None,554.2848788988194,None,554.2848788988194,None,554.2848788988194,None,554.2848788988194,None,554.2848788988194,None,554.2848788988194,None,1,554.2848788988194,None,556.3189959157025,None,556.3189959157025,None,556.3189959157025,None,556.3189959157025,None,556.3189959157025,None,556.3189959157025,None,556.3189959157025,None,560.3205411185627,None,560.3205411185627,None,560.3205411185627,None,560.3205411185627,None,560.3205411185627,None,560.3205411185627,None,560.3205411185627,None,569.80760192452,None,2.000845397822559,561.304247211956,None,562.3046830302337,None,0.59,7.502795060456265,565.3058221733663,None,None,565.3058221733663,None,,,,,,,,,,,,,,,,,,,24281,2020_Feb_24_1510,Mmi_3levels,3.1.5,59.97689326161149,
,,,2,0,2.3,,,,,,,,,0,1,1,1,0,7,7,9,,,,,,,,,,,,,,,,,,,,,,,,,,,,,,,,,,,,,,,,,,,,,,,,,,,,,,,,,,,,False,True,True,0.59,0.59,4.7299999999999995,-12.989999999999998,2.3,-10.689999999999998,-4.1949999999999985,certain,certain,-4.1949999999999985,154.06875000000008,571.8249632978113,None,571.8249632978113,None,571.8249632978113,None,571.8249632978113,None,571.8249632978113,None,571.8249632978113,None,571.8249632978113,None,3,571.8249632978113,None,573.9924672560301,None,573.9924672560301,None,573.9924672560301,None,573.9924672560301,None,573.9924672560301,None,573.9924672560301,None,573.9924672560301,None,577.9773220921052,None,577.9773220921052,None,577.9773220921052,None,577.9773220921052,None,577.9773220921052,None,577.9773220921052,None,577.9773220921052,None,578.9777153524337,None,2.134495045989752,,,,,,,,,,,,,,,,,,,,,,,,,,,,,,24281,2020_Feb_24_1510,Mmi_3levels,3.1.5,59.97689326161149,
,,,2,0,12.3,,,,,,,,,0,1,1,1,0,8,8,16,,,,,,,,,,,,,,,,,,,,,,,,,,,,,,,,,,,,,,,,,,,,,,,,,,,,,,,,,,,,False,False,True,0.59,0.59,5.319999999999999,2.5083333333333333,3.075,0.5666666666666669,1.8208333333333335,certain,certain,1.8208333333333335,155.8895833333334,580.9952069592546,None,580.9952069592546,None,580.9952069592546,None,580.9952069592546,None,580.9952069592546,None,580.9952069592546,None,580.9952069592546,None,3,580.9952069592546,None,582.595821776602,None,582.595821776602,None,582.595821776602,None,582.595821776602,None,582.595821776602,None,582.595821776602,None,582.595821776602,None,586.5806817323901,None,586.5806817323901,None,586.5806817323901,None,586.5806817323901,None,586.5806817323901,None,586.5806817323901,None,586.5806817323901,None,596.0843417096767,None,1.5675009503611363,587.5811268301331,None,588.5814020163962,None,0.6,7.502904815017246,591.582632035017,None,None,591.582632035017,None,,,,,,,,,,,,,,,,,,,24281,2020_Feb_24_1510,Mmi_3levels,3.1.5,59.97689326161149,
,,,2,0,-0.9,,,,,,,,,0,1,1,1,0,9,9,25,,,,,,,,,,,,,,,,,,,,,,,,,,,,,,,,,,,,,,,,,,,,,,,,,,,,,,,,,,,,False,True,False,0.6,0.6,5.919999999999999,-14.32,-0.9,-15.22,-8.06,certain,certain,-8.06,147.8295833333334,598.101785958861,None,598.101785958861,None,598.101785958861,None,598.101785958861,None,598.101785958861,None,598.101785958861,None,598.101785958861,None,3,598.101785958861,None,601.0529173583491,None,601.0529173583491,None,601.0529173583491,None,601.0529173583491,None,601.0529173583491,None,601.0529173583491,None,601.0529173583491,None,605.0544161635335,None,605.0544161635335,None,605.0544161635335,None,605.0544161635335,None,605.0544161635335,None,605.0544161635335,None,605.0544161635335,None,606.0381411359995,None,2.9182002434390597,,,,,,,,,,,,,,,,,,,,,,,,,,,,,,24281,2020_Feb_24_1510,Mmi_3levels,3.1.5,59.97689326161149,
,,,2,0,13.9,,,,,,,,,0,1,1,1,0,10,10,1,,,,,,,,,,,,,,,,,,,,,,,,,,,,,,,,,,,,,,,,,,,,,,,,,,,,,,,,,,,,False,True,False,0.6,0.6,6.519999999999999,-14.919999999999998,13.9,-1.0199999999999978,-0.5099999999999989,gamble,lose,-1.0199999999999978,146.8095833333334,608.0556106638978,None,608.0556106638978,None,608.0556106638978,None,608.0556106638978,None,608.0556106638978,None,608.0556106638978,None,608.0556106638978,None,1,608.0556106638978,None,610.2230679044733,None,610.2230679044733,None,610.2230679044733,None,610.2230679044733,None,610.2230679044733,None,610.2230679044733,None,610.2230679044733,None,614.2246911834227,None,614.2246911834227,None,614.2246911834227,None,614.2246911834227,None,614.2246911834227,None,614.2246911834227,None,614.2246911834227,None,615.2083163208445,None,2.134452168131247,,,,,,,,,,,,,,,,,,,,,,,,,,,,,,24281,2020_Feb_24_1510,Mmi_3levels,3.1.5,59.97689326161149,
,,,2,0,12.9,,,,,,,,,0,1,1,1,0,11,11,11,,,,,,,,,,,,,,,,,,,,,,,,,,,,,,,,,,,,,,,,,,,,,,,,,,,,,,,,,,,,False,True,True,0.6,0.6,7.119999999999998,-15.52,12.9,-2.619999999999999,-1.3099999999999996,gamble,lose,-2.619999999999999,144.1895833333334,617.2258053678088,None,617.2258053678088,None,617.2258053678088,None,617.2258053678088,None,617.2258053678088,None,617.2258053678088,None,617.2258053678088,None,None,617.2258053678088,None,620.2269557103864,None,620.2269557103864,None,620.2269557103864,None,620.2269557103864,None,620.2269557103864,None,620.2269557103864,None,620.2269557103864,None,624.228469874768,None,624.228469874768,None,624.228469874768,None,624.228469874768,None,624.228469874768,None,624.228469874768,None,624.228469874768,None,633.7154810831998,None,,625.2122063666466,None,626.2125945072621,None,0.58,7.502725303929765,629.2137608490884,None,None,629.2137608490884,None,,,,,,,,,,,,,,,,,,,24281,2020_Feb_24_1510,Mmi_3levels,3.1.5,59.97689326161149,
,,,2,0,4.3,,,,,,,,,0,1,1,1,0,12,12,6,,,,,,,,,,,,,,,,,,,,,,,,,,,,,,,,,,,,,,,,,,,,,,,,,,,,,,,,,,,,False,True,False,0.58,0.58,7.699999999999998,-15.819999999999997,4.3,-11.519999999999996,-3.609999999999998,certain,certain,-3.609999999999998,140.5795833333334,635.7329288522014,None,635.7329288522014,None,635.7329288522014,None,635.7329288522014,None,635.7329288522014,None,635.7329288522014,None,635.7329288522014,None,3,635.7329288522014,None,637.5669630572083,None,637.5669630572083,None,637.5669630572083,None,637.5669630572083,None,637.5669630572083,None,637.5669630572083,None,637.5669630572083,None,641.5517826949945,None,641.5517826949945,None,641.5517826949945,None,641.5517826949945,None,641.5517826949945,None,641.5517826949945,None,641.5517826949945,None,642.5522489117575,None,1.8008998590521514,,,,,,,,,,,,,,,,,,,,,,,,,,,,,,24281,2020_Feb_24_1510,Mmi_3levels,3.1.5,59.97689326161149,
,,,2,0,6.1,,,,,,,,,0,1,1,1,0,13,13,2,,,,,,,,,,,,,,,,,,,,,,,,,,,,,,,,,,,,,,,,,,,,,,,,,,,,,,,,,,,,False,True,True,0.58,0.58,8.279999999999998,-16.4,6.1,-10.299999999999999,-2.0999999999999996,gamble,lose,-10.299999999999999,130.2795833333334,644.5696275641676,None,644.5696275641676,None,644.5696275641676,None,644.5696275641676,None,644.5696275641676,None,644.5696275641676,None,644.5696275641676,None,None,644.5696275641676,None,647.5707619075547,None,647.5707619075547,None,647.5707619075547,None,647.5707619075547,None,647.5707619075547,None,647.5707619075547,None,647.5707619075547,None,651.5723547880771,None,651.5723547880771,None,651.5723547880771,None,651.5723547880771,None,651.5723547880771,None,651.5723547880771,None,651.5723547880771,None,661.0592760809232,None,,652.5560112839448,None,653.5565014994354,None,0.56,7.502759542257991,656.557530248072,None,None,656.557530248072,None,,,,,,,,,,,,,,,,,,,24281,2020_Feb_24_1510,Mmi_3levels,3.1.5,59.97689326161149,
,,,2,0,10.7,,,,,,,,,0,1,1,1,0,14,14,5,,,,,,,,,,,,,,,,,,,,,,,,,,,,,,,,,,,,,,,,,,,,,,,,,,,,,,,,,,,,False,True,True,0.56,0.56,8.839999999999998,-16.68,10.7,-5.98,-2.99,certain,certain,-2.99,127.2895833333334,663.0767212900682,None,663.0767212900682,None,663.0767212900682,None,663.0767212900682,None,663.0767212900682,None,663.0767212900682,None,663.0767212900682,None,3,663.0767212900682,None,665.5610116742901,None,665.5610116742901,None,665.5610116742901,None,665.5610116742901,None,665.5610116742901,None,665.5610116742901,None,665.5610116742901,None,669.5625207189587,None,669.5625207189587,None,669.5625207189587,None,669.5625207189587,None,669.5625207189587,None,669.5625207189587,None,669.5625207189587,None,670.5462642504717,None,2.4510773222427815,,,,,,,,,,,,,,,,,,,,,,,,,,,,,,24281,2020_Feb_24_1510,Mmi_3levels,3.1.5,59.97689326161149,
,,,2,0,1.3,,,,,,,,,0,1,1,1,0,15,15,23,,,,,,,,,,,,,,,,,,,,,,,,,,,,,,,,,,,,,,,,,,,,,,,,,,,,,,,,,,,,False,False,True,0.56,0.56,9.399999999999999,2.743333333333333,0.325,-2.418333333333333,-1.0466666666666664,gamble,win,0.325,127.6145833333334,672.5637340983958,None,672.5637340983958,None,672.5637340983958,None,672.5637340983958,None,672.5637340983958,None,672.5637340983958,None,672.5637340983958,None,None,672.5637340983958,None,675.5648575623054,None,675.5648575623054,None,675.5648575623054,None,675.5648575623054,None,675.5648575623054,None,675.5648575623054,None,675.5648575623054,None,679.5497786350315,None,679.5497786350315,None,679.5497786350315,None,679.5497786350315,None,679.5497786350315,None,679.5497786350315,None,679.5497786350315,None,689.0533832550864,None,,680.5501587760518,None,681.5505427569151,None,0.6,7.502770101709757,684.5516409421107,None,None,684.5516409421107,None,,,,,,,,,,,,,,,,,,,24281,2020_Feb_24_1510,Mmi_3levels,3.1.5,59.97689326161149,
,,,2,0,0.1,,,,,,,,,0,1,1,1,0,16,16,15,,,,,,,,,,,,,,,,,,,,,,,,,,,,,,,,,,,,,,,,,,,,,,,,,,,,,,,,,,,,False,True,False,0.6,0.6,9.999999999999998,-18.4,0.1,-18.299999999999997,-9.099999999999998,certain,certain,-9.099999999999998,118.5145833333334,691.0708214245969,None,691.0708214245969,None,691.0708214245969,None,691.0708214245969,None,691.0708214245969,None,691.0708214245969,None,691.0708214245969,None,3,691.0708214245969,None,692.6548153116019,None,692.6548153116019,None,692.6548153116019,None,692.6548153116019,None,692.6548153116019,None,692.6548153116019,None,692.6548153116019,None,696.6563035573345,None,696.6563035573345,None,696.6563035573345,None,696.6563035573345,None,696.6563035573345,None,696.6563035573345,None,696.6563035573345,None,697.6400240500225,None,1.5508464217418805,,,,,,,,,,,,,,,,,,,,,,,,,,,,,,24281,2020_Feb_24_1510,Mmi_3levels,3.1.5,59.97689326161149,
,,,2,0,0.9,,,,,,,,,0,1,1,1,0,17,17,13,,,,,,,,,,,,,,,,,,,,,,,,,,,,,,,,,,,,,,,,,,,,,,,,,,,,,,,,,,,,False,False,True,0.6,0.6,10.599999999999998,2.9833333333333334,0.225,-2.7583333333333333,-1.2666666666666666,certain,certain,-1.2666666666666666,117.24791666666674,699.6575022175093,None,699.6575022175093,None,699.6575022175093,None,699.6575022175093,None,699.6575022175093,None,699.6575022175093,None,699.6575022175093,None,3,699.6575022175093,None,701.7749917124165,None,701.7749917124165,None,701.7749917124165,None,701.7749917124165,None,701.7749917124165,None,701.7749917124165,None,701.7749917124165,None,705.7764809180517,None,705.7764809180517,None,705.7764809180517,None,705.7764809180517,None,705.7764809180517,None,705.7764809180517,None,705.7764809180517,None,706.7601889313664,None,2.0843305102316663,,,,,,,,,,,,,,,,,,,,,,,,,,,,,,24281,2020_Feb_24_1510,Mmi_3levels,3.1.5,59.97689326161149,
,,,2,0,7.9,,,,,,,,,0,1,1,1,0,18,18,22,,,,,,,,,,,,,,,,,,,,,,,,,,,,,,,,,,,,,,,,,,,,,,,,,,,,,,,,,,,,False,False,False,0.6,0.6,11.199999999999998,3.033333333333333,1.975,-1.0583333333333331,0.4583333333333335,gamble,win,1.975,119.22291666666673,708.7776802182198,None,708.7776802182198,None,708.7776802182198,None,708.7776802182198,None,708.7776802182198,None,708.7776802182198,None,708.7776802182198,None,None,708.7776802182198,None,711.7787947225734,None,711.7787947225734,None,711.7787947225734,None,711.7787947225734,None,711.7787947225734,None,711.7787947225734,None,711.7787947225734,None,715.7803757636575,None,715.7803757636575,None,715.7803757636575,None,715.7803757636575,None,715.7803757636575,None,715.7803757636575,None,715.7803757636575,None,725.2673572135391,None,,716.764038339199,None,717.7644258398796,None,0.58,7.502824499038979,720.7655560234562,None,None,720.7655560234562,None,,,,,,,,,,,,,,,,,,,24281,2020_Feb_24_1510,Mmi_3levels,3.1.5,59.97689326161149,
,,,2,0,11.7,,,,,,,,,0,1,1,1,0,19,19,18,,,,,,,,,,,,,,,,,,,,,,,,,,,,,,,,,,,,,,,,,,,,,,,,,,,,,,,,,,,,False,False,True,0.58,0.58,11.779999999999998,3.0116666666666663,2.925,-0.08666666666666645,1.4191666666666667,gamble,win,2.925,122.14791666666673,727.2847483453806,None,727.2847483453806,None,727.2847483453806,None,727.2847483453806,None,727.2847483453806,None,727.2847483453806,None,727.2847483453806,None,1,727.2847483453806,None,729.7023674978409,None,729.7023674978409,None,729.7023674978409,None,729.7023674978409,None,729.7023674978409,None,729.7023674978409,None,729.7023674978409,None,733.6872591320425,None,733.6872591320425,None,733.6872591320425,None,733.6872591320425,None,733.6872591320425,None,733.6872591320425,None,733.6872591320425,None,734.6876472726581,None,2.384534404031001,,,,,,,,,,,,,,,,,,,,,,,,,,,,,,24281,2020_Feb_24_1510,Mmi_3levels,3.1.5,59.97689326161149,
,,,2,0,11.3,,,,,,,,,0,1,1,1,0,20,20,12,,,,,,,,,,,,,,,,,,,,,,,,,,,,,,,,,,,,,,,,,,,,,,,,,,,,,,,,,,,,False,True,True,0.58,0.58,12.359999999999998,-20.479999999999997,11.3,-9.179999999999996,1.0600000000000023,certain,certain,1.0600000000000023,123.20791666666673,736.7050550436834,None,736.7050550436834,None,736.7050550436834,None,736.7050550436834,None,736.7050550436834,None,736.7050550436834,None,736.7050550436834,None,3,736.7050550436834,None,739.2060495539918,None,739.2060495539918,None,739.2060495539918,None,739.2060495539918,None,739.2060495539918,None,739.2060495539918,None,739.2060495539918,None,743.2076017965446,None,743.2076017965446,None,743.2076017965446,None,743.2076017965446,None,743.2076017965446,None,743.2076017965446,None,743.2076017965446,None,752.6945250093122,None,2.468038715538569,744.1912992503494,None,745.1916365135112,None,0.59,7.502802740084007,748.1928095749463,None,None,748.1928095749463,None,,,,,,,,,,,,,,,,,,,24281,2020_Feb_24_1510,Mmi_3levels,3.1.5,59.97689326161149,
,,,2,0,10.1,,,,,,,,,0,1,1,1,0,21,21,8,,,,,,,,,,,,,,,,,,,,,,,,,,,,,,,,,,,,,,,,,,,,,,,,,,,,,,,,,,,,False,True,False,0.59,0.59,12.949999999999998,-21.209999999999997,10.1,-11.109999999999998,-0.504999999999999,gamble,lose,-11.109999999999998,112.09791666666673,754.7120092564728,None,754.7120092564728,None,754.7120092564728,None,754.7120092564728,None,754.7120092564728,None,754.7120092564728,None,754.7120092564728,None,1,754.7120092564728,None,757.5630842108512,None,757.5630842108512,None,757.5630842108512,None,757.5630842108512,None,757.5630842108512,None,757.5630842108512,None,757.5630842108512,None,761.5646470127976,None,761.5646470127976,None,761.5646470127976,None,761.5646470127976,None,761.5646470127976,None,761.5646470127976,None,761.5646470127976,None,762.5483175879926,None,2.8179434882476926,,,,,,,,,,,,,,,,,,,,,,,,,,,,,,24281,2020_Feb_24_1510,Mmi_3levels,3.1.5,59.97689326161149,
,,,2,0,8.9,,,,,,,,,0,1,1,1,0,22,22,0,,,,,,,,,,,,,,,,,,,,,,,,,,,,,,,,,,,,,,,,,,,,,,,,,,,,,,,,,,,,False,True,False,0.59,0.59,13.539999999999997,-21.799999999999997,8.9,-12.899999999999997,-1.9999999999999982,gamble,lose,-12.899999999999997,99.19791666666674,764.5657541575492,None,764.5657541575492,None,764.5657541575492,None,764.5657541575492,None,764.5657541575492,None,764.5657541575492,None,764.5657541575492,None,None,764.5657541575492,None,767.5669537776848,None,767.5669537776848,None,767.5669537776848,None,767.5669537776848,None,767.5669537776848,None,767.5669537776848,None,767.5669537776848,None,771.568498980545,None,771.568498980545,None,771.568498980545,None,771.568498980545,None,771.568498980545,None,771.568498980545,None,771.568498980545,None,781.055426353123,None,,772.5521503566415,None,773.5525986542925,None,0.57,7.502793780528009,776.5537301177974,None,None,776.5537301177974,None,,,,,,,,,,,,,,,,,,,24281,2020_Feb_24_1510,Mmi_3levels,3.1.5,59.97689326161149,
,,,2,0,-0.1,,,,,,,,,0,1,1,1,0,23,23,17,,,,,,,,,,,,,,,,,,,,,,,,,,,,,,,,,,,,,,,,,,,,,,,,,,,,,,,,,,,,False,False,True,0.57,0.57,14.109999999999998,3.170833333333333,-0.025,-3.195833333333333,-1.6104166666666664,gamble,win,-0.025,99.17291666666674,783.0728648426011,None,783.0728648426011,None,783.0728648426011,None,783.0728648426011,None,783.0728648426011,None,783.0728648426011,None,783.0728648426011,None,None,783.0728648426011,None,786.0740727822995,None,786.0740727822995,None,786.0740727822995,None,786.0740727822995,None,786.0740727822995,None,786.0740727822995,None,786.0740727822995,None,790.0756455037626,None,790.0756455037626,None,790.0756455037626,None,790.0756455037626,None,790.0756455037626,None,790.0756455037626,None,790.0756455037626,None,791.0593631165684,None,,,,,,,,,,,,,,,,,,,,,,,,,,,,,,,24281,2020_Feb_24_1510,Mmi_3levels,3.1.5,59.97689326161149,
,,,2,0,6.7,,,,,,,,,0,1,1,1,0,24,24,24,,,,,,,,,,,,,,,,,,,,,,,,,,,,,,,,,,,,,,,,,,,,,,,,,,,,,,,,,,,,False,True,True,0.57,0.57,14.679999999999998,-22.659999999999997,6.7,-15.959999999999997,-4.629999999999999,gamble,lose,-15.959999999999997,83.21291666666674,793.076798406255,None,793.076798406255,None,793.076798406255,None,793.076798406255,None,793.076798406255,None,793.076798406255,None,793.076798406255,None,1,793.076798406255,None,794.6440411294461,None,794.6440411294461,None,794.6440411294461,None,794.6440411294461,None,794.6440411294461,None,794.6440411294461,None,794.6440411294461,None,798.6455335349892,None,798.6455335349892,None,798.6455335349892,None,798.6455335349892,None,798.6455335349892,None,798.6455335349892,None,798.6455335349892,None,799.6292917857645,None,1.5341118971118703,,,,,,,,,,,,,,,,,,,,,,,,,,,,,,24281,2020_Feb_24_1510,Mmi_3levels,3.1.5,59.97689326161149,
,,,2,0,-1.5,,,,,,,,,0,1,1,1,0,25,25,10,,,,,,,,,,,,,,,,,,,,,,,,,,,,,,,,,,,,,,,,,,,,,,,,,,,,,,,,,,,,False,True,True,0.57,0.57,15.249999999999998,-23.229999999999997,-1.5,-24.729999999999997,-13.114999999999998,gamble,lose,-24.729999999999997,58.482916666666746,801.6467277153279,None,801.6467277153279,None,801.6467277153279,None,801.6467277153279,None,801.6467277153279,None,801.6467277153279,None,801.6467277153279,None,None,801.6467277153279,None,804.6478281404125,None,804.6478281404125,None,804.6478281404125,None,804.6478281404125,None,804.6478281404125,None,804.6478281404125,None,804.6478281404125,None,808.6493887025281,None,808.6493887025281,None,808.6493887025281,None,808.6493887025281,None,808.6493887025281,None,808.6493887025281,None,808.6493887025281,None,818.1363611928537,None,,809.6330855163978,None,810.6335258143954,None,0.47,7.502792180574033,813.634621759702,None,None,813.634621759702,None,,,,,,,,,,,,,,,,,,,24281,2020_Feb_24_1510,Mmi_3levels,3.1.5,59.97689326161149,
,,,2,0,1.7,,,,,,,,,0,1,1,1,0,26,26,3,,,,,,,,,,,,,,,,,,,,,,,,,,,,,,,,,,,,,,,,,,,,,,,,,,,,,,,,,,,,False,True,False,0.47,0.47,15.719999999999999,-22.299999999999997,1.7,-20.599999999999998,-9.45,certain,certain,-9.45,49.03291666666675,820.1537728036637,None,820.1537728036637,None,820.1537728036637,None,820.1537728036637,None,820.1537728036637,None,820.1537728036637,None,820.1537728036637,None,3,820.1537728036637,None,821.6710391417146,None,821.6710391417146,None,821.6710391417146,None,821.6710391417146,None,821.6710391417146,None,821.6710391417146,None,821.6710391417146,None,825.672610263282,None,825.672610263282,None,825.672610263282,None,825.672610263282,None,825.672610263282,None,825.672610263282,None,825.672610263282,None,826.6563025973737,None,1.4842235075775534,,,,,,,,,,,,,,,,,,,,,,,,,,,,,,24281,2020_Feb_24_1510,Mmi_3levels,3.1.5,59.97689326161149,
,,,3,1,4.3,,,,,,,,,0,2,2,2,0,0,0,9,,,,,,,,,,,,,,,,,,,,,,,,,,,,,,,,,,,,,,,,,,,,,,,,,831.3414872729336,None,0.54,7.501954142411705,834.3592431865982,None,None,834.3592431865982,None,838.8442944927956,None,True,True,False,0.54,-0.45999999999999996,-0.45999999999999996,6.8999999999999995,4.3,-2.5999999999999996,0.8500000000000001,certain,certain,0.8500000000000001,49.88291666666675,841.8788255690015,None,841.8788255690015,None,841.8788255690015,None,841.8788255690015,None,841.8788255690015,None,841.8788255690015,None,841.8788255690015,None,3,841.8788255690015,None,844.1630334613728,None,844.1630334613728,None,844.1630334613728,None,844.1630334613728,None,844.1630334613728,None,844.1630334613728,None,844.1630334613728,None,848.1479055765667,None,848.1479055765667,None,848.1479055765667,None,848.1479055765667,None,848.1479055765667,None,848.1479055765667,None,848.1479055765667,None,857.6515613940428,None,2.251242177968379,849.1483285954455,None,850.14871897595,None,0.53,7.502769141749013,853.1498082015896,None,None,853.1498082015896,None,828.6571137568681,None,4,2.667978814453818,828.6571137568681,None,,,,,,,,,,,,,24281,2020_Feb_24_1510,Mmi_3levels,3.1.5,59.97689326161149,
,,,3,1,12.9,,,,,,,,,0,2,2,2,0,1,1,5,,,,,,,,,,,,,,,,,,,,,,,,,,,,,,,,,,,,,,,,,,,,,,,,,,,,,,,,,,,,True,True,False,0.53,-0.47,-0.9299999999999999,7.51,12.9,5.390000000000001,2.6950000000000003,gamble,win,12.9,62.78291666666675,859.6690034033381,None,859.6690034033381,None,859.6690034033381,None,859.6690034033381,None,859.6690034033381,None,859.6690034033381,None,859.6690034033381,None,1,859.6690034033381,None,861.2195915979682,None,861.2195915979682,None,861.2195915979682,None,861.2195915979682,None,861.2195915979682,None,861.2195915979682,None,861.2195915979682,None,865.2044521937496,None,865.2044521937496,None,865.2044521937496,None,865.2044521937496,None,865.2044521937496,None,865.2044521937496,None,865.2044521937496,None,866.2048473739997,None,1.517541524313856,,,,,,,,,,,,,,,,,,,,,,,,,,,,,,24281,2020_Feb_24_1510,Mmi_3levels,3.1.5,59.97689326161149,
,,,3,1,6.7,,,,,,,,,0,2,2,2,0,2,2,8,,,,,,,,,,,,,,,,,,,,,,,,,,,,,,,,,,,,,,,,,,,,,,,,,,,,,,,,,,,,True,False,False,0.53,-0.47,-1.4,-1.7616666666666667,6.7,4.9383333333333335,2.4691666666666667,gamble,lose,4.9383333333333335,67.72125000000008,868.2222778638825,None,868.2222778638825,None,868.2222778638825,None,868.2222778638825,None,868.2222778638825,None,868.2222778638825,None,868.2222778638825,None,1,868.2222778638825,None,869.8396851229481,None,869.8396851229481,None,869.8396851229481,None,869.8396851229481,None,869.8396851229481,None,869.8396851229481,None,869.8396851229481,None,873.824443003803,None,873.824443003803,None,873.824443003803,None,873.824443003803,None,873.824443003803,None,873.824443003803,None,873.824443003803,None,874.8248215449275,None,1.584251154155936,,,,,,,,,,,,,,,,,,,,,,,,,,,,,,24281,2020_Feb_24_1510,Mmi_3levels,3.1.5,59.97689326161149,
,,,3,1,10.9,,,,,,,,,0,2,2,2,0,3,3,19,,,,,,,,,,,,,,,,,,,,,,,,,,,,,,,,,,,,,,,,,,,,,,,,,,,,,,,,,,,,True,False,True,0.53,-0.47,-1.8699999999999999,-1.8008333333333333,10.9,9.099166666666667,4.5495833333333335,gamble,lose,9.099166666666667,76.82041666666674,876.8423201913829,None,876.8423201913829,None,876.8423201913829,None,876.8423201913829,None,876.8423201913829,None,876.8423201913829,None,876.8423201913829,None,1,876.8423201913829,None,878.3428366456064,None,878.3428366456064,None,878.3428366456064,None,878.3428366456064,None,878.3428366456064,None,878.3428366456064,None,878.3428366456064,None,882.3277049209573,None,882.3277049209573,None,882.3277049209573,None,882.3277049209573,None,882.3277049209573,None,882.3277049209573,None,882.3277049209573,None,891.8313722579041,None,1.4674422652460635,883.3281065009069,None,884.3284824821749,None,0.57,7.502767221827526,887.3296347446158,None,None,887.3296347446158,None,,,,,,,,,,,,,,,,,,,24281,2020_Feb_24_1510,Mmi_3levels,3.1.5,59.97689326161149,
,,,3,1,-0.5,,,,,,,,,0,2,2,2,0,4,4,24,,,,,,,,,,,,,,,,,,,,,,,,,,,,,,,,,,,,,,,,,,,,,,,,,,,,,,,,,,,,True,True,False,0.57,-0.43000000000000005,-2.3,8.32,-0.5,-8.82,-4.66,certain,certain,-4.66,72.16041666666675,893.848861624836,None,893.848861624836,None,893.848861624836,None,893.848861624836,None,893.848861624836,None,893.848861624836,None,893.848861624836,None,3,893.848861624836,None,896.6999324194039,None,896.6999324194039,None,896.6999324194039,None,896.6999324194039,None,896.6999324194039,None,896.6999324194039,None,896.6999324194039,None,900.7014776222641,None,900.7014776222641,None,900.7014776222641,None,900.7014776222641,None,900.7014776222641,None,900.7014776222641,None,900.7014776222641,None,901.6851981148939,None,2.817970046948176,,,,,,,,,,,,,,,,,,,,,,,,,,,,,,24281,2020_Feb_24_1510,Mmi_3levels,3.1.5,59.97689326161149,
,,,3,1,11.3,,,,,,,,,0,2,2,2,0,5,5,13,,,,,,,,,,,,,,,,,,,,,,,,,,,,,,,,,,,,,,,,,,,,,,,,,,,,,,,,,,,,True,True,False,0.57,-0.43000000000000005,-2.73,8.75,11.3,2.5500000000000007,1.2750000000000004,gamble,win,11.3,83.46041666666675,903.702616445371,None,903.702616445371,None,903.702616445371,None,903.702616445371,None,903.702616445371,None,903.702616445371,None,903.702616445371,None,1,903.702616445371,None,905.0197775727138,None,905.0197775727138,None,905.0197775727138,None,905.0197775727138,None,905.0197775727138,None,905.0197775727138,None,905.0197775727138,None,909.021334614954,None,909.021334614954,None,909.021334614954,None,909.021334614954,None,909.021334614954,None,909.021334614954,None,909.021334614954,None,918.508292706043,None,1.2841477353358641,910.0050167095615,None,911.0054285289953,None,0.55,7.5027899407432415,914.0065455932636,None,None,914.0065455932636,None,,,,,,,,,,,,,,,,,,,24281,2020_Feb_24_1510,Mmi_3levels,3.1.5,59.97689326161149,
,,,3,1,3.3,,,,,,,,,0,2,2,2,0,6,6,22,,,,,,,,,,,,,,,,,,,,,,,,,,,,,,,,,,,,,,,,,,,,,,,,,,,,,,,,,,,,True,True,False,0.55,-0.44999999999999996,-3.1799999999999997,9.479999999999999,3.3,-6.179999999999999,-1.4399999999999995,gamble,win,3.3,86.76041666666674,920.5257817529491,None,920.5257817529491,None,920.5257817529491,None,920.5257817529491,None,920.5257817529491,None,920.5257817529491,None,920.5257817529491,None,None,920.5257817529491,None,923.5268860178767,None,923.5268860178767,None,923.5268860178767,None,923.5268860178767,None,923.5268860178767,None,923.5268860178767,None,923.5268860178767,None,927.5118042107206,None,927.5118042107206,None,927.5118042107206,None,927.5118042107206,None,927.5118042107206,None,927.5118042107206,None,927.5118042107206,None,928.5121350742411,None,,,,,,,,,,,,,,,,,,,,,,,,,,,,,,,24281,2020_Feb_24_1510,Mmi_3levels,3.1.5,59.97689326161149,
,,,3,1,13.3,,,,,,,,,0,2,2,2,0,7,7,21,,,,,,,,,,,,,,,,,,,,,,,,,,,,,,,,,,,,,,,,,,,,,,,,,,,,,,,,,,,,True,True,True,0.55,-0.44999999999999996,-3.63,9.93,13.3,3.370000000000001,1.6850000000000005,gamble,win,13.3,100.06041666666674,930.5295866830274,None,930.5295866830274,None,930.5295866830274,None,930.5295866830274,None,930.5295866830274,None,930.5295866830274,None,930.5295866830274,None,1,930.5295866830274,None,931.8801816613413,None,931.8801816613413,None,931.8801816613413,None,931.8801816613413,None,931.8801816613413,None,931.8801816613413,None,931.8801816613413,None,935.8650169783505,None,935.8650169783505,None,935.8650169783505,None,935.8650169783505,None,935.8650169783505,None,935.8650169783505,None,935.8650169783505,None,945.3686734358198,None,1.3175207893946208,936.8653987193247,None,937.8657993393135,None,0.58,7.502689785731491,940.8668840851751,None,None,940.8668840851751,None,,,,,,,,,,,,,,,,,,,24281,2020_Feb_24_1510,Mmi_3levels,3.1.5,59.97689326161149,
,,,3,1,3.5,,,,,,,,,0,2,2,2,0,8,8,12,,,,,,,,,,,,,,,,,,,,,,,,,,,,,,,,,,,,,,,,,,,,,,,,,,,,,,,,,,,,True,False,True,0.58,-0.42000000000000004,-4.05,-1.8075,3.5,1.6925,0.84625,gamble,lose,1.6925,101.75291666666674,947.3860588079551,None,947.3860588079551,None,947.3860588079551,None,947.3860588079551,None,947.3860588079551,None,947.3860588079551,None,947.3860588079551,None,1,947.3860588079551,None,948.8366475145449,None,948.8366475145449,None,948.8366475145449,None,948.8366475145449,None,948.8366475145449,None,948.8366475145449,None,948.8366475145449,None,952.8215084302938,None,952.8215084302938,None,952.8215084302938,None,952.8215084302938,None,952.8215084302938,None,952.8215084302938,None,952.8215084302938,None,953.821863932535,None,1.4174630002235062,,,,,,,,,,,,,,,,,,,,,,,,,,,,,,24281,2020_Feb_24_1510,Mmi_3levels,3.1.5,59.97689326161149,
,,,3,1,12.7,,,,,,,,,0,2,2,2,0,9,9,14,,,,,,,,,,,,,,,,,,,,,,,,,,,,,,,,,,,,,,,,,,,,,,,,,,,,,,,,,,,,True,True,False,0.58,-0.42000000000000004,-4.47,10.350000000000001,12.7,2.349999999999998,1.174999999999999,gamble,win,12.7,114.45291666666674,955.8393113815691,None,955.8393113815691,None,955.8393113815691,None,955.8393113815691,None,955.8393113815691,None,955.8393113815691,None,955.8393113815691,None,1,955.8393113815691,None,957.0065228744061,None,957.0065228744061,None,957.0065228744061,None,957.0065228744061,None,957.0065228744061,None,957.0065228744061,None,957.0065228744061,None,961.0080223195255,None,961.0080223195255,None,961.0080223195255,None,961.0080223195255,None,961.0080223195255,None,961.0080223195255,None,961.0080223195255,None,961.9916852150927,None,1.1340646674507298,,,,,,,,,,,,,,,,,,,,,,,,,,,,,,24281,2020_Feb_24_1510,Mmi_3levels,3.1.5,59.97689326161149,
,,,3,1,12.1,,,,,,,,,0,2,2,2,0,10,10,4,,,,,,,,,,,,,,,,,,,,,,,,,,,,,,,,,,,,,,,,,,,,,,,,,,,,,,,,,,,,True,True,True,0.58,-0.42000000000000004,-4.89,10.77,12.1,1.33,0.665,gamble,win,12.1,126.55291666666673,964.0091614626581,None,964.0091614626581,None,964.0091614626581,None,964.0091614626581,None,964.0091614626581,None,964.0091614626581,None,964.0091614626581,None,1,964.0091614626581,None,965.2095840975526,None,965.2095840975526,None,965.2095840975526,None,965.2095840975526,None,965.2095840975526,None,965.2095840975526,None,965.2095840975526,None,969.1944792515715,None,969.1944792515715,None,969.1944792515715,None,969.1944792515715,None,969.1944792515715,None,969.1944792515715,None,969.1944792515715,None,978.6981321892235,None,1.1673161275684834,970.1948520329897,None,971.1952728119795,None,0.59,7.5027611421537586,974.1964071553666,None,None,974.1964071553666,None,,,,,,,,,,,,,,,,,,,24281,2020_Feb_24_1510,Mmi_3levels,3.1.5,59.97689326161149,
,,,3,1,2.1,,,,,,,,,0,2,2,2,0,11,11,26,,,,,,,,,,,,,,,,,,,,,,,,,,,,,,,,,,,,,,,,,,,,,,,,,,,,,,,,,,,,True,True,False,0.59,-0.41000000000000003,-5.3,11.04,2.1,-8.94,-3.42,certain,certain,-3.42,123.13291666666673,980.7155857179896,None,980.7155857179896,None,980.7155857179896,None,980.7155857179896,None,980.7155857179896,None,980.7155857179896,None,980.7155857179896,None,3,980.7155857179896,None,983.1331968707964,None,983.1331968707964,None,983.1331968707964,None,983.1331968707964,None,983.1331968707964,None,983.1331968707964,None,983.1331968707964,None,987.1346793568227,None,987.1346793568227,None,987.1346793568227,None,987.1346793568227,None,987.1346793568227,None,987.1346793568227,None,987.1346793568227,None,988.1184072091128,None,2.384552323142998,,,,,,,,,,,,,,,,,,,,,,,,,,,,,,24281,2020_Feb_24_1510,Mmi_3levels,3.1.5,59.97689326161149,
,,,3,1,1.1,,,,,,,,,0,2,2,2,0,12,12,2,,,,,,,,,,,,,,,,,,,,,,,,,,,,,,,,,,,,,,,,,,,,,,,,,,,,,,,,,,,,True,True,True,0.59,-0.41000000000000003,-5.71,11.45,1.1,-10.35,-4.625,certain,certain,-4.625,118.50791666666673,990.1358629777096,None,990.1358629777096,None,990.1358629777096,None,990.1358629777096,None,990.1358629777096,None,990.1358629777096,None,990.1358629777096,None,3,990.1358629777096,None,993.1203191136592,None,993.1203191136592,None,993.1203191136592,None,993.1203191136592,None,993.1203191136592,None,993.1203191136592,None,993.1203191136592,None,997.1219107141951,None,997.1219107141951,None,997.1219107141951,None,997.1219107141951,None,997.1219107141951,None,997.1219107141951,None,997.1219107141951,None,1006.6088377668057,None,2.951368187670596,998.1055732897948,None,999.1060052682296,None,0.56,7.502781621180475,1002.1070909739938,None,None,1002.1070909739938,None,,,,,,,,,,,,,,,,,,,24281,2020_Feb_24_1510,Mmi_3levels,3.1.5,59.97689326161149,
,,,3,1,-0.9,,,,,,,,,0,2,2,2,0,13,13,16,,,,,,,,,,,,,,,,,,,,,,,,,,,,,,,,,,,,,,,,,,,,,,,,,,,,,,,,,,,,True,True,False,0.56,-0.43999999999999995,-6.15,12.309999999999999,-0.9,-13.209999999999999,-7.055,gamble,win,-0.9,117.60791666666672,1008.6262800961267,None,1008.6262800961267,None,1008.6262800961267,None,1008.6262800961267,None,1008.6262800961267,None,1008.6262800961267,None,1008.6262800961267,None,1,1008.6262800961267,None,1010.9272186732269,None,1010.9272186732269,None,1010.9272186732269,None,1010.9272186732269,None,1010.9272186732269,None,1010.9272186732269,None,1010.9272186732269,None,1014.9287536366028,None,1014.9287536366028,None,1014.9287536366028,None,1014.9287536366028,None,1014.9287536366028,None,1014.9287536366028,None,1014.9287536366028,None,1015.9124184520915,None,2.2679699829313904,,,,,,,,,,,,,,,,,,,,,,,,,,,,,,24281,2020_Feb_24_1510,Mmi_3levels,3.1.5,59.97689326161149,
,,,3,1,0.1,,,,,,,,,0,2,2,2,0,14,14,6,,,,,,,,,,,,,,,,,,,,,,,,,,,,,,,,,,,,,,,,,,,,,,,,,,,,,,,,,,,,True,True,True,0.56,-0.43999999999999995,-6.59,12.75,0.1,-12.65,-6.275,gamble,win,0.1,117.70791666666672,1017.9298851001658,None,1017.9298851001658,None,1017.9298851001658,None,1017.9298851001658,None,1017.9298851001658,None,1017.9298851001658,None,1017.9298851001658,None,1,1017.9298851001658,None,1020.3974710382754,None,1020.3974710382754,None,1020.3974710382754,None,1020.3974710382754,None,1020.3974710382754,None,1020.3974710382754,None,1020.3974710382754,None,1024.3990354401758,None,1024.3990354401758,None,1024.3990354401758,None,1024.3990354401758,None,1024.3990354401758,None,1024.3990354401758,None,1024.3990354401758,None,1025.3827290541958,None,2.4345872653648257,,,,,,,,,,,,,,,,,,,,,,,,,,,,,,24281,2020_Feb_24_1510,Mmi_3levels,3.1.5,59.97689326161149,
,,,3,1,11.1,,,,,,,,,0,2,2,2,0,15,15,25,,,,,,,,,,,,,,,,,,,,,,,,,,,,,,,,,,,,,,,,,,,,,,,,,,,,,,,,,,,,True,False,False,0.56,-0.43999999999999995,-7.029999999999999,-2.125833333333333,11.1,8.974166666666667,4.4870833333333335,gamble,lose,8.974166666666667,126.68208333333338,1027.400215861213,None,1027.400215861213,None,1027.400215861213,None,1027.400215861213,None,1027.400215861213,None,1027.400215861213,None,1027.400215861213,None,1,1027.400215861213,None,1028.7007186201517,None,1028.7007186201517,None,1028.7007186201517,None,1028.7007186201517,None,1028.7007186201517,None,1028.7007186201517,None,1028.7007186201517,None,1032.6855324982316,None,1032.6855324982316,None,1032.6855324982316,None,1032.6855324982316,None,1032.6855324982316,None,1032.6855324982316,None,1032.6855324982316,None,1042.1892148744082,None,1.2673991314368322,1033.685924478632,None,1034.6863081395277,None,0.59,7.5027902607107535,1037.6874415228958,None,None,1037.6874415228958,None,,,,,,,,,,,,,,,,,,,24281,2020_Feb_24_1510,Mmi_3levels,3.1.5,59.97689326161149,
,,,3,1,8.1,,,,,,,,,0,2,2,2,0,16,16,23,,,,,,,,,,,,,,,,,,,,,,,,,,,,,,,,,,,,,,,,,,,,,,,,,,,,,,,,,,,,True,True,True,0.59,-0.41000000000000003,-7.4399999999999995,13.18,8.1,-5.08,1.5099999999999998,certain,certain,1.5099999999999998,128.1920833333334,1044.2066812024568,None,1044.2066812024568,None,1044.2066812024568,None,1044.2066812024568,None,1044.2066812024568,None,1044.2066812024568,None,1044.2066812024568,None,3,1044.2066812024568,None,1046.124088525481,None,1046.124088525481,None,1046.124088525481,None,1046.124088525481,None,1046.124088525481,None,1046.124088525481,None,1046.124088525481,None,1050.1089468813734,None,1050.1089468813734,None,1050.1089468813734,None,1050.1089468813734,None,1050.1089468813734,None,1050.1089468813734,None,1050.1089468813734,None,1051.1092934240587,None,1.8842857764684595,,,,,,,,,,,,,,,,,,,,,,,,,,,,,,24281,2020_Feb_24_1510,Mmi_3levels,3.1.5,59.97689326161149,
,,,3,1,2.5,,,,,,,,,0,2,2,2,0,17,17,0,,,,,,,,,,,,,,,,,,,,,,,,,,,,,,,,,,,,,,,,,,,,,,,,,,,,,,,,,,,,True,True,False,0.59,-0.41000000000000003,-7.85,13.59,2.5,-11.09,-4.295,gamble,win,2.5,130.6920833333334,1053.126773511467,None,1053.126773511467,None,1053.126773511467,None,1053.126773511467,None,1053.126773511467,None,1053.126773511467,None,1053.126773511467,None,1,1053.126773511467,None,1055.8110871905228,None,1055.8110871905228,None,1055.8110871905228,None,1055.8110871905228,None,1055.8110871905228,None,1055.8110871905228,None,1055.8110871905228,None,1059.8126432728604,None,1059.8126432728604,None,1059.8126432728604,None,1059.8126432728604,None,1059.8126432728604,None,1059.8126432728604,None,1059.8126432728604,None,1069.2996215228923,None,2.6512609290657565,1060.7963189677685,None,1061.796788384323,None,0.58,7.502923374064267,1064.7978692903416,None,None,1064.7978692903416,None,,,,,,,,,,,,,,,,,,,24281,2020_Feb_24_1510,Mmi_3levels,3.1.5,59.97689326161149,
,,,3,1,-1.3,,,,,,,,,0,2,2,2,0,18,18,15,,,,,,,,,,,,,,,,,,,,,,,,,,,,,,,,,,,,,,,,,,,,,,,,,,,,,,,,,,,,True,False,False,0.58,-0.42000000000000004,-8.27,-2.1591666666666667,-1.3,-3.4591666666666665,-2.379583333333333,gamble,lose,-3.4591666666666665,127.23291666666672,1071.3170696118614,None,1071.3170696118614,None,1071.3170696118614,None,1071.3170696118614,None,1071.3170696118614,None,1071.3170696118614,None,1071.3170696118614,None,None,1071.3170696118614,None,1074.318215474661,None,1074.318215474661,None,1074.318215474661,None,1074.318215474661,None,1074.318215474661,None,1074.318215474661,None,1074.318215474661,None,1078.3030805502203,None,1078.3030805502203,None,1078.3030805502203,None,1078.3030805502203,None,1078.3030805502203,None,1078.3030805502203,None,1078.3030805502203,None,1079.3034651710186,None,,,,,,,,,,,,,,,,,,,,,,,,,,,,,,,24281,2020_Feb_24_1510,Mmi_3levels,3.1.5,59.97689326161149,
,,,3,1,0.9,,,,,,,,,0,2,2,2,0,19,19,17,,,,,,,,,,,,,,,,,,,,,,,,,,,,,,,,,,,,,,,,,,,,,,,,,,,,,,,,,,,,True,False,False,0.58,-0.42000000000000004,-8.69,-2.194166666666667,0.9,-1.294166666666667,-0.19708333333333344,gamble,lose,-1.294166666666667,125.93875000000006,1081.3209292592364,None,1081.3209292592364,None,1081.3209292592364,None,1081.3209292592364,None,1081.3209292592364,None,1081.3209292592364,None,1081.3209292592364,None,1,1081.3209292592364,None,1083.004881356319,None,1083.004881356319,None,1083.004881356319,None,1083.004881356319,None,1083.004881356319,None,1083.004881356319,None,1083.004881356319,None,1086.9897512316238,None,1086.9897512316238,None,1086.9897512316238,None,1086.9897512316238,None,1086.9897512316238,None,1086.9897512316238,None,1086.9897512316238,None,1096.4934371276177,None,1.650890707562212,1087.9901348924614,None,1088.9905412721564,None,0.46,7.502803060109727,1091.9916967345052,None,None,1091.9916967345052,None,,,,,,,,,,,,,,,,,,,24281,2020_Feb_24_1510,Mmi_3levels,3.1.5,59.97689326161149,
,,,3,1,9.7,,,,,,,,,0,2,2,2,0,20,20,20,,,,,,,,,,,,,,,,,,,,,,,,,,,,,,,,,,,,,,,,,,,,,,,,,,,,,,,,,,,,True,True,True,0.46,-0.54,-9.23,16.79,9.7,-7.09,1.3049999999999997,gamble,win,9.7,135.63875000000004,1098.510854498134,None,1098.510854498134,None,1098.510854498134,None,1098.510854498134,None,1098.510854498134,None,1098.510854498134,None,1098.510854498134,None,1,1098.510854498134,None,1101.011812850309,None,1101.011812850309,None,1101.011812850309,None,1101.011812850309,None,1101.011812850309,None,1101.011812850309,None,1101.011812850309,None,1104.9966801657574,None,1104.9966801657574,None,1104.9966801657574,None,1104.9966801657574,None,1104.9966801657574,None,1104.9966801657574,None,1104.9966801657574,None,1105.997057746863,None,2.467986238130834,,,,,,,,,,,,,,,,,,,,,,,,,,,,,,24281,2020_Feb_24_1510,Mmi_3levels,3.1.5,59.97689326161149,
,,,3,1,1.3,,,,,,,,,0,2,2,2,0,21,21,7,,,,,,,,,,,,,,,,,,,,,,,,,,,,,,,,,,,,,,,,,,,,,,,,,,,,,,,,,,,,True,False,True,0.46,-0.54,-9.77,-2.7041666666666666,1.3,-1.4041666666666666,-0.05208333333333326,certain,certain,-0.05208333333333326,135.5866666666667,1108.0145576733048,None,1108.0145576733048,None,1108.0145576733048,None,1108.0145576733048,None,1108.0145576733048,None,1108.0145576733048,None,1108.0145576733048,None,3,1108.0145576733048,None,1110.2320226574084,None,1110.2320226574084,None,1110.2320226574084,None,1110.2320226574084,None,1110.2320226574084,None,1110.2320226574084,None,1110.2320226574084,None,1114.2168909328175,None,1114.2168909328175,None,1114.2168909328175,None,1114.2168909328175,None,1114.2168909328175,None,1114.2168909328175,None,1114.2168909328175,None,1115.2173341106973,None,2.184380235732533,,,,,,,,,,,,,,,,,,,,,,,,,,,,,,24281,2020_Feb_24_1510,Mmi_3levels,3.1.5,59.97689326161149,
,,,3,1,13.5,,,,,,,,,0,2,2,2,0,22,22,3,,,,,,,,,,,,,,,,,,,,,,,,,,,,,,,,,,,,,,,,,,,,,,,,,,,,,,,,,,,,True,True,False,0.46,-0.54,-10.309999999999999,17.869999999999997,13.5,-4.369999999999997,-2.1849999999999987,gamble,win,13.5,149.0866666666667,1117.2347370819189,None,1117.2347370819189,None,1117.2347370819189,None,1117.2347370819189,None,1117.2347370819189,None,1117.2347370819189,None,1117.2347370819189,None,1,1117.2347370819189,None,1119.618992459902,None,1119.618992459902,None,1119.618992459902,None,1119.618992459902,None,1119.618992459902,None,1119.618992459902,None,1119.618992459902,None,1123.6205082242377,None,1123.6205082242377,None,1123.6205082242377,None,1123.6205082242377,None,1123.6205082242377,None,1123.6205082242377,None,1123.6205082242377,None,1133.1075207125978,None,2.3511879087309353,1124.6042181574157,None,1125.6045986184618,None,0.6,7.502863857022021,1128.6057473610854,None,None,1128.6057473610854,None,,,,,,,,,,,,,,,,,,,24281,2020_Feb_24_1510,Mmi_3levels,3.1.5,59.97689326161149,
,,,3,1,-1.5,,,,,,,,,0,2,2,2,0,23,23,11,,,,,,,,,,,,,,,,,,,,,,,,,,,,,,,,,,,,,,,,,,,,,,,,,,,,,,,,,,,,True,True,False,0.6,-0.4,-10.709999999999999,16.31,-1.5,-17.81,-9.655,gamble,win,-1.5,147.5866666666667,1135.1249326433754,None,1135.1249326433754,None,1135.1249326433754,None,1135.1249326433754,None,1135.1249326433754,None,1135.1249326433754,None,1135.1249326433754,None,1,1135.1249326433754,None,1137.6759051388362,None,1137.6759051388362,None,1137.6759051388362,None,1137.6759051388362,None,1137.6759051388362,None,1137.6759051388362,None,1137.6759051388362,None,1141.6775488967542,None,1141.6775488967542,None,1141.6775488967542,None,1141.6775488967542,None,1141.6775488967542,None,1141.6775488967542,None,1141.6775488967542,None,1142.6611794739147,None,2.5178922268096358,,,,,,,,,,,,,,,,,,,,,,,,,,,,,,24281,2020_Feb_24_1510,Mmi_3levels,3.1.5,59.97689326161149,
,,,3,1,8.9,,,,,,,,,0,2,2,2,0,24,24,18,,,,,,,,,,,,,,,,,,,,,,,,,,,,,,,,,,,,,,,,,,,,,,,,,,,,,,,,,,,,True,False,True,0.6,-0.4,-11.11,-2.3258333333333336,8.9,6.574166666666667,3.2870833333333334,gamble,lose,6.574166666666667,154.16083333333336,1144.6786026041373,None,1144.6786026041373,None,1144.6786026041373,None,1144.6786026041373,None,1144.6786026041373,None,1144.6786026041373,None,1144.6786026041373,None,1,1144.6786026041373,None,1146.09581569687,None,1146.09581569687,None,1146.09581569687,None,1146.09581569687,None,1146.09581569687,None,1146.09581569687,None,1146.09581569687,None,1150.0807162906276,None,1150.0807162906276,None,1150.0807162906276,None,1150.0807162906276,None,1150.0807162906276,None,1150.0807162906276,None,1150.0807162906276,None,1159.5843401097227,None,1.3841408236767165,1151.0810689130449,None,1152.0814944917802,None,0.6,7.502768821781501,1155.0826070762705,None,None,1155.0826070762705,None,,,,,,,,,,,,,,,,,,,24281,2020_Feb_24_1510,Mmi_3levels,3.1.5,59.97689326161149,
,,,3,1,12.5,,,,,,,,,0,2,2,2,0,25,25,1,,,,,,,,,,,,,,,,,,,,,,,,,,,,,,,,,,,,,,,,,,,,,,,,,,,,,,,,,,,,True,False,False,0.6,-0.4,-11.51,-2.359166666666667,12.5,10.140833333333333,5.070416666666667,gamble,lose,10.140833333333333,164.30166666666668,1161.6018841939513,None,1161.6018841939513,None,1161.6018841939513,None,1161.6018841939513,None,1161.6018841939513,None,1161.6018841939513,None,1161.6018841939513,None,1,1161.6018841939513,None,1162.8189117599395,None,1162.8189117599395,None,1162.8189117599395,None,1162.8189117599395,None,1162.8189117599395,None,1162.8189117599395,None,1162.8189117599395,None,1166.8204502431327,None,1166.8204502431327,None,1166.8204502431327,None,1166.8204502431327,None,1166.8204502431327,None,1166.8204502431327,None,1166.8204502431327,None,1167.8041640161537,None,1.183930978178978,,,,,,,,,,,,,,,,,,,,,,,,,,,,,,24281,2020_Feb_24_1510,Mmi_3levels,3.1.5,59.97689326161149,
,,,3,1,11.7,,,,,,,,,0,2,2,2,0,26,26,10,,,,,,,,,,,,,,,,,,,,,,,,,,,,,,,,,,,,,,,,,,,,,,,,,,,,,,,,,,,,True,False,True,0.6,-0.4,-11.91,-2.3925,11.7,9.3075,4.65375,gamble,lose,9.3075,173.60916666666668,1169.8216073053773,None,1169.8216073053773,None,1169.8216073053773,None,1169.8216073053773,None,1169.8216073053773,None,1169.8216073053773,None,1169.8216073053773,None,1,1169.8216073053773,None,1171.7390101486235,None,1171.7390101486235,None,1171.7390101486235,None,1171.7390101486235,None,1171.7390101486235,None,1171.7390101486235,None,1171.7390101486235,None,1175.7239161821199,None,1175.7239161821199,None,1175.7239161821199,None,1175.7239161821199,None,1175.7239161821199,None,1175.7239161821199,None,1175.7239161821199,None,1185.2276103976765,None,1.8842844965402037,1176.7242572850664,None,1177.724647025636,None,0.58,7.502753142558504,1180.7258175272145,None,None,1180.7258175272145,None,,,,,,,,,,,,,,,,,,,24281,2020_Feb_24_1510,Mmi_3levels,3.1.5,59.97689326161149,
,,,,,,,,,,,,,,,,,,,,,,,,,,,,,,0,0,0,0,,,,,,,,,,,,,,,,,,,,,,,,,,,,,,,,,,,,,,,,,,,,,,,,,,,,,,,,,,,,,,,,,,,,,,,,,,,,,,,,,,,,,,,,,,,,,,,,,,,,,,,,,,,,,,,,,,,,,,,,,1187.2282817241503,None,4,3.351576369255781,1187.2282817241503,None,173.60916666666668,4,1190.6130202780478,None,1190.6130202780478,None,1190.6130202780478,None,4,5.3355141311185434,1190.6130202780478,None,24281,2020_Feb_24_1510,Mmi_3levels,3.1.5,59.97689326161149,
