currSlide,currImage,currText,blockNum,targetHappiness,highAmount,instructionLoop1.thisRepN,instructionLoop1.thisTrialN,instructionLoop1.thisN,instructionLoop1.thisIndex,instructionLoop2.thisRepN,instructionLoop2.thisTrialN,instructionLoop2.thisN,instructionLoop2.thisIndex,blockLoop.thisRepN,blockLoop.thisTrialN,blockLoop.thisN,blockLoop.thisIndex,trialLoop.thisRepN,trialLoop.thisTrialN,trialLoop.thisN,trialLoop.thisIndex,doRatingLoop.thisRepN,doRatingLoop.thisTrialN,doRatingLoop.thisN,doRatingLoop.thisIndex,trialHappyLoop.thisRepN,trialHappyLoop.thisTrialN,trialHappyLoop.thisN,trialHappyLoop.thisIndex,logWinningsLoop.thisRepN,logWinningsLoop.thisTrialN,logWinningsLoop.thisN,logWinningsLoop.thisIndex,instrImage.started,instrImage.stopped,instrText.started,instrText.stopped,instrContinueText.started,instrContinueText.stopped,instrKeyResp.keys,instrKeyResp.rt,instrKeyResp.started,instrKeyResp.stopped,lifeHappyText.started,lifeHappyText.stopped,lifeHappySlider.response,lifeHappySlider.rt,lifeHappySlider.started,lifeHappySlider.stopped,lifeHappyResp.keys,lifeHappyResp.started,lifeHappyResp.stopped,instrImage_2.started,instrImage_2.stopped,instrText_2.started,instrText_2.stopped,instrContinueText_2.started,instrContinueText_2.stopped,instrKeyResp_2.keys,instrKeyResp_2.rt,instrKeyResp_2.started,instrKeyResp_2.stopped,localizing.started,localizing.stopped,start_exp.keys,start_exp.rt,start_exp.started,start_exp.stopped,blockHappyText.started,blockHappyText.stopped,blockHappySlider.response,blockHappySlider.rt,blockHappySlider.started,blockHappySlider.stopped,blockHappyResp.keys,blockHappyResp.started,blockHappyResp.stopped,blankText.started,blankText.stopped,isHappyBlock,isCongruent,isWinOnTop,lastHappyRating,diff,sumDiff,RPE,winAmount,loseAmount,certainAmount,choice,outcome,outcomeAmount,currentWinnings,fixCross.started,fixCross.stopped,certainBox.started,certainBox.stopped,outcome1Box.started,outcome1Box.stopped,outcome2Box.started,outcome2Box.stopped,certainText.started,certainText.stopped,outcome1Text.started,outcome1Text.stopped,outcome2Text.started,outcome2Text.stopped,choiceKey.keys,choiceKey.rt,choiceKey.started,choiceKey.stopped,fixCross_2.started,fixCross_2.stopped,certainBox_2.started,certainBox_2.stopped,outcome1Box_2.started,outcome1Box_2.stopped,outcome2Box_2.started,outcome2Box_2.stopped,certainText_2.started,certainText_2.stopped,outcome1Text_2.started,outcome1Text_2.stopped,outcome2Text_2.started,outcome2Text_2.stopped,fixCross_3.started,fixCross_3.stopped,certainBox_3.started,certainBox_3.stopped,outcome1Box_3.started,outcome1Box_3.stopped,outcome2Box_3.started,outcome2Box_3.stopped,certainText_3.started,certainText_3.stopped,outcome1Text_3.started,outcome1Text_3.stopped,outcome2Text_3.started,outcome2Text_3.stopped,fixCross_ITI.started,fixCross_ITI.stopped,fixCross_ISI.started,fixCross_ISI.stopped,happyText.started,happyText.stopped,happySlider.response,happySlider.rt,happySlider.started,happySlider.stopped,happyResp.keys,happyResp.started,happyResp.stopped,endOfBlockText.started,endOfBlockText.stopped,restKeyResp.keys,restKeyResp.rt,restKeyResp.started,restKeyResp.stopped,blockHappyResp.rt,finalWinnings,cashBonus,goodbyeText.started,goodbyeText.stopped,finalWinningsText.started,finalWinningsText.stopped,spaceToContinue.started,spaceToContinue.stopped,goodbyeKeyResp_2.keys,goodbyeKeyResp_2.rt,goodbyeKeyResp_2.started,goodbyeKeyResp_2.stopped,participant,date,expName,psychopyVersion,frameRate,
1,black.png,"Welcome! You are about to play our gambling task.
This task has 3 blocks and takes about 15 minutes.",,,,0,0,0,0,,,,,,,,,,,,,,,,,,,,,,,,,14.198327054211404,None,14.198327054211404,None,14.198327054211404,None,4,5.403510108008049,14.198327054211404,None,,,,,,,,,,,,,,,,,,,,,,,,,,,,,,,,,,,,,,,,,,,,,,,,,,,,,,,,,,,,,,,,,,,,,,,,,,,,,,,,,,,,,,,,,,,,,,,,,,,,,,,,,,,,,,,,,,,,,,,,,,,,,,,,,23732,2019_Oct_09_1734,Mmi_3levels,3.1.5,59.95921047158436,
2,black.png,"In this game, you may win or lose points. Your goal is to get as many points as possible. These points will be converted to a cash bonus at the end.
Sometimes we will ask you to rate your mood.",,,,0,1,1,1,,,,,,,,,,,,,,,,,,,,,,,,,19.651678033638746,None,19.651678033638746,None,19.651678033638746,None,4,78.29726963158464,19.651678033638746,None,,,,,,,,,,,,,,,,,,,,,,,,,,,,,,,,,,,,,,,,,,,,,,,,,,,,,,,,,,,,,,,,,,,,,,,,,,,,,,,,,,,,,,,,,,,,,,,,,,,,,,,,,,,,,,,,,,,,,,,,,,,,,,,,,23732,2019_Oct_09_1734,Mmi_3levels,3.1.5,59.95921047158436,
3,black.png,"On the next screen, please rate how you feel about your life these days. Use the LEFT (green) and RIGHT (blue) buttons to move the slider (you can press and hold them to slide gradually) and the TOP (red) button to lock in your response.
Make your rating as accurately and quickly as you can!",,,,0,2,2,2,,,,,,,,,,,,,,,,,,,,,,,,,97.99866182252299,None,97.99866182252299,None,97.99866182252299,None,4,9.320550463919062,97.99866182252299,None,,,,,,,,,,,,,,,,,,,,,,,,,,,,,,,,,,,,,,,,,,,,,,,,,,,,,,,,,,,,,,,,,,,,,,,,,,,,,,,,,,,,,,,,,,,,,,,,,,,,,,,,,,,,,,,,,,,,,,,,,,,,,,,,,23732,2019_Oct_09_1734,Mmi_3levels,3.1.5,59.95921047158436,
,,,,,,,,,,,,,,,,,,,,,,,,,,,,,,,,,,,,,,,,,,,,107.33567359735025,None,0.55,10.503045297693461,111.3372156053083,None,None,111.3372156053083,None,,,,,,,,,,,,,,,,,,,,,,,,,,,,,,,,,,,,,,,,,,,,,,,,,,,,,,,,,,,,,,,,,,,,,,,,,,,,,,,,,,,,,,,,,,,,,,,,,,,,,,,,,,,,,,,,,,,,,,,,23732,2019_Oct_09_1734,Mmi_3levels,3.1.5,59.95921047158436,
4,black.png,"In this game you can win money by earning points according to your choices. You will decide whether to gamble a number of points or stick with a guaranteed number of points. 
Make your choice by pressing the left or right arrow key once. An example of one trial is shown on the next screen.",,,,,,,,0,0,0,0,,,,,,,,,,,,,,,,,,,,,,,,,,,,,,,,,,,,,,,,117.87315600615693,None,117.87315600615693,None,117.87315600615693,None,4,9.987375629832968,117.87315600615693,None,,,,,,,,,,,,,,,,,,,,,,,,,,,,,,,,,,,,,,,,,,,,,,,,,,,,,,,,,,,,,,,,,,,,,,,,,,,,,,,,,,,,,,,,,,,,,,,,,,,,,,,,,,,,,,23732,2019_Oct_09_1734,Mmi_3levels,3.1.5,59.95921047158436,
5,example_start.png,"The GAMBLING OPTION will be shown on the RIGHT SIDE. 
Select this option using the RIGHT (blue) button on your keypad.",,,,,,,,0,1,1,1,,,,,,,,,,,,,,,,,,,,,,,,,,,,,,,,,,,,,,,,127.92704180860892,None,127.92704180860892,None,127.92704180860892,None,4,6.519478449947201,127.92704180860892,None,,,,,,,,,,,,,,,,,,,,,,,,,,,,,,,,,,,,,,,,,,,,,,,,,,,,,,,,,,,,,,,,,,,,,,,,,,,,,,,,,,,,,,,,,,,,,,,,,,,,,,,,,,,,,,23732,2019_Oct_09_1734,Mmi_3levels,3.1.5,59.95921047158436,
6,example_gamble.png,"Once you select the gambling choice, the choice you made will remain on the screen.",,,,,,,,0,2,2,2,,,,,,,,,,,,,,,,,,,,,,,,,,,,,,,,,,,,,,,,134.47948127868585,None,134.47948127868585,None,134.47948127868585,None,4,1.26759901776677,134.47948127868585,None,,,,,,,,,,,,,,,,,,,,,,,,,,,,,,,,,,,,,,,,,,,,,,,,,,,,,,,,,,,,,,,,,,,,,,,,,,,,,,,,,,,,,,,,,,,,,,,,,,,,,,,,,,,,,,23732,2019_Oct_09_1734,Mmi_3levels,3.1.5,59.95921047158436,
7,example_win.png,"The outcome you received will then be shown on the screen. In this example , you WON 10 points.",,,,,,,,0,3,3,3,,,,,,,,,,,,,,,,,,,,,,,,,,,,,,,,,,,,,,,,135.77998339920305,None,135.77998339920305,None,135.77998339920305,None,4,2.067959704902023,135.77998339920305,None,,,,,,,,,,,,,,,,,,,,,,,,,,,,,,,,,,,,,,,,,,,,,,,,,,,,,,,,,,,,,,,,,,,,,,,,,,,,,,,,,,,,,,,,,,,,,,,,,,,,,,,,,,,,,,23732,2019_Oct_09_1734,Mmi_3levels,3.1.5,59.95921047158436,
8,example_start.png,"The GUARANTEED OPTION will be shown on the LEFT SIDE. You are 100% guaranteed to gain or lose this amount. In this example, you have a 100% chance of winning 1 point. Select this option using the LEFT (green) button on your keyboard.",,,,,,,,0,4,4,4,,,,,,,,,,,,,,,,,,,,,,,,,,,,,,,,,,,,,,,,137.91415153088747,None,137.91415153088747,None,137.91415153088747,None,4,2.8180526605574414,137.91415153088747,None,,,,,,,,,,,,,,,,,,,,,,,,,,,,,,,,,,,,,,,,,,,,,,,,,,,,,,,,,,,,,,,,,,,,,,,,,,,,,,,,,,,,,,,,,,,,,,,,,,,,,,,,,,,,,,23732,2019_Oct_09_1734,Mmi_3levels,3.1.5,59.95921047158436,
9,example_certain.png,"Once you select the guaranteed choice, your selection will remain on the screen.",,,,,,,,0,5,5,5,,,,,,,,,,,,,,,,,,,,,,,,,,,,,,,,,,,,,,,,140.7653652021545,None,140.7653652021545,None,140.7653652021545,None,4,2.3345088517526165,140.7653652021545,None,,,,,,,,,,,,,,,,,,,,,,,,,,,,,,,,,,,,,,,,,,,,,,,,,,,,,,,,,,,,,,,,,,,,,,,,,,,,,,,,,,,,,,,,,,,,,,,,,,,,,,,,,,,,,,23732,2019_Oct_09_1734,Mmi_3levels,3.1.5,59.95921047158436,
10,black.png,"Please make your choices as fast as possible.
You will be given a break at the end of each block.
Let's play!",,,,,,,,0,6,6,6,,,,,,,,,,,,,,,,,,,,,,,,,,,,,,,,,,,,,,,,143.13297522743233,None,143.13297522743233,None,143.13297522743233,None,4,4.985413161513861,143.13297522743233,None,,,,,,,,,,,,,,,,,,,,,,,,,,,,,,,,,,,,,,,,,,,,,,,,,,,,,,,,,,,,,,,,,,,,,,,,,,,,,,,,,,,,,,,,,,,,,,,,,,,,,,,,,,,,,,23732,2019_Oct_09_1734,Mmi_3levels,3.1.5,59.95921047158436,
,,,,,,,,,,,,,,,,,,,,,,,,,,,,,,,,,,,,,,,,,,,,,,,,,,,,,,,,,,,,,,,148.13482826086693,None,space,46.468375237542205,148.13482826086693,None,,,,,,,,,,,,,,,,,,,,,,,,,,,,,,,,,,,,,,,,,,,,,,,,,,,,,,,,,,,,,,,,,,,,,,,,,,,,,,,,,,,,,,,,,,,,,,,,,,,,,,,,23732,2019_Oct_09_1734,Mmi_3levels,3.1.5,59.95921047158436,
,,,1,1,8.7,,,,,,,,,0,0,0,0,0,0,0,2,,,,,,,,,,,,,,,,,,,,,,,,,,,,,,,,,,,,,,,,,,,,,,,,194.61956305406056,None,0.46,7.495800196251366,197.63743133924436,None,None,197.63743133924436,None,202.12251811596798,None,True,True,False,0.46,-0.54,-0.54,8.100000000000001,8.7,0.5999999999999979,0.29999999999999893,gamble,win,8.7,8.7,205.15704322297825,None,205.15704322297825,None,205.15704322297825,None,205.15704322297825,None,205.15704322297825,None,205.15704322297825,None,205.15704322297825,None,1,2.3010937729268335,205.15704322297825,None,207.49123336962657,None,207.49123336962657,None,207.49123336962657,None,207.49123336962657,None,207.49123336962657,None,207.49123336962657,None,207.49123336962657,None,211.47611247602617,None,211.47611247602617,None,211.47611247602617,None,211.47611247602617,None,211.47611247602617,None,211.47611247602617,None,211.47611247602617,None,212.47649805806577,None,,,,,,,,,,,,,,,,,,,,,,,,,,,,,,,23732,2019_Oct_09_1734,Mmi_3levels,3.1.5,59.95921047158436,
,,,1,1,3.3,,,,,,,,,0,0,0,0,0,1,1,22,,,,,,,,,,,,,,,,,,,,,,,,,,,,,,,,,,,,,,,,,,,,,,,,,,,,,,,,,,,True,False,False,0.46,-0.54,-1.08,-1.9800000000000002,3.3,1.3199999999999996,0.6599999999999998,gamble,lose,1.3199999999999996,10.02,214.4939990004059,None,214.4939990004059,None,214.4939990004059,None,214.4939990004059,None,214.4939990004059,None,214.4939990004059,None,214.4939990004059,None,1,1.3840646165190265,214.4939990004059,None,215.89449292933568,None,215.89449292933568,None,215.89449292933568,None,215.89449292933568,None,215.89449292933568,None,215.89449292933568,None,215.89449292933568,None,219.8960477366927,None,219.8960477366927,None,219.8960477366927,None,219.8960477366927,None,219.8960477366927,None,219.8960477366927,None,219.8960477366927,None,220.89648611622397,None,,,,,,,,,,,,,,,,,,,,,,,,,,,,,,,23732,2019_Oct_09_1734,Mmi_3levels,3.1.5,59.95921047158436,
,,,1,1,-1.5,,,,,,,,,0,0,0,0,0,2,2,6,,,,,,,,,,,,,,,,,,,,,,,,,,,,,,,,,,,,,,,,,,,,,,,,,,,,,,,,,,,True,False,True,0.46,-0.54,-1.62,-2.0250000000000004,-1.5,-3.5250000000000004,-2.5125,certain,certain,-2.5125,7.507499999999999,222.91393010120373,None,222.91393010120373,None,222.91393010120373,None,222.91393010120373,None,222.91393010120373,None,222.91393010120373,None,222.91393010120373,None,3,2.5511742491507903,222.91393010120373,None,225.498202963965,None,225.498202963965,None,225.498202963965,None,225.498202963965,None,225.498202963965,None,225.498202963965,None,225.498202963965,None,229.49977089074673,None,229.49977089074673,None,229.49977089074673,None,229.49977089074673,None,229.49977089074673,None,229.49977089074673,None,229.49977089074673,None,238.9868431747309,None,230.48343565390678,None,231.4838442748296,None,0.48,7.50269555405248,234.48497862182558,None,None,234.48497862182558,None,,,,,,,,,,,,,,,,,,,,23732,2019_Oct_09_1734,Mmi_3levels,3.1.5,59.95921047158436,
,,,1,1,6.5,,,,,,,,,0,0,0,0,0,3,3,17,,,,,,,,,,,,,,,,,,,,,,,,,,,,,,,,,,,,,,,,,,,,,,,,,,,,,,,,,,,True,True,True,0.48,-0.52,-2.14,9.42,6.5,-2.92,1.79,gamble,win,6.5,14.0075,241.004236602108,None,241.004236602108,None,241.004236602108,None,241.004236602108,None,241.004236602108,None,241.004236602108,None,241.004236602108,None,1,1.3006301145651378,241.004236602108,None,242.33813716226723,None,242.33813716226723,None,242.33813716226723,None,242.33813716226723,None,242.33813716226723,None,242.33813716226723,None,242.33813716226723,None,246.33964333188487,None,246.33964333188487,None,246.33964333188487,None,246.33964333188487,None,246.33964333188487,None,246.33964333188487,None,246.33964333188487,None,247.32336697232677,None,,,,,,,,,,,,,,,,,,,,,,,,,,,,,,,23732,2019_Oct_09_1734,Mmi_3levels,3.1.5,59.95921047158436,
,,,1,1,8.5,,,,,,,,,0,0,0,0,0,4,4,3,,,,,,,,,,,,,,,,,,,,,,,,,,,,,,,,,,,,,,,,,,,,,,,,,,,,,,,,,,,True,True,True,0.48,-0.52,-2.66,9.940000000000001,8.5,-1.4400000000000013,-0.7200000000000006,certain,certain,-0.7200000000000006,13.2875,249.34086951462086,None,249.34086951462086,None,249.34086951462086,None,249.34086951462086,None,249.34086951462086,None,249.34086951462086,None,249.34086951462086,None,3,1.4341745953424834,249.34086951462086,None,250.8080457681208,None,250.8080457681208,None,250.8080457681208,None,250.8080457681208,None,250.8080457681208,None,250.8080457681208,None,250.8080457681208,None,254.80959481577156,None,254.80959481577156,None,254.80959481577156,None,254.80959481577156,None,254.80959481577156,None,254.80959481577156,None,254.80959481577156,None,264.29666133999126,None,255.7932790980558,None,256.79375107598025,None,0.48,7.502829307864886,259.7949068619637,None,None,259.7949068619637,None,,,,,,,,,,,,,,,,,,,,23732,2019_Oct_09_1734,Mmi_3levels,3.1.5,59.95921047158436,
,,,1,1,1.1,,,,,,,,,0,0,0,0,0,5,5,7,,,,,,,,,,,,,,,,,,,,,,,,,,,,,,,,,,,,,,,,,,,,,,,,,,,,,,,,,,,True,False,False,0.48,-0.52,-3.18,-2.085,1.1,-0.9849999999999999,0.05750000000000011,gamble,lose,-0.9849999999999999,12.3025,266.3141133246827,None,266.3141133246827,None,266.3141133246827,None,266.3141133246827,None,266.3141133246827,None,266.3141133246827,None,266.3141133246827,None,1,2.217790144844912,266.3141133246827,None,268.56498576392187,None,268.56498576392187,None,268.56498576392187,None,268.56498576392187,None,268.56498576392187,None,268.56498576392187,None,268.56498576392187,None,272.5498677502037,None,272.5498677502037,None,272.5498677502037,None,272.5498677502037,None,272.5498677502037,None,272.5498677502037,None,272.5498677502037,None,273.5502562120673,None,,,,,,,,,,,,,,,,,,,,,,,,,,,,,,,23732,2019_Oct_09_1734,Mmi_3levels,3.1.5,59.95921047158436,
,,,1,1,12.9,,,,,,,,,0,0,0,0,0,6,6,1,,,,,,,,,,,,,,,,,,,,,,,,,,,,,,,,,,,,,,,,,,,,,,,,,,,,,,,,,,,True,True,False,0.48,-0.52,-3.7,10.98,12.9,1.92,0.96,gamble,win,12.9,25.2025,275.5676998770796,None,275.5676998770796,None,275.5676998770796,None,275.5676998770796,None,275.5676998770796,None,275.5676998770796,None,275.5676998770796,None,1,1.0172836724668741,275.5676998770796,None,276.6180760835414,None,276.6180760835414,None,276.6180760835414,None,276.6180760835414,None,276.6180760835414,None,276.6180760835414,None,276.6180760835414,None,280.61967696872307,None,280.61967696872307,None,280.61967696872307,None,280.61967696872307,None,280.61967696872307,None,280.61967696872307,None,280.61967696872307,None,281.6032738950453,None,,,,,,,,,,,,,,,,,,,,,,,,,,,,,,,23732,2019_Oct_09_1734,Mmi_3levels,3.1.5,59.95921047158436,
,,,1,1,9.1,,,,,,,,,0,0,0,0,0,7,7,12,,,,,,,,,,,,,,,,,,,,,,,,,,,,,,,,,,,,,,,,,,,,,,,,,,,,,,,,,,,True,True,True,0.48,-0.52,-4.220000000000001,11.5,9.1,-2.4000000000000004,-1.2000000000000002,gamble,win,9.1,34.3025,283.62082763493527,None,283.62082763493527,None,283.62082763493527,None,283.62082763493527,None,283.62082763493527,None,283.62082763493527,None,283.62082763493527,None,1,0.9838013967964798,283.62082763493527,None,284.6378889178741,None,284.6378889178741,None,284.6378889178741,None,284.6378889178741,None,284.6378889178741,None,284.6378889178741,None,284.6378889178741,None,288.6394485249766,None,288.6394485249766,None,288.6394485249766,None,288.6394485249766,None,288.6394485249766,None,288.6394485249766,None,288.6394485249766,None,298.1264654515544,None,289.6230739300372,None,290.62354974780465,None,0.48,7.50282226811396,293.62464473664295,None,None,293.62464473664295,None,,,,,,,,,,,,,,,,,,,,23732,2019_Oct_09_1734,Mmi_3levels,3.1.5,59.95921047158436,
,,,1,1,7.9,,,,,,,,,0,0,0,0,0,8,8,21,,,,,,,,,,,,,,,,,,,,,,,,,,,,,,,,,,,,,,,,,,,,,,,,,,,,,,,,,,,True,True,True,0.48,-0.52,-4.74,12.02,7.9,-4.119999999999999,1.8900000000000006,certain,certain,1.8900000000000006,36.1925,300.14386015885975,None,300.14386015885975,None,300.14386015885975,None,300.14386015885975,None,300.14386015885975,None,300.14386015885975,None,300.14386015885975,None,3,1.9843456913949922,300.14386015885975,None,302.1613057438517,None,302.1613057438517,None,302.1613057438517,None,302.1613057438517,None,302.1613057438517,None,302.1613057438517,None,302.1613057438517,None,306.16282791271806,None,306.16282791271806,None,306.16282791271806,None,306.16282791271806,None,306.16282791271806,None,306.16282791271806,None,306.16282791271806,None,307.1466302694753,None,,,,,,,,,,,,,,,,,,,,,,,,,,,,,,,23732,2019_Oct_09_1734,Mmi_3levels,3.1.5,59.95921047158436,
,,,1,1,1.9,,,,,,,,,0,0,0,0,0,9,9,5,,,,,,,,,,,,,,,,,,,,,,,,,,,,,,,,,,,,,,,,,,,,,,,,,,,,,,,,,,,True,True,True,0.48,-0.52,-5.26,12.54,1.9,-10.639999999999999,-4.369999999999999,certain,certain,-4.369999999999999,31.822500000000005,309.164078094298,None,309.164078094298,None,309.164078094298,None,309.164078094298,None,309.164078094298,None,309.164078094298,None,309.164078094298,None,3,2.7346546369371936,309.164078094298,None,311.9318172655185,None,311.9318172655185,None,311.9318172655185,None,311.9318172655185,None,311.9318172655185,None,311.9318172655185,None,311.9318172655185,None,315.933361193398,None,315.933361193398,None,315.933361193398,None,315.933361193398,None,315.933361193398,None,315.933361193398,None,315.933361193398,None,325.4203339620144,None,316.9170333162183,None,317.91747329570353,None,0.48,7.502679554803763,320.9186233219225,None,None,320.9186233219225,None,,,,,,,,,,,,,,,,,,,,23732,2019_Oct_09_1734,Mmi_3levels,3.1.5,59.95921047158436,
,,,1,1,-0.7,,,,,,,,,0,0,0,0,0,10,10,13,,,,,,,,,,,,,,,,,,,,,,,,,,,,,,,,,,,,,,,,,,,,,,,,,,,,,,,,,,,True,True,True,0.48,-0.52,-5.779999999999999,13.059999999999999,-0.7,-13.759999999999998,-7.229999999999999,gamble,win,-0.7,31.122500000000006,327.4378269047593,None,327.4378269047593,None,327.4378269047593,None,327.4378269047593,None,327.4378269047593,None,327.4378269047593,None,327.4378269047593,None,1,2.234469045593869,327.4378269047593,None,329.70539008418564,None,329.70539008418564,None,329.70539008418564,None,329.70539008418564,None,329.70539008418564,None,329.70539008418564,None,329.70539008418564,None,333.7068674551556,None,333.7068674551556,None,333.7068674551556,None,333.7068674551556,None,333.7068674551556,None,333.7068674551556,None,333.7068674551556,None,334.6906454930431,None,,,,,,,,,,,,,,,,,,,,,,,,,,,,,,,23732,2019_Oct_09_1734,Mmi_3levels,3.1.5,59.95921047158436,
,,,1,1,6.3,,,,,,,,,0,0,0,0,0,11,11,4,,,,,,,,,,,,,,,,,,,,,,,,,,,,,,,,,,,,,,,,,,,,,,,,,,,,,,,,,,,True,True,True,0.48,-0.52,-6.299999999999999,13.579999999999998,6.3,-7.2799999999999985,-0.4899999999999993,certain,certain,-0.4899999999999993,30.632500000000007,336.70805107988417,None,336.70805107988417,None,336.70805107988417,None,336.70805107988417,None,336.70805107988417,None,336.70805107988417,None,336.70805107988417,None,3,2.501036751549691,336.70805107988417,None,339.24236659664894,None,339.24236659664894,None,339.24236659664894,None,339.24236659664894,None,339.24236659664894,None,339.24236659664894,None,339.24236659664894,None,343.227257542545,None,343.227257542545,None,343.227257542545,None,343.227257542545,None,343.227257542545,None,343.227257542545,None,343.227257542545,None,352.73095400986494,None,344.2276508041541,None,345.2280767043121,None,0.48,7.502791869570501,348.22919473203365,None,None,348.22919473203365,None,,,,,,,,,,,,,,,,,,,,23732,2019_Oct_09_1734,Mmi_3levels,3.1.5,59.95921047158436,
,,,1,1,12.3,,,,,,,,,0,0,0,0,0,12,12,11,,,,,,,,,,,,,,,,,,,,,,,,,,,,,,,,,,,,,,,,,,,,,,,,,,,,,,,,,,,True,True,False,0.48,-0.52,-6.8199999999999985,14.099999999999998,12.3,-1.7999999999999972,-0.8999999999999986,gamble,win,12.3,42.932500000000005,354.7483487171703,None,354.7483487171703,None,354.7483487171703,None,354.7483487171703,None,354.7483487171703,None,354.7483487171703,None,354.7483487171703,None,1,1.4342046739766374,354.7483487171703,None,356.21564528509043,None,356.21564528509043,None,356.21564528509043,None,356.21564528509043,None,356.21564528509043,None,356.21564528509043,None,356.21564528509043,None,360.21712009620387,None,360.21712009620387,None,360.21712009620387,None,360.21712009620387,None,360.21712009620387,None,360.21712009620387,None,360.21712009620387,None,361.2008805348887,None,,,,,,,,,,,,,,,,,,,,,,,,,,,,,,,23732,2019_Oct_09_1734,Mmi_3levels,3.1.5,59.95921047158436,
,,,1,1,4.7,,,,,,,,,0,0,0,0,0,13,13,19,,,,,,,,,,,,,,,,,,,,,,,,,,,,,,,,,,,,,,,,,,,,,,,,,,,,,,,,,,,True,True,True,0.48,-0.52,-7.339999999999998,14.619999999999997,4.7,-9.919999999999998,-2.609999999999999,gamble,win,4.7,47.63250000000001,363.218306920724,None,363.218306920724,None,363.218306920724,None,363.218306920724,None,363.218306920724,None,363.218306920724,None,363.218306920724,None,None,,363.218306920724,None,366.21952798368875,None,366.21952798368875,None,366.21952798368875,None,366.21952798368875,None,366.21952798368875,None,366.21952798368875,None,366.21952798368875,None,370.2210235937964,None,370.2210235937964,None,370.2210235937964,None,370.2210235937964,None,370.2210235937964,None,370.2210235937964,None,370.2210235937964,None,371.20473891461734,None,,,,,,,,,,,,,,,,,,,,,,,,,,,,,,,23732,2019_Oct_09_1734,Mmi_3levels,3.1.5,59.95921047158436,
,,,1,1,6.1,,,,,,,,,0,0,0,0,0,14,14,20,,,,,,,,,,,,,,,,,,,,,,,,,,,,,,,,,,,,,,,,,,,,,,,,,,,,,,,,,,,True,True,False,0.48,-0.52,-7.859999999999998,15.139999999999997,6.1,-9.039999999999997,-1.4699999999999989,gamble,win,6.1,53.73250000000001,373.22225489630364,None,373.22225489630364,None,373.22225489630364,None,373.22225489630364,None,373.22225489630364,None,373.22225489630364,None,373.22225489630364,None,1,1.2007170224678703,373.22225489630364,None,374.456074372225,None,374.456074372225,None,374.456074372225,None,374.456074372225,None,374.456074372225,None,374.456074372225,None,374.456074372225,None,378.45760614064056,None,378.45760614064056,None,378.45760614064056,None,378.45760614064056,None,378.45760614064056,None,378.45760614064056,None,378.45760614064056,None,387.9446214673226,None,379.4413217814872,None,380.4417073634686,None,0.53,7.50282034825068,383.44286122953054,None,None,383.44286122953054,None,,,,,,,,,,,,,,,,,,,,23732,2019_Oct_09_1734,Mmi_3levels,3.1.5,59.95921047158436,
,,,1,1,2.9,,,,,,,,,0,0,0,0,0,15,15,26,,,,,,,,,,,,,,,,,,,,,,,,,,,,,,,,,,,,,,,,,,,,,,,,,,,,,,,,,,,True,False,True,0.53,-0.47,-8.329999999999998,-2.3391666666666664,2.9,0.5608333333333335,1.7304166666666667,gamble,lose,0.5608333333333335,54.293333333333344,389.9620865713223,None,389.9620865713223,None,389.9620865713223,None,389.9620865713223,None,389.9620865713223,None,389.9620865713223,None,389.9620865713223,None,1,0.9339205272844993,389.9620865713223,None,390.92909579270054,None,390.92909579270054,None,390.92909579270054,None,390.92909579270054,None,390.92909579270054,None,390.92909579270054,None,390.92909579270054,None,394.93066147953505,None,394.93066147953505,None,394.93066147953505,None,394.93066147953505,None,394.93066147953505,None,394.93066147953505,None,394.93066147953505,None,395.9143777603167,None,,,,,,,,,,,,,,,,,,,,,,,,,,,,,,,23732,2019_Oct_09_1734,Mmi_3levels,3.1.5,59.95921047158436,
,,,1,1,13.1,,,,,,,,,0,0,0,0,0,16,16,23,,,,,,,,,,,,,,,,,,,,,,,,,,,,,,,,,,,,,,,,,,,,,,,,,,,,,,,,,,,True,True,True,0.53,-0.47,-8.799999999999999,15.379999999999999,13.1,-2.2799999999999994,-1.1399999999999997,gamble,win,13.1,67.39333333333335,397.9317510286346,None,397.9317510286346,None,397.9317510286346,None,397.9317510286346,None,397.9317510286346,None,397.9317510286346,None,397.9317510286346,None,1,0.984037225774955,397.9317510286346,None,398.94883951026713,None,398.94883951026713,None,398.94883951026713,None,398.94883951026713,None,398.94883951026713,None,398.94883951026713,None,398.94883951026713,None,402.95051879179664,None,402.95051879179664,None,402.95051879179664,None,402.95051879179664,None,402.95051879179664,None,402.95051879179664,None,402.95051879179664,None,412.43740292458097,None,403.93416019604774,None,404.9344961803872,None,0.52,7.50282034825068,407.93567660520785,None,None,407.93567660520785,None,,,,,,,,,,,,,,,,,,,,23732,2019_Oct_09_1734,Mmi_3levels,3.1.5,59.95921047158436,
,,,1,1,4.5,,,,,,,,,0,0,0,0,0,17,17,9,,,,,,,,,,,,,,,,,,,,,,,,,,,,,,,,,,,,,,,,,,,,,,,,,,,,,,,,,,,True,True,True,0.52,-0.48,-9.28,16.0,4.5,-11.5,-3.5,certain,certain,-3.5,63.893333333333345,414.4548395499005,None,414.4548395499005,None,414.4548395499005,None,414.4548395499005,None,414.4548395499005,None,414.4548395499005,None,414.4548395499005,None,3,1.7007375015527941,414.4548395499005,None,416.188920773624,None,416.188920773624,None,416.188920773624,None,416.188920773624,None,416.188920773624,None,416.188920773624,None,416.188920773624,None,420.1904957400402,None,420.1904957400402,None,420.1904957400402,None,420.1904957400402,None,420.1904957400402,None,420.1904957400402,None,420.1904957400402,None,421.1742456192733,None,,,,,,,,,,,,,,,,,,,,,,,,,,,,,,,23732,2019_Oct_09_1734,Mmi_3levels,3.1.5,59.95921047158436,
,,,1,1,9.9,,,,,,,,,0,0,0,0,0,18,18,8,,,,,,,,,,,,,,,,,,,,,,,,,,,,,,,,,,,,,,,,,,,,,,,,,,,,,,,,,,,True,True,False,0.52,-0.48,-9.76,16.48,9.9,-6.58,1.6600000000000001,certain,certain,1.6600000000000001,65.55333333333334,423.191579849401,None,423.191579849401,None,423.191579849401,None,423.191579849401,None,423.191579849401,None,423.191579849401,None,423.191579849401,None,3,1.7509367562597618,423.191579849401,None,424.97560337983305,None,424.97560337983305,None,424.97560337983305,None,424.97560337983305,None,424.97560337983305,None,424.97560337983305,None,424.97560337983305,None,428.96049080591183,None,428.96049080591183,None,428.96049080591183,None,428.96049080591183,None,428.96049080591183,None,428.96049080591183,None,428.96049080591183,None,429.9609333451954,None,,,,,,,,,,,,,,,,,,,,,,,,,,,,,,,23732,2019_Oct_09_1734,Mmi_3levels,3.1.5,59.95921047158436,
,,,1,1,2.5,,,,,,,,,0,0,0,0,0,19,19,0,,,,,,,,,,,,,,,,,,,,,,,,,,,,,,,,,,,,,,,,,,,,,,,,,,,,,,,,,,,True,True,False,0.52,-0.48,-10.24,16.96,2.5,-14.46,-5.98,gamble,win,2.5,68.05333333333334,431.97837509034434,None,431.97837509034434,None,431.97837509034434,None,431.97837509034434,None,431.97837509034434,None,431.97837509034434,None,431.97837509034434,None,1,2.8846434694714844,431.97837509034434,None,434.89617093093693,None,434.89617093093693,None,434.89617093093693,None,434.89617093093693,None,434.89617093093693,None,434.89617093093693,None,434.89617093093693,None,438.8977132588625,None,438.8977132588625,None,438.8977132588625,None,438.8977132588625,None,438.8977132588625,None,438.8977132588625,None,438.8977132588625,None,448.3846658684197,None,439.88143593934365,None,440.88177448353963,None,0.52,7.502882105356548,443.8829821071122,None,None,443.8829821071122,None,,,,,,,,,,,,,,,,,,,,23732,2019_Oct_09_1734,Mmi_3levels,3.1.5,59.95921047158436,
,,,1,1,1.3,,,,,,,,,0,0,0,0,0,20,20,18,,,,,,,,,,,,,,,,,,,,,,,,,,,,,,,,,,,,,,,,,,,,,,,,,,,,,,,,,,,True,False,True,0.52,-0.48,-10.72,-2.5733333333333333,1.3,-1.2733333333333332,0.01333333333333342,certain,certain,0.01333333333333342,68.06666666666668,450.4021392920986,None,450.4021392920986,None,450.4021392920986,None,450.4021392920986,None,450.4021392920986,None,450.4021392920986,None,450.4021392920986,None,3,2.6510943808825687,450.4021392920986,None,453.08651339809876,None,453.08651339809876,None,453.08651339809876,None,453.08651339809876,None,453.08651339809876,None,453.08651339809876,None,453.08651339809876,None,457.0714715408976,None,457.0714715408976,None,457.0714715408976,None,457.0714715408976,None,457.0714715408976,None,457.0714715408976,None,457.0714715408976,None,458.07178672612645,None,,,,,,,,,,,,,,,,,,,,,,,,,,,,,,,23732,2019_Oct_09_1734,Mmi_3levels,3.1.5,59.95921047158436,
,,,1,1,13.7,,,,,,,,,0,0,0,0,0,21,21,25,,,,,,,,,,,,,,,,,,,,,,,,,,,,,,,,,,,,,,,,,,,,,,,,,,,,,,,,,,,True,True,False,0.52,-0.48,-11.200000000000001,17.92,13.7,-4.220000000000002,-2.110000000000001,gamble,win,13.7,81.76666666666668,460.0892617497011,None,460.0892617497011,None,460.0892617497011,None,460.0892617497011,None,460.0892617497011,None,460.0892617497011,None,460.0892617497011,None,1,1.6509379082126543,460.0892617497011,None,461.77327107283054,None,461.77327107283054,None,461.77327107283054,None,461.77327107283054,None,461.77327107283054,None,461.77327107283054,None,461.77327107283054,None,465.7747932416969,None,465.7747932416969,None,465.7747932416969,None,465.7747932416969,None,465.7747932416969,None,465.7747932416969,None,465.7747932416969,None,475.26183672703337,None,466.75848456361564,None,467.75889062468195,None,0.51,7.5028008291265,470.7600422508549,None,None,470.7600422508549,None,,,,,,,,,,,,,,,,,,,,23732,2019_Oct_09_1734,Mmi_3levels,3.1.5,59.95921047158436,
,,,1,1,-1.3,,,,,,,,,0,0,0,0,0,22,22,10,,,,,,,,,,,,,,,,,,,,,,,,,,,,,,,,,,,,,,,,,,,,,,,,,,,,,,,,,,,True,True,True,0.51,-0.49,-11.690000000000001,18.55,-1.3,-19.85,-10.575000000000001,gamble,win,-1.3,80.46666666666668,477.2792887116666,None,477.2792887116666,None,477.2792887116666,None,477.2792887116666,None,477.2792887116666,None,477.2792887116666,None,477.2792887116666,None,1,2.951338593440596,477.2792887116666,None,480.2637246387894,None,480.2637246387894,None,480.2637246387894,None,480.2637246387894,None,480.2637246387894,None,480.2637246387894,None,480.2637246387894,None,484.26533320365706,None,484.26533320365706,None,484.26533320365706,None,484.26533320365706,None,484.26533320365706,None,484.26533320365706,None,484.26533320365706,None,485.2490648436942,None,,,,,,,,,,,,,,,,,,,,,,,,,,,,,,,23732,2019_Oct_09_1734,Mmi_3levels,3.1.5,59.95921047158436,
,,,1,1,-0.3,,,,,,,,,0,0,0,0,0,23,23,24,,,,,,,,,,,,,,,,,,,,,,,,,,,,,,,,,,,,,,,,,,,,,,,,,,,,,,,,,,,True,True,False,0.51,-0.49,-12.180000000000001,19.04,-0.3,-19.34,-9.82,gamble,win,-0.3,80.16666666666669,487.2664425918483,None,487.2664425918483,None,487.2664425918483,None,487.2664425918483,None,487.2664425918483,None,487.2664425918483,None,487.2664425918483,None,1,2.1344964363379404,487.2664425918483,None,489.4340059632668,None,489.4340059632668,None,489.4340059632668,None,489.4340059632668,None,489.4340059632668,None,489.4340059632668,None,489.4340059632668,None,493.4355438114144,None,493.4355438114144,None,493.4355438114144,None,493.4355438114144,None,493.4355438114144,None,493.4355438114144,None,493.4355438114144,None,502.9225012207753,None,494.4192700117128,None,495.41969719179906,None,0.52,7.502561160305049,498.42081649950705,None,None,498.42081649950705,None,,,,,,,,,,,,,,,,,,,,23732,2019_Oct_09_1734,Mmi_3levels,3.1.5,59.95921047158436,
,,,1,1,0.1,,,,,,,,,0,0,0,0,0,24,24,16,,,,,,,,,,,,,,,,,,,,,,,,,,,,,,,,,,,,,,,,,,,,,,,,,,,,,,,,,,,True,True,True,0.52,-0.48,-12.660000000000002,19.380000000000003,0.1,-19.28,-9.59,gamble,win,0.1,80.26666666666668,504.9400060029584,None,504.9400060029584,None,504.9400060029584,None,504.9400060029584,None,504.9400060029584,None,504.9400060029584,None,504.9400060029584,None,1,2.1177663379348814,504.9400060029584,None,507.09081015735865,None,507.09081015735865,None,507.09081015735865,None,507.09081015735865,None,507.09081015735865,None,507.09081015735865,None,507.09081015735865,None,511.0923300863942,None,511.0923300863942,None,511.0923300863942,None,511.0923300863942,None,511.0923300863942,None,511.0923300863942,None,511.0923300863942,None,512.0761468424462,None,,,,,,,,,,,,,,,,,,,,,,,,,,,,,,,23732,2019_Oct_09_1734,Mmi_3levels,3.1.5,59.95921047158436,
,,,1,1,3.9,,,,,,,,,0,0,0,0,0,25,25,14,,,,,,,,,,,,,,,,,,,,,,,,,,,,,,,,,,,,,,,,,,,,,,,,,,,,,,,,,,,True,True,True,0.52,-0.48,-13.140000000000002,19.860000000000003,3.9,-15.960000000000003,-6.030000000000001,certain,certain,-6.030000000000001,74.23666666666668,514.0935178708751,None,514.0935178708751,None,514.0935178708751,None,514.0935178708751,None,514.0935178708751,None,514.0935178708751,None,514.0935178708751,None,3,1.8843708421918564,514.0935178708751,None,516.0109914864879,None,516.0109914864879,None,516.0109914864879,None,516.0109914864879,None,516.0109914864879,None,516.0109914864879,None,516.0109914864879,None,520.0125373342889,None,520.0125373342889,None,520.0125373342889,None,520.0125373342889,None,520.0125373342889,None,520.0125373342889,None,520.0125373342889,None,520.9962942531565,None,,,,,,,,,,,,,,,,,,,,,,,,,,,,,,,23732,2019_Oct_09_1734,Mmi_3levels,3.1.5,59.95921047158436,
,,,1,1,0.3,,,,,,,,,0,0,0,0,0,26,26,15,,,,,,,,,,,,,,,,,,,,,,,,,,,,,,,,,,,,,,,,,,,,,,,,,,,,,,,,,,,True,False,True,0.52,-0.48,-13.620000000000003,-2.8150000000000004,0.3,-2.5150000000000006,-1.1075000000000004,gamble,lose,-2.5150000000000006,71.72166666666668,523.0136512022582,None,523.0136512022582,None,523.0136512022582,None,523.0136512022582,None,523.0136512022582,None,523.0136512022582,None,523.0136512022582,None,1,2.267839646548964,523.0136512022582,None,525.3145558639662,None,525.3145558639662,None,525.3145558639662,None,525.3145558639662,None,525.3145558639662,None,525.3145558639662,None,525.3145558639662,None,529.2994228110183,None,529.2994228110183,None,529.2994228110183,None,529.2994228110183,None,529.2994228110183,None,529.2994228110183,None,529.2994228110183,None,538.8031538366922,None,530.2998551108176,None,531.3001939749811,None,0.52,7.502873465709854,534.301349440997,None,None,534.301349440997,None,,,,,,,,,,,,,,,,,,,,23732,2019_Oct_09_1734,Mmi_3levels,3.1.5,59.95921047158436,
,,,2,0,-0.3,,,,,,,,,0,1,1,1,0,0,0,17,,,,,,,,,,,,,,,,,,,,,,,,,,,,,,,,,,,,,,,,,,,,,,,,543.8884157732246,None,0.52,6.267910043243319,546.9062859783298,None,4,546.9062859783298,None,550.1574688031105,None,False,True,True,0.52,0.52,0.52,-7.800000000000001,-0.3,-8.100000000000001,-4.200000000000001,gamble,lose,-8.100000000000001,63.62166666666668,553.1920854257769,None,553.1920854257769,None,553.1920854257769,None,553.1920854257769,None,553.1920854257769,None,553.1920854257769,None,553.1920854257769,None,1,2.184437783085741,553.1920854257769,None,555.4095891840407,None,555.4095891840407,None,555.4095891840407,None,555.4095891840407,None,555.4095891840407,None,555.4095891840407,None,555.4095891840407,None,559.4111065531033,None,559.4111065531033,None,559.4111065531033,None,559.4111065531033,None,559.4111065531033,None,559.4111065531033,None,559.4111065531033,None,560.3948740315391,None,,,,,,,,,,,,540.8039285204723,None,4,3.0681395365390927,540.8039285204723,None,3.2347615119069815,,,,,,,,,,,,,23732,2019_Oct_09_1734,Mmi_3levels,3.1.5,59.95921047158436,
,,,2,0,1.1,,,,,,,,,0,1,1,1,0,1,1,25,,,,,,,,,,,,,,,,,,,,,,,,,,,,,,,,,,,,,,,,,,,,,,,,,,,,,,,,,,,False,False,False,0.52,0.52,1.04,1.9066666666666667,0.275,-1.6316666666666668,-0.6783333333333335,gamble,win,0.275,63.896666666666675,562.4123320958461,None,562.4123320958461,None,562.4123320958461,None,562.4123320958461,None,562.4123320958461,None,562.4123320958461,None,562.4123320958461,None,1,2.101010960759595,562.4123320958461,None,564.5464314307319,None,564.5464314307319,None,564.5464314307319,None,564.5464314307319,None,564.5464314307319,None,564.5464314307319,None,564.5464314307319,None,568.5313614148181,None,568.5313614148181,None,568.5313614148181,None,568.5313614148181,None,568.5313614148181,None,568.5313614148181,None,568.5313614148181,None,578.0349980448955,None,569.531747316767,None,570.5321418583626,None,0.49,7.502781630028039,573.5332362072077,None,None,573.5332362072077,None,,,,,,,,,,,,,,,,,,,,23732,2019_Oct_09_1734,Mmi_3levels,3.1.5,59.95921047158436,
,,,2,0,7.5,,,,,,,,,0,1,1,1,0,2,2,9,,,,,,,,,,,,,,,,,,,,,,,,,,,,,,,,,,,,,,,,,,,,,,,,,,,,,,,,,,,False,False,True,0.49,0.49,1.53,1.8424999999999998,1.875,0.032500000000000195,0.9537500000000001,gamble,win,1.875,65.77166666666668,580.0524913076079,None,580.0524913076079,None,580.0524913076079,None,580.0524913076079,None,580.0524913076079,None,580.0524913076079,None,580.0524913076079,None,1,1.3841353331808932,580.0524913076079,None,581.46970381547,None,581.46970381547,None,581.46970381547,None,581.46970381547,None,581.46970381547,None,581.46970381547,None,581.46970381547,None,585.4545445237309,None,585.4545445237309,None,585.4545445237309,None,585.4545445237309,None,585.4545445237309,None,585.4545445237309,None,585.4545445237309,None,586.4549598643207,None,,,,,,,,,,,,,,,,,,,,,,,,,,,,,,,23732,2019_Oct_09_1734,Mmi_3levels,3.1.5,59.95921047158436,
,,,2,0,11.7,,,,,,,,,0,1,1,1,0,3,3,0,,,,,,,,,,,,,,,,,,,,,,,,,,,,,,,,,,,,,,,,,,,,,,,,,,,,,,,,,,,False,True,True,0.49,0.49,2.02,-8.879999999999999,11.7,2.8200000000000003,1.4100000000000001,gamble,lose,2.8200000000000003,68.59166666666667,588.4723766506067,None,588.4723766506067,None,588.4723766506067,None,588.4723766506067,None,588.4723766506067,None,588.4723766506067,None,588.4723766506067,None,1,1.2007295018993318,588.4723766506067,None,589.7061942066066,None,589.7061942066066,None,589.7061942066066,None,589.7061942066066,None,589.7061942066066,None,589.7061942066066,None,589.7061942066066,None,593.7077717329375,None,593.7077717329375,None,593.7077717329375,None,593.7077717329375,None,593.7077717329375,None,593.7077717329375,None,593.7077717329375,None,603.1947646606131,None,594.6915132925496,None,595.6919062341913,None,0.52,7.502807228884194,598.6930069827358,None,None,598.6930069827358,None,,,,,,,,,,,,,,,,,,,,23732,2019_Oct_09_1734,Mmi_3levels,3.1.5,59.95921047158436,
,,,2,0,4.5,,,,,,,,,0,1,1,1,0,4,4,18,,,,,,,,,,,,,,,,,,,,,,,,,,,,,,,,,,,,,,,,,,,,,,,,,,,,,,,,,,,False,True,True,0.52,0.52,2.54,-9.82,4.5,-5.32,-0.41000000000000014,certain,certain,-0.41000000000000014,68.18166666666667,605.2122611231753,None,605.2122611231753,None,605.2122611231753,None,605.2122611231753,None,605.2122611231753,None,605.2122611231753,None,605.2122611231753,None,3,2.234287934086751,605.2122611231753,None,607.4797702251817,None,607.4797702251817,None,607.4797702251817,None,607.4797702251817,None,607.4797702251817,None,607.4797702251817,None,607.4797702251817,None,611.4813144730288,None,611.4813144730288,None,611.4813144730288,None,611.4813144730288,None,611.4813144730288,None,611.4813144730288,None,611.4813144730288,None,612.4650617923471,None,,,,,,,,,,,,,,,,,,,,,,,,,,,,,,,23732,2019_Oct_09_1734,Mmi_3levels,3.1.5,59.95921047158436,
,,,2,0,-1.5,,,,,,,,,0,1,1,1,0,5,5,1,,,,,,,,,,,,,,,,,,,,,,,,,,,,,,,,,,,,,,,,,,,,,,,,,,,,,,,,,,,False,True,False,0.52,0.52,3.06,-10.34,-1.5,-11.84,-6.67,gamble,lose,-11.84,56.34166666666667,614.4824788986007,None,614.4824788986007,None,614.4824788986007,None,614.4824788986007,None,614.4824788986007,None,614.4824788986007,None,614.4824788986007,None,None,,614.4824788986007,None,617.4836420442443,None,617.4836420442443,None,617.4836420442443,None,617.4836420442443,None,617.4836420442443,None,617.4836420442443,None,617.4836420442443,None,621.4852221304318,None,621.4852221304318,None,621.4852221304318,None,621.4852221304318,None,621.4852221304318,None,621.4852221304318,None,621.4852221304318,None,622.4689624101156,None,,,,,,,,,,,,,,,,,,,,,,,,,,,,,,,23732,2019_Oct_09_1734,Mmi_3levels,3.1.5,59.95921047158436,
,,,2,0,4.1,,,,,,,,,0,1,1,1,0,6,6,13,,,,,,,,,,,,,,,,,,,,,,,,,,,,,,,,,,,,,,,,,,,,,,,,,,,,,,,,,,,False,True,True,0.52,0.52,3.58,-10.86,4.1,-6.76,-1.33,gamble,lose,-6.76,49.58166666666667,624.4864086350426,None,624.4864086350426,None,624.4864086350426,None,624.4864086350426,None,624.4864086350426,None,624.4864086350426,None,624.4864086350426,None,1,2.551086253253743,624.4864086350426,None,627.0707477346878,None,627.0707477346878,None,627.0707477346878,None,627.0707477346878,None,627.0707477346878,None,627.0707477346878,None,627.0707477346878,None,631.0722260656185,None,631.0722260656185,None,631.0722260656185,None,631.0722260656185,None,631.0722260656185,None,631.0722260656185,None,631.0722260656185,None,640.5593156287796,None,632.0560165829374,None,633.0564082446508,None,0.52,7.502775550354272,636.0575022735284,None,None,636.0575022735284,None,,,,,,,,,,,,,,,,,,,,23732,2019_Oct_09_1734,Mmi_3levels,3.1.5,59.95921047158436,
,,,2,0,6.1,,,,,,,,,0,1,1,1,0,7,7,11,,,,,,,,,,,,,,,,,,,,,,,,,,,,,,,,,,,,,,,,,,,,,,,,,,,,,,,,,,,False,False,True,0.52,0.52,4.1,2.1616666666666666,1.525,-0.6366666666666667,0.4441666666666666,gamble,win,1.525,51.10666666666667,642.576770493295,None,642.576770493295,None,642.576770493295,None,642.576770493295,None,642.576770493295,None,642.576770493295,None,642.576770493295,None,1,1.650862071721349,642.576770493295,None,644.2607276588096,None,644.2607276588096,None,644.2607276588096,None,644.2607276588096,None,644.2607276588096,None,644.2607276588096,None,644.2607276588096,None,648.2456282042549,None,648.2456282042549,None,648.2456282042549,None,648.2456282042549,None,648.2456282042549,None,648.2456282042549,None,648.2456282042549,None,649.2460016268305,None,,,,,,,,,,,,,,,,,,,,,,,,,,,,,,,23732,2019_Oct_09_1734,Mmi_3levels,3.1.5,59.95921047158436,
,,,2,0,7.9,,,,,,,,,0,1,1,1,0,8,8,22,,,,,,,,,,,,,,,,,,,,,,,,,,,,,,,,,,,,,,,,,,,,,,,,,,,,,,,,,,,False,True,True,0.52,0.52,4.619999999999999,-11.899999999999999,7.9,-3.9999999999999982,1.950000000000001,certain,certain,1.950000000000001,53.05666666666667,651.2634132933454,None,651.2634132933454,None,651.2634132933454,None,651.2634132933454,None,651.2634132933454,None,651.2634132933454,None,651.2634132933454,None,3,2.0844571741763502,651.2634132933454,None,653.3809047641698,None,653.3809047641698,None,653.3809047641698,None,653.3809047641698,None,653.3809047641698,None,653.3809047641698,None,653.3809047641698,None,657.3824982896913,None,657.3824982896913,None,657.3824982896913,None,657.3824982896913,None,657.3824982896913,None,657.3824982896913,None,657.3824982896913,None,666.8695289756288,None,658.3662260899437,None,659.3666055921931,None,0.52,7.502824828028679,662.3677677779342,None,None,662.3677677779342,None,,,,,,,,,,,,,,,,,,,,23732,2019_Oct_09_1734,Mmi_3levels,3.1.5,59.95921047158436,
,,,2,0,0.3,,,,,,,,,0,1,1,1,0,9,9,15,,,,,,,,,,,,,,,,,,,,,,,,,,,,,,,,,,,,,,,,,,,,,,,,,,,,,,,,,,,False,True,False,0.52,0.52,5.139999999999999,-12.419999999999998,0.3,-12.119999999999997,-5.909999999999998,gamble,lose,-12.119999999999997,40.936666666666675,668.8869739206275,None,668.8869739206275,None,668.8869739206275,None,668.8869739206275,None,668.8869739206275,None,668.8869739206275,None,668.8869739206275,None,1,1.4174038589117117,668.8869739206275,None,670.3374879126204,None,670.3374879126204,None,670.3374879126204,None,670.3374879126204,None,670.3374879126204,None,670.3374879126204,None,670.3374879126204,None,674.3223695789347,None,674.3223695789347,None,674.3223695789347,None,674.3223695789347,None,674.3223695789347,None,674.3223695789347,None,674.3223695789347,None,675.3227538809879,None,,,,,,,,,,,,,,,,,,,,,,,,,,,,,,,23732,2019_Oct_09_1734,Mmi_3levels,3.1.5,59.95921047158436,
,,,2,0,3.9,,,,,,,,,0,1,1,1,0,10,10,5,,,,,,,,,,,,,,,,,,,,,,,,,,,,,,,,,,,,,,,,,,,,,,,,,,,,,,,,,,,False,True,True,0.52,0.52,5.659999999999998,-12.939999999999998,3.9,-9.039999999999997,-2.5699999999999985,gamble,lose,-9.039999999999997,31.896666666666675,677.3402061855886,None,677.3402061855886,None,677.3402061855886,None,677.3402061855886,None,677.3402061855886,None,677.3402061855886,None,677.3402061855886,None,1,2.7012913957005367,677.3402061855886,None,680.0745993947494,None,680.0745993947494,None,680.0745993947494,None,680.0745993947494,None,680.0745993947494,None,680.0745993947494,None,680.0745993947494,None,684.076231318526,None,684.076231318526,None,684.076231318526,None,684.076231318526,None,684.076231318526,None,684.076231318526,None,684.076231318526,None,685.059919440595,None,,,,,,,,,,,,,,,,,,,,,,,,,,,,,,,23732,2019_Oct_09_1734,Mmi_3levels,3.1.5,59.95921047158436,
,,,2,0,0.7,,,,,,,,,0,1,1,1,0,11,11,4,,,,,,,,,,,,,,,,,,,,,,,,,,,,,,,,,,,,,,,,,,,,,,,,,,,,,,,,,,,False,True,False,0.52,0.52,6.179999999999998,-13.459999999999997,0.7,-12.759999999999998,-6.029999999999999,gamble,lose,-12.759999999999998,19.136666666666677,687.0773525460972,None,687.0773525460972,None,687.0773525460972,None,687.0773525460972,None,687.0773525460972,None,687.0773525460972,None,687.0773525460972,None,1,1.8175986018031836,687.0773525460972,None,688.9280116833397,None,688.9280116833397,None,688.9280116833397,None,688.9280116833397,None,688.9280116833397,None,688.9280116833397,None,688.9280116833397,None,692.9296413671691,None,692.9296413671691,None,692.9296413671691,None,692.9296413671691,None,692.9296413671691,None,692.9296413671691,None,692.9296413671691,None,702.4166586137144,None,693.9133550880942,None,694.9137438699254,None,0.48,7.502764990844298,697.9148452584632,None,None,697.9148452584632,None,,,,,,,,,,,,,,,,,,,,23732,2019_Oct_09_1734,Mmi_3levels,3.1.5,59.95921047158436,
,,,2,0,8.3,,,,,,,,,0,1,1,1,0,12,12,23,,,,,,,,,,,,,,,,,,,,,,,,,,,,,,,,,,,,,,,,,,,,,,,,,,,,,,,,,,,False,True,True,0.48,0.48,6.659999999999998,-13.379999999999999,8.3,-5.079999999999998,1.6100000000000012,gamble,lose,-5.079999999999998,14.056666666666679,704.4341096384451,None,704.4341096384451,None,704.4341096384451,None,704.4341096384451,None,704.4341096384451,None,704.4341096384451,None,704.4341096384451,None,1,1.7509297165670432,704.4341096384451,None,706.2181306089624,None,706.2181306089624,None,706.2181306089624,None,706.2181306089624,None,706.2181306089624,None,706.2181306089624,None,706.2181306089624,None,710.2030097154202,None,710.2030097154202,None,710.2030097154202,None,710.2030097154202,None,710.2030097154202,None,710.2030097154202,None,710.2030097154202,None,711.2033975372906,None,,,,,,,,,,,,,,,,,,,,,,,,,,,,,,,23732,2019_Oct_09_1734,Mmi_3levels,3.1.5,59.95921047158436,
,,,2,0,-0.5,,,,,,,,,0,1,1,1,0,13,13,16,,,,,,,,,,,,,,,,,,,,,,,,,,,,,,,,,,,,,,,,,,,,,,,,,,,,,,,,,,,False,True,False,0.48,0.48,7.139999999999999,-13.86,-0.5,-14.36,-7.43,gamble,lose,-14.36,-0.30333333333332035,713.2207944844849,None,713.2207944844849,None,713.2207944844849,None,713.2207944844849,None,713.2207944844849,None,713.2207944844849,None,713.2207944844849,None,1,1.4676123931421898,713.2207944844849,None,714.7214283748763,None,714.7214283748763,None,714.7214283748763,None,714.7214283748763,None,714.7214283748763,None,714.7214283748763,None,714.7214283748763,None,718.7229953416972,None,718.7229953416972,None,718.7229953416972,None,718.7229953416972,None,718.7229953416972,None,718.7229953416972,None,718.7229953416972,None,728.2100013887393,None,719.706691143394,None,720.7070853650221,None,0.49,7.50282226811396,723.7082401910448,None,None,723.7082401910448,None,,,,,,,,,,,,,,,,,,,,23732,2019_Oct_09_1734,Mmi_3levels,3.1.5,59.95921047158436,
,,,2,0,0.9,,,,,,,,,0,1,1,1,0,14,14,2,,,,,,,,,,,,,,,,,,,,,,,,,,,,,,,,,,,,,,,,,,,,,,,,,,,,,,,,,,,False,False,True,0.49,0.49,7.629999999999999,2.350833333333333,0.225,-2.125833333333333,-0.9504166666666665,gamble,win,0.225,-0.07833333333332035,730.2274482536595,None,730.2274482536595,None,730.2274482536595,None,730.2274482536595,None,730.2274482536595,None,730.2274482536595,None,730.2274482536595,None,1,1.4673224867437966,730.2274482536595,None,731.7280219868408,None,731.7280219868408,None,731.7280219868408,None,731.7280219868408,None,731.7280219868408,None,731.7280219868408,None,731.7280219868408,None,735.7295883136685,None,735.7295883136685,None,735.7295883136685,None,735.7295883136685,None,735.7295883136685,None,735.7295883136685,None,735.7295883136685,None,736.7133020345354,None,,,,,,,,,,,,,,,,,,,,,,,,,,,,,,,23732,2019_Oct_09_1734,Mmi_3levels,3.1.5,59.95921047158436,
,,,2,0,1.9,,,,,,,,,0,1,1,1,0,15,15,26,,,,,,,,,,,,,,,,,,,,,,,,,,,,,,,,,,,,,,,,,,,,,,,,,,,,,,,,,,,False,True,False,0.49,0.49,8.12,-14.979999999999999,1.9,-13.079999999999998,-5.589999999999999,gamble,lose,-13.079999999999998,-13.158333333333319,738.7307373799849,None,738.7307373799849,None,738.7307373799849,None,738.7307373799849,None,738.7307373799849,None,738.7307373799849,None,738.7307373799849,None,1,1.2173364059999585,738.7307373799849,None,739.9811842390918,None,739.9811842390918,None,739.9811842390918,None,739.9811842390918,None,739.9811842390918,None,739.9811842390918,None,739.9811842390918,None,743.9827409663703,None,743.9827409663703,None,743.9827409663703,None,743.9827409663703,None,743.9827409663703,None,743.9827409663703,None,743.9827409663703,None,753.4698036508053,None,744.9665026850416,None,745.9668908268795,None,0.47,7.502844347152859,748.9679886956001,None,None,748.9679886956001,None,,,,,,,,,,,,,,,,,,,,23732,2019_Oct_09_1734,Mmi_3levels,3.1.5,59.95921047158436,
,,,2,0,7.7,,,,,,,,,0,1,1,1,0,16,16,10,,,,,,,,,,,,,,,,,,,,,,,,,,,,,,,,,,,,,,,,,,,,,,,,,,,,,,,,,,,False,False,True,0.47,0.47,8.59,2.3608333333333333,1.925,-0.4358333333333333,0.7445833333333334,certain,certain,0.7445833333333334,-12.413749999999986,755.4872540355427,None,755.4872540355427,None,755.4872540355427,None,755.4872540355427,None,755.4872540355427,None,755.4872540355427,None,755.4872540355427,None,3,1.6508230335311964,755.4872540355427,None,757.1711680030567,None,757.1711680030567,None,757.1711680030567,None,757.1711680030567,None,757.1711680030567,None,757.1711680030567,None,757.1711680030567,None,761.1727407295839,None,761.1727407295839,None,761.1727407295839,None,761.1727407295839,None,761.1727407295839,None,761.1727407295839,None,761.1727407295839,None,762.1564570103656,None,,,,,,,,,,,,,,,,,,,,,,,,,,,,,,,23732,2019_Oct_09_1734,Mmi_3levels,3.1.5,59.95921047158436,
,,,2,0,10.5,,,,,,,,,0,1,1,1,0,17,17,21,,,,,,,,,,,,,,,,,,,,,,,,,,,,,,,,,,,,,,,,,,,,,,,,,,,,,,,,,,,False,True,True,0.47,0.47,9.06,-15.64,10.5,-5.140000000000001,-2.5700000000000003,gamble,lose,-5.140000000000001,-17.553749999999987,764.1739016353386,None,764.1739016353386,None,764.1739016353386,None,764.1739016353386,None,764.1739016353386,None,764.1739016353386,None,764.1739016353386,None,1,1.3174245299305767,764.1739016353386,None,765.5244551774813,None,765.5244551774813,None,765.5244551774813,None,765.5244551774813,None,765.5244551774813,None,765.5244551774813,None,765.5244551774813,None,769.526025984087,None,769.526025984087,None,769.526025984087,None,769.526025984087,None,769.526025984087,None,769.526025984087,None,769.526025984087,None,770.5097525044112,None,,,,,,,,,,,,,,,,,,,,,,,,,,,,,,,23732,2019_Oct_09_1734,Mmi_3levels,3.1.5,59.95921047158436,
,,,2,0,-0.9,,,,,,,,,0,1,1,1,0,18,18,19,,,,,,,,,,,,,,,,,,,,,,,,,,,,,,,,,,,,,,,,,,,,,,,,,,,,,,,,,,,False,True,True,0.47,0.47,9.530000000000001,-16.11,-0.9,-17.009999999999998,-8.954999999999998,gamble,lose,-17.009999999999998,-34.563749999999985,772.5271897697239,None,772.5271897697239,None,772.5271897697239,None,772.5271897697239,None,772.5271897697239,None,772.5271897697239,None,772.5271897697239,None,None,,772.5271897697239,None,775.5283311564126,None,775.5283311564126,None,775.5283311564126,None,775.5283311564126,None,775.5283311564126,None,775.5283311564126,None,775.5283311564126,None,779.5299160423456,None,779.5299160423456,None,779.5299160423456,None,779.5299160423456,None,779.5299160423456,None,779.5299160423456,None,779.5299160423456,None,789.0169345688191,None,780.5136028844863,None,781.5139670274802,None,0.44,7.502865466114599,784.5151688913465,None,None,784.5151688913465,None,,,,,,,,,,,,,,,,,,,,23732,2019_Oct_09_1734,Mmi_3levels,3.1.5,59.95921047158436,
,,,2,0,0.5,,,,,,,,,0,1,1,1,0,19,19,14,,,,,,,,,,,,,,,,,,,,,,,,,,,,,,,,,,,,,,,,,,,,,,,,,,,,,,,,,,,False,True,False,0.44,0.44,9.97,-16.130000000000003,0.5,-15.630000000000003,-7.565000000000001,gamble,lose,-15.630000000000003,-50.19374999999999,791.0343817537068,None,791.0343817537068,None,791.0343817537068,None,791.0343817537068,None,791.0343817537068,None,791.0343817537068,None,791.0343817537068,None,1,1.3340445534558967,791.0343817537068,None,792.4015517994994,None,792.4015517994994,None,792.4015517994994,None,792.4015517994994,None,792.4015517994994,None,792.4015517994994,None,792.4015517994994,None,796.4031405252754,None,796.4031405252754,None,796.4031405252754,None,796.4031405252754,None,796.4031405252754,None,796.4031405252754,None,796.4031405252754,None,797.3868065684219,None,,,,,,,,,,,,,,,,,,,,,,,,,,,,,,,23732,2019_Oct_09_1734,Mmi_3levels,3.1.5,59.95921047158436,
,,,2,0,7.3,,,,,,,,,0,1,1,1,0,20,20,3,,,,,,,,,,,,,,,,,,,,,,,,,,,,,,,,,,,,,,,,,,,,,,,,,,,,,,,,,,,False,False,False,0.44,0.44,10.41,2.4075,1.825,-0.5825000000000002,0.6212499999999999,certain,certain,0.6212499999999999,-49.57249999999999,799.4042617529049,None,799.4042617529049,None,799.4042617529049,None,799.4042617529049,None,799.4042617529049,None,799.4042617529049,None,799.4042617529049,None,3,1.2174612001981586,799.4042617529049,None,800.6547729290323,None,800.6547729290323,None,800.6547729290323,None,800.6547729290323,None,800.6547729290323,None,800.6547729290323,None,800.6547729290323,None,804.6396110773785,None,804.6396110773785,None,804.6396110773785,None,804.6396110773785,None,804.6396110773785,None,804.6396110773785,None,804.6396110773785,None,814.1433539425489,None,805.6400139385951,None,806.6404116799822,None,0.44,7.502794109459501,809.6415815453511,None,None,809.6415815453511,None,,,,,,,,,,,,,,,,,,,,23732,2019_Oct_09_1734,Mmi_3levels,3.1.5,59.95921047158436,
,,,2,0,9.3,,,,,,,,,0,1,1,1,0,21,21,7,,,,,,,,,,,,,,,,,,,,,,,,,,,,,,,,,,,,,,,,,,,,,,,,,,,,,,,,,,,False,True,False,0.44,0.44,10.85,-17.009999999999998,9.3,-7.709999999999997,0.7950000000000017,gamble,lose,-7.709999999999997,-57.282499999999985,816.1608635244775,None,816.1608635244775,None,816.1608635244775,None,816.1608635244775,None,816.1608635244775,None,816.1608635244775,None,816.1608635244775,None,1,1.617468431883026,816.1608635244775,None,817.8114408095134,None,817.8114408095134,None,817.8114408095134,None,817.8114408095134,None,817.8114408095134,None,817.8114408095134,None,817.8114408095134,None,821.7962927172193,None,821.7962927172193,None,821.7962927172193,None,821.7962927172193,None,821.7962927172193,None,821.7962927172193,None,821.7962927172193,None,822.7966568602133,None,,,,,,,,,,,,,,,,,,,,,,,,,,,,,,,23732,2019_Oct_09_1734,Mmi_3levels,3.1.5,59.95921047158436,
,,,2,0,6.9,,,,,,,,,0,1,1,1,0,22,22,8,,,,,,,,,,,,,,,,,,,,,,,,,,,,,,,,,,,,,,,,,,,,,,,,,,,,,,,,,,,False,False,False,0.44,0.44,11.29,2.4808333333333334,1.725,-0.7558333333333334,0.48458333333333337,certain,certain,0.48458333333333337,-56.79791666666665,824.8141811614623,None,824.8141811614623,None,824.8141811614623,None,824.8141811614623,None,824.8141811614623,None,824.8141811614623,None,824.8141811614623,None,3,1.3673815559013747,824.8141811614623,None,826.2146526914439,None,826.2146526914439,None,826.2146526914439,None,826.2146526914439,None,826.2146526914439,None,826.2146526914439,None,826.2146526914439,None,830.216297094652,None,830.216297094652,None,830.216297094652,None,830.216297094652,None,830.216297094652,None,830.216297094652,None,830.216297094652,None,839.7032010664698,None,831.1999224996543,None,832.2003535195254,None,0.53,7.502765950805042,835.2015089855413,None,None,835.2015089855413,None,,,,,,,,,,,,,,,,,,,,23732,2019_Oct_09_1734,Mmi_3levels,3.1.5,59.95921047158436,
,,,2,0,12.9,,,,,,,,,0,1,1,1,0,23,23,12,,,,,,,,,,,,,,,,,,,,,,,,,,,,,,,,,,,,,,,,,,,,,,,,,,,,,,,,,,,False,True,True,0.53,0.53,11.819999999999999,-19.24,12.9,-6.339999999999998,-3.169999999999999,gamble,lose,-6.339999999999998,-63.13791666666665,841.7207212079084,None,841.7207212079084,None,841.7207212079084,None,841.7207212079084,None,841.7207212079084,None,841.7207212079084,None,841.7207212079084,None,1,1.1839754047105089,841.7207212079084,None,842.9378163452493,None,842.9378163452493,None,842.9378163452493,None,842.9378163452493,None,842.9378163452493,None,842.9378163452493,None,842.9378163452493,None,846.9394133906462,None,846.9394133906462,None,846.9394133906462,None,846.9394133906462,None,846.9394133906462,None,846.9394133906462,None,846.9394133906462,None,847.9230778338388,None,,,,,,,,,,,,,,,,,,,,,,,,,,,,,,,23732,2019_Oct_09_1734,Mmi_3levels,3.1.5,59.95921047158436,
,,,2,0,2.7,,,,,,,,,0,1,1,1,0,24,24,24,,,,,,,,,,,,,,,,,,,,,,,,,,,,,,,,,,,,,,,,,,,,,,,,,,,,,,,,,,,False,True,False,0.53,0.53,12.349999999999998,-19.769999999999996,2.7,-17.069999999999997,-7.184999999999999,gamble,lose,-17.069999999999997,-80.20791666666665,849.940520858916,None,849.940520858916,None,849.940520858916,None,849.940520858916,None,849.940520858916,None,849.940520858916,None,849.940520858916,None,1,1.234110982331913,849.940520858916,None,851.2077515738783,None,851.2077515738783,None,851.2077515738783,None,851.2077515738783,None,851.2077515738783,None,851.2077515738783,None,851.2077515738783,None,855.2092391843908,None,855.2092391843908,None,855.2092391843908,None,855.2092391843908,None,855.2092391843908,None,855.2092391843908,None,855.2092391843908,None,856.1930041028536,None,,,,,,,,,,,,,,,,,,,,,,,,,,,,,,,23732,2019_Oct_09_1734,Mmi_3levels,3.1.5,59.95921047158436,
,,,2,0,13.5,,,,,,,,,0,1,1,1,0,25,25,20,,,,,,,,,,,,,,,,,,,,,,,,,,,,,,,,,,,,,,,,,,,,,,,,,,,,,,,,,,,False,True,False,0.53,0.53,12.879999999999997,-20.299999999999997,13.5,-6.799999999999997,-3.3999999999999986,gamble,lose,-6.799999999999997,-87.00791666666665,858.2104004101129,None,858.2104004101129,None,858.2104004101129,None,858.2104004101129,None,858.2104004101129,None,858.2104004101129,None,858.2104004101129,None,1,1.217452880635392,858.2104004101129,None,859.4609435847378,None,859.4609435847378,None,859.4609435847378,None,859.4609435847378,None,859.4609435847378,None,859.4609435847378,None,859.4609435847378,None,863.4624628737802,None,863.4624628737802,None,863.4624628737802,None,863.4624628737802,None,863.4624628737802,None,863.4624628737802,None,863.4624628737802,None,872.9495057191234,None,864.4461938738241,None,865.4465848956024,None,0.42,7.502825787989423,868.4477666003513,None,None,868.4477666003513,None,,,,,,,,,,,,,,,,,,,,23732,2019_Oct_09_1734,Mmi_3levels,3.1.5,59.95921047158436,
,,,2,0,9.5,,,,,,,,,0,1,1,1,0,26,26,6,,,,,,,,,,,,,,,,,,,,,,,,,,,,,,,,,,,,,,,,,,,,,,,,,,,,,,,,,,,False,True,True,0.42,0.42,13.299999999999997,-19.179999999999996,9.5,-9.679999999999996,-0.08999999999999808,gamble,lose,-9.679999999999996,-96.68791666666664,874.9669061861932,None,874.9669061861932,None,874.9669061861932,None,874.9669061861932,None,874.9669061861932,None,874.9669061861932,None,874.9669061861932,None,1,1.7676546951988712,874.9669061861932,None,876.7676550151664,None,876.7676550151664,None,876.7676550151664,None,876.7676550151664,None,876.7676550151664,None,876.7676550151664,None,876.7676550151664,None,880.7691375059076,None,880.7691375059076,None,880.7691375059076,None,880.7691375059076,None,880.7691375059076,None,880.7691375059076,None,880.7691375059076,None,881.7528691460029,None,,,,,,,,,,,,,,,,,,,,,,,,,,,,,,,23732,2019_Oct_09_1734,Mmi_3levels,3.1.5,59.95921047158436,
,,,3,1,11.7,,,,,,,,,0,2,2,2,0,0,0,21,,,,,,,,,,,,,,,,,,,,,,,,,,,,,,,,,,,,,,,,,,,,,,,,946.0445409590611,None,0.45,7.502010146097746,949.0623138887458,None,None,949.0623138887458,None,953.547381466371,None,True,True,False,0.45,-0.55,-0.55,8.250000000000002,11.7,3.4499999999999975,1.7249999999999988,gamble,win,11.7,-84.98791666666664,956.5819468914415,None,956.5819468914415,None,956.5819468914415,None,956.5819468914415,None,956.5819468914415,None,956.5819468914415,None,956.5819468914415,None,1,1.2507665241719224,956.5819468914415,None,957.8657464323333,None,957.8657464323333,None,957.8657464323333,None,957.8657464323333,None,957.8657464323333,None,957.8657464323333,None,957.8657464323333,None,961.8672989998013,None,961.8672989998013,None,961.8672989998013,None,961.8672989998013,None,961.8672989998013,None,961.8672989998013,None,961.8672989998013,None,971.3543636041577,None,962.8510504789301,None,963.8514008625643,None,0.51,7.502820028283168,966.8525803274824,None,None,966.8525803274824,None,883.7536963073653,None,4,62.27440573979402,883.7536963073653,None,,,,,,,,,,,,,,23732,2019_Oct_09_1734,Mmi_3levels,3.1.5,59.95921047158436,
,,,3,1,-0.7,,,,,,,,,0,2,2,2,0,1,1,17,,,,,,,,,,,,,,,,,,,,,,,,,,,,,,,,,,,,,,,,,,,,,,,,,,,,,,,,,,,True,False,False,0.51,-0.49,-1.04,-1.8016666666666665,-0.7,-2.5016666666666665,-1.600833333333333,gamble,lose,-2.5016666666666665,-87.4895833333333,973.3718165487517,None,973.3718165487517,None,973.3718165487517,None,973.3718165487517,None,973.3718165487517,None,973.3718165487517,None,973.3718165487517,None,1,1.4508144579594955,973.3718165487517,None,974.8557264204719,None,974.8557264204719,None,974.8557264204719,None,974.8557264204719,None,974.8557264204719,None,974.8557264204719,None,974.8557264204719,None,978.8572501892922,None,978.8572501892922,None,978.8572501892922,None,978.8572501892922,None,978.8572501892922,None,978.8572501892922,None,978.8572501892922,None,979.8409898289829,None,,,,,,,,,,,,,,,,,,,,,,,,,,,,,,,23732,2019_Oct_09_1734,Mmi_3levels,3.1.5,59.95921047158436,
,,,3,1,7.3,,,,,,,,,0,2,2,2,0,2,2,7,,,,,,,,,,,,,,,,,,,,,,,,,,,,,,,,,,,,,,,,,,,,,,,,,,,,,,,,,,,True,True,True,0.51,-0.49,-1.53,8.389999999999999,7.3,-1.089999999999999,-0.5449999999999995,gamble,win,7.3,-80.1895833333333,981.8583918959484,None,981.8583918959484,None,981.8583918959484,None,981.8583918959484,None,981.8583918959484,None,981.8583918959484,None,981.8583918959484,None,1,1.034040329628624,981.8583918959484,None,982.9254732418922,None,982.9254732418922,None,982.9254732418922,None,982.9254732418922,None,982.9254732418922,None,982.9254732418922,None,982.9254732418922,None,986.9104025860433,None,986.9104025860433,None,986.9104025860433,None,986.9104025860433,None,986.9104025860433,None,986.9104025860433,None,986.9104025860433,None,987.9107398502529,None,,,,,,,,,,,,,,,,,,,,,,,,,,,,,,,23732,2019_Oct_09_1734,Mmi_3levels,3.1.5,59.95921047158436,
,,,3,1,-1.3,,,,,,,,,0,2,2,2,0,3,3,19,,,,,,,,,,,,,,,,,,,,,,,,,,,,,,,,,,,,,,,,,,,,,,,,,,,,,,,,,,,True,True,False,0.51,-0.49,-2.02,8.879999999999999,-1.3,-10.18,-5.74,gamble,win,-1.3,-81.4895833333333,989.9282427125145,None,989.9282427125145,None,989.9282427125145,None,989.9282427125145,None,989.9282427125145,None,989.9282427125145,None,989.9282427125145,None,1,1.5007759637082927,989.9282427125145,None,991.4621403288329,None,991.4621403288329,None,991.4621403288329,None,991.4621403288329,None,991.4621403288329,None,991.4621403288329,None,991.4621403288329,None,995.4637248947984,None,995.4637248947984,None,995.4637248947984,None,995.4637248947984,None,995.4637248947984,None,995.4637248947984,None,995.4637248947984,None,1004.9506851840415,None,996.4474213364883,None,997.4478552362416,None,0.52,7.502528841840103,1000.4489412654657,None,None,1000.4489412654657,None,,,,,,,,,,,,,,,,,,,,23732,2019_Oct_09_1734,Mmi_3levels,3.1.5,59.95921047158436,
,,,3,1,-0.9,,,,,,,,,0,2,2,2,0,4,4,10,,,,,,,,,,,,,,,,,,,,,,,,,,,,,,,,,,,,,,,,,,,,,,,,,,,,,,,,,,,True,True,False,0.52,-0.48,-2.5,9.219999999999999,-0.9,-10.12,-5.51,gamble,win,-0.9,-82.3895833333333,1006.9681336487993,None,1006.9681336487993,None,1006.9681336487993,None,1006.9681336487993,None,1006.9681336487993,None,1006.9681336487993,None,1006.9681336487993,None,1,1.100495784834493,1006.9681336487993,None,1008.1019059589598,None,1008.1019059589598,None,1008.1019059589598,None,1008.1019059589598,None,1008.1019059589598,None,1008.1019059589598,None,1008.1019059589598,None,1012.10351420386,None,1012.10351420386,None,1012.10351420386,None,1012.10351420386,None,1012.10351420386,None,1012.10351420386,None,1012.10351420386,None,1013.0871908064582,None,,,,,,,,,,,,,,,,,,,,,,,,,,,,,,,23732,2019_Oct_09_1734,Mmi_3levels,3.1.5,59.95921047158436,
,,,3,1,7.1,,,,,,,,,0,2,2,2,0,5,5,3,,,,,,,,,,,,,,,,,,,,,,,,,,,,,,,,,,,,,,,,,,,,,,,,,,,,,,,,,,,True,True,False,0.52,-0.48,-2.98,9.7,7.1,-2.5999999999999996,-1.2999999999999998,gamble,win,7.1,-75.28958333333331,1015.1046239120187,None,1015.1046239120187,None,1015.1046239120187,None,1015.1046239120187,None,1015.1046239120187,None,1015.1046239120187,None,1015.1046239120187,None,1,1.434324348345399,1015.1046239120187,None,1016.5719191999524,None,1016.5719191999524,None,1016.5719191999524,None,1016.5719191999524,None,1016.5719191999524,None,1016.5719191999524,None,1016.5719191999524,None,1020.5567423090106,None,1020.5567423090106,None,1020.5567423090106,None,1020.5567423090106,None,1020.5567423090106,None,1020.5567423090106,None,1020.5567423090106,None,1030.0604765345925,None,1021.557110611815,None,1022.5575720302877,None,0.52,7.502928823174443,1025.5586705389433,None,None,1025.5586705389433,None,,,,,,,,,,,,,,,,,,,,23732,2019_Oct_09_1734,Mmi_3levels,3.1.5,59.95921047158436,
,,,3,1,7.7,,,,,,,,,0,2,2,2,0,6,6,15,,,,,,,,,,,,,,,,,,,,,,,,,,,,,,,,,,,,,,,,,,,,,,,,,,,,,,,,,,,True,True,False,0.52,-0.48,-3.46,10.18,7.7,-2.4799999999999995,-1.2399999999999998,gamble,win,7.7,-67.58958333333331,1032.0778834013036,None,1032.0778834013036,None,1032.0778834013036,None,1032.0778834013036,None,1032.0778834013036,None,1032.0778834013036,None,1032.0778834013036,None,1,1.3008317051571794,1032.0778834013036,None,1033.4117794816848,None,1033.4117794816848,None,1033.4117794816848,None,1033.4117794816848,None,1033.4117794816848,None,1033.4117794816848,None,1033.4117794816848,None,1037.4133368489565,None,1037.4133368489565,None,1037.4133368489565,None,1037.4133368489565,None,1037.4133368489565,None,1037.4133368489565,None,1037.4133368489565,None,1038.3970595293795,None,,,,,,,,,,,,,,,,,,,,,,,,,,,,,,,23732,2019_Oct_09_1734,Mmi_3levels,3.1.5,59.95921047158436,
,,,3,1,11.5,,,,,,,,,0,2,2,2,0,7,7,8,,,,,,,,,,,,,,,,,,,,,,,,,,,,,,,,,,,,,,,,,,,,,,,,,,,,,,,,,,,True,True,True,0.52,-0.48,-3.94,10.66,11.5,0.8399999999999999,0.41999999999999993,gamble,win,11.5,-56.08958333333331,1040.414501594496,None,1040.414501594496,None,1040.414501594496,None,1040.414501594496,None,1040.414501594496,None,1040.414501594496,None,1040.414501594496,None,1,1.067323574621696,1040.414501594496,None,1041.514887944446,None,1041.514887944446,None,1041.514887944446,None,1041.514887944446,None,1041.514887944446,None,1041.514887944446,None,1041.514887944446,None,1045.4997478518053,None,1045.4997478518053,None,1045.4997478518053,None,1045.4997478518053,None,1045.4997478518053,None,1045.4997478518053,None,1045.4997478518053,None,1055.003439199354,None,1046.5001167945447,None,1047.500580772874,None,0.51,7.502708033483941,1050.5017339990009,None,None,1050.5017339990009,None,,,,,,,,,,,,,,,,,,,,23732,2019_Oct_09_1734,Mmi_3levels,3.1.5,59.95921047158436,
,,,3,1,10.9,,,,,,,,,0,2,2,2,0,8,8,0,,,,,,,,,,,,,,,,,,,,,,,,,,,,,,,,,,,,,,,,,,,,,,,,,,,,,,,,,,,True,True,True,0.51,-0.49,-4.43,11.29,10.9,-0.3899999999999988,-0.1949999999999994,gamble,win,10.9,-45.18958333333331,1057.020904943347,None,1057.020904943347,None,1057.020904943347,None,1057.020904943347,None,1057.020904943347,None,1057.020904943347,None,1057.020904943347,None,1,0.8505759410909377,1057.020904943347,None,1057.9045698984992,None,1057.9045698984992,None,1057.9045698984992,None,1057.9045698984992,None,1057.9045698984992,None,1057.9045698984992,None,1057.9045698984992,None,1061.9061711037066,None,1061.9061711037066,None,1061.9061711037066,None,1061.9061711037066,None,1061.9061711037066,None,1061.9061711037066,None,1061.9061711037066,None,1062.8898115480551,None,,,,,,,,,,,,,,,,,,,,,,,,,,,,,,,23732,2019_Oct_09_1734,Mmi_3levels,3.1.5,59.95921047158436,
,,,3,1,2.3,,,,,,,,,0,2,2,2,0,9,9,13,,,,,,,,,,,,,,,,,,,,,,,,,,,,,,,,,,,,,,,,,,,,,,,,,,,,,,,,,,,True,True,True,0.51,-0.49,-4.92,11.78,2.3,-9.48,-3.5900000000000003,gamble,win,2.3,-42.88958333333331,1064.9073336094152,None,1064.9073336094152,None,1064.9073336094152,None,1064.9073336094152,None,1064.9073336094152,None,1064.9073336094152,None,1064.9073336094152,None,1,1.1340766159119084,1064.9073336094152,None,1066.07440484385,None,1066.07440484385,None,1066.07440484385,None,1066.07440484385,None,1066.07440484385,None,1066.07440484385,None,1066.07440484385,None,1070.059286830132,None,1070.059286830132,None,1070.059286830132,None,1070.059286830132,None,1070.059286830132,None,1070.059286830132,None,1070.059286830132,None,1071.0596682523028,None,,,,,,,,,,,,,,,,,,,,,,,,,,,,,,,23732,2019_Oct_09_1734,Mmi_3levels,3.1.5,59.95921047158436,
,,,3,1,9.9,,,,,,,,,0,2,2,2,0,10,10,18,,,,,,,,,,,,,,,,,,,,,,,,,,,,,,,,,,,,,,,,,,,,,,,,,,,,,,,,,,,True,True,False,0.51,-0.49,-5.41,12.27,9.9,-2.369999999999999,-1.1849999999999996,gamble,win,9.9,-32.989583333333314,1073.077100077935,None,1073.077100077935,None,1073.077100077935,None,1073.077100077935,None,1073.077100077935,None,1073.077100077935,None,1073.077100077935,None,1,1.0507835473981686,1073.077100077935,None,1074.1609847988002,None,1074.1609847988002,None,1074.1609847988002,None,1074.1609847988002,None,1074.1609847988002,None,1074.1609847988002,None,1074.1609847988002,None,1078.1624772091163,None,1078.1624772091163,None,1078.1624772091163,None,1078.1624772091163,None,1078.1624772091163,None,1078.1624772091163,None,1078.1624772091163,None,1087.649467896903,None,1079.1461448521586,None,1080.14653043414,None,0.52,7.502791869570501,1083.147730058059,None,None,1083.147730058059,None,,,,,,,,,,,,,,,,,,,,23732,2019_Oct_09_1734,Mmi_3levels,3.1.5,59.95921047158436,
,,,3,1,12.5,,,,,,,,,0,2,2,2,0,11,11,23,,,,,,,,,,,,,,,,,,,,,,,,,,,,,,,,,,,,,,,,,,,,,,,,,,,,,,,,,,,True,True,True,0.52,-0.48,-5.890000000000001,12.61,12.5,-0.10999999999999943,-0.054999999999999716,gamble,win,12.5,-20.489583333333314,1089.6669269212289,None,1089.6669269212289,None,1089.6669269212289,None,1089.6669269212289,None,1089.6669269212289,None,1089.6669269212289,None,1089.6669269212289,None,1,2.0510414553573355,1089.6669269212289,None,1091.7510567506542,None,1091.7510567506542,None,1091.7510567506542,None,1091.7510567506542,None,1091.7510567506542,None,1091.7510567506542,None,1091.7510567506542,None,1095.7525619603111,None,1095.7525619603111,None,1095.7525619603111,None,1095.7525619603111,None,1095.7525619603111,None,1095.7525619603111,None,1095.7525619603111,None,1096.7363009600667,None,,,,,,,,,,,,,,,,,,,,,,,,,,,,,,,23732,2019_Oct_09_1734,Mmi_3levels,3.1.5,59.95921047158436,
,,,3,1,5.5,,,,,,,,,0,2,2,2,0,12,12,26,,,,,,,,,,,,,,,,,,,,,,,,,,,,,,,,,,,,,,,,,,,,,,,,,,,,,,,,,,,True,True,False,0.52,-0.48,-6.370000000000001,13.09,5.5,-7.59,-1.045,gamble,win,5.5,-14.989583333333314,1098.7537532646675,None,1098.7537532646675,None,1098.7537532646675,None,1098.7537532646675,None,1098.7537532646675,None,1098.7537532646675,None,1098.7537532646675,None,1,1.7842660790774971,1098.7537532646675,None,1100.5711217971984,None,1100.5711217971984,None,1100.5711217971984,None,1100.5711217971984,None,1100.5711217971984,None,1100.5711217971984,None,1100.5711217971984,None,1104.5726766045555,None,1104.5726766045555,None,1104.5726766045555,None,1104.5726766045555,None,1104.5726766045555,None,1104.5726766045555,None,1104.5726766045555,None,1114.0597456886899,None,1105.5564332034555,None,1106.5567787873442,None,0.51,7.502989620319568,1109.5579796911916,None,None,1109.5579796911916,None,,,,,,,,,,,,,,,,,,,,23732,2019_Oct_09_1734,Mmi_3levels,3.1.5,59.95921047158436,
,,,3,1,12.7,,,,,,,,,0,2,2,2,0,13,13,25,,,,,,,,,,,,,,,,,,,,,,,,,,,,,,,,,,,,,,,,,,,,,,,,,,,,,,,,,,,True,True,True,0.51,-0.49,-6.860000000000001,13.72,12.7,-1.0200000000000014,-0.5100000000000007,gamble,win,12.7,-2.289583333333315,1116.0771941535058,None,1116.0771941535058,None,1116.0771941535058,None,1116.0771941535058,None,1116.0771941535058,None,1116.0771941535058,None,1116.0771941535058,None,1,1.7509351563057862,1116.0771941535058,None,1117.8612231236766,None,1117.8612231236766,None,1117.8612231236766,None,1117.8612231236766,None,1117.8612231236766,None,1117.8612231236766,None,1117.8612231236766,None,1121.862768651452,None,1121.862768651452,None,1121.862768651452,None,1121.862768651452,None,1121.862768651452,None,1121.862768651452,None,1121.862768651452,None,1122.8464865321876,None,,,,,,,,,,,,,,,,,,,,,,,,,,,,,,,23732,2019_Oct_09_1734,Mmi_3levels,3.1.5,59.95921047158436,
,,,3,1,1.3,,,,,,,,,0,2,2,2,0,14,14,1,,,,,,,,,,,,,,,,,,,,,,,,,,,,,,,,,,,,,,,,,,,,,,,,,,,,,,,,,,,True,True,True,0.51,-0.49,-7.350000000000001,14.21,1.3,-12.91,-5.805,certain,certain,-5.805,-8.094583333333315,1124.863941396703,None,1124.863941396703,None,1124.863941396703,None,1124.863941396703,None,1124.863941396703,None,1124.863941396703,None,1124.863941396703,None,3,2.5345743846846744,1124.863941396703,None,1127.431609275227,None,1127.431609275227,None,1127.431609275227,None,1127.431609275227,None,1127.431609275227,None,1127.431609275227,None,1127.431609275227,None,1131.4331282443018,None,1131.4331282443018,None,1131.4331282443018,None,1131.4331282443018,None,1131.4331282443018,None,1131.4331282443018,None,1131.4331282443018,None,1132.416865964071,None,,,,,,,,,,,,,,,,,,,,,,,,,,,,,,,23732,2019_Oct_09_1734,Mmi_3levels,3.1.5,59.95921047158436,
,,,3,1,8.5,,,,,,,,,0,2,2,2,0,15,15,9,,,,,,,,,,,,,,,,,,,,,,,,,,,,,,,,,,,,,,,,,,,,,,,,,,,,,,,,,,,True,True,False,0.51,-0.49,-7.840000000000002,14.700000000000001,8.5,-6.200000000000001,1.1499999999999995,gamble,win,8.5,0.4054166666666852,1134.4342760306317,None,1134.4342760306317,None,1134.4342760306317,None,1134.4342760306317,None,1134.4342760306317,None,1134.4342760306317,None,1134.4342760306317,None,1,1.1671915487968363,1134.4342760306317,None,1135.634738665016,None,1135.634738665016,None,1135.634738665016,None,1135.634738665016,None,1135.634738665016,None,1135.634738665016,None,1135.634738665016,None,1139.6363360303803,None,1139.6363360303803,None,1139.6363360303803,None,1139.6363360303803,None,1139.6363360303803,None,1139.6363360303803,None,1139.6363360303803,None,1149.1233254382387,None,1140.620050071273,None,1141.6204398130649,None,0.51,7.502908024122007,1144.6215869594598,None,None,1144.6215869594598,None,,,,,,,,,,,,,,,,,,,,23732,2019_Oct_09_1734,Mmi_3levels,3.1.5,59.95921047158436,
,,,3,1,1.7,,,,,,,,,0,2,2,2,0,16,16,12,,,,,,,,,,,,,,,,,,,,,,,,,,,,,,,,,,,,,,,,,,,,,,,,,,,,,,,,,,,True,True,False,0.51,-0.49,-8.330000000000002,15.190000000000001,1.7,-13.490000000000002,-5.895000000000001,gamble,win,1.7,2.1054166666666854,1151.140799181885,None,1151.140799181885,None,1151.140799181885,None,1151.140799181885,None,1151.140799181885,None,1151.140799181885,None,1151.140799181885,None,1,1.284089127322659,1151.140799181885,None,1152.4579869228764,None,1152.4579869228764,None,1152.4579869228764,None,1152.4579869228764,None,1152.4579869228764,None,1152.4579869228764,None,1152.4579869228764,None,1156.4594738933956,None,1156.4594738933956,None,1156.4594738933956,None,1156.4594738933956,None,1156.4594738933956,None,1156.4594738933956,None,1156.4594738933956,None,1157.4432410518057,None,,,,,,,,,,,,,,,,,,,,,,,,,,,,,,,23732,2019_Oct_09_1734,Mmi_3levels,3.1.5,59.95921047158436,
,,,3,1,12.3,,,,,,,,,0,2,2,2,0,17,17,11,,,,,,,,,,,,,,,,,,,,,,,,,,,,,,,,,,,,,,,,,,,,,,,,,,,,,,,,,,,True,True,True,0.51,-0.49,-8.820000000000002,15.680000000000001,12.3,-3.380000000000001,-1.6900000000000004,gamble,win,12.3,14.405416666666685,1159.4606472785817,None,1159.4606472785817,None,1159.4606472785817,None,1159.4606472785817,None,1159.4606472785817,None,1159.4606472785817,None,1159.4606472785817,None,None,,1159.4606472785817,None,1162.4618107442511,None,1162.4618107442511,None,1162.4618107442511,None,1162.4618107442511,None,1162.4618107442511,None,1162.4618107442511,None,1162.4618107442511,None,1166.4633578719222,None,1166.4633578719222,None,1166.4633578719222,None,1166.4633578719222,None,1166.4633578719222,None,1166.4633578719222,None,1166.4633578719222,None,1175.9504317558603,None,1167.4470594333834,None,1168.4475016527576,None,0.52,7.5028216281789355,1171.4486699181725,None,None,1171.4486699181725,None,,,,,,,,,,,,,,,,,,,,23732,2019_Oct_09_1734,Mmi_3levels,3.1.5,59.95921047158436,
,,,3,1,6.7,,,,,,,,,0,2,2,2,0,18,18,4,,,,,,,,,,,,,,,,,,,,,,,,,,,,,,,,,,,,,,,,,,,,,,,,,,,,,,,,,,,True,True,True,0.52,-0.48,-9.300000000000002,16.020000000000003,6.7,-9.320000000000004,-1.3100000000000018,gamble,win,6.7,21.105416666666684,1177.9678779807873,None,1177.9678779807873,None,1177.9678779807873,None,1177.9678779807873,None,1177.9678779807873,None,1177.9678779807873,None,1177.9678779807873,None,1,1.3840956550557166,1177.9678779807873,None,1179.3850933684735,None,1179.3850933684735,None,1179.3850933684735,None,1179.3850933684735,None,1179.3850933684735,None,1179.3850933684735,None,1179.3850933684735,None,1183.3866494557587,None,1183.3866494557587,None,1183.3866494557587,None,1183.3866494557587,None,1183.3866494557587,None,1183.3866494557587,None,1183.3866494557587,None,1184.370346537442,None,,,,,,,,,,,,,,,,,,,,,,,,,,,,,,,23732,2019_Oct_09_1734,Mmi_3levels,3.1.5,59.95921047158436,
,,,3,1,8.3,,,,,,,,,0,2,2,2,0,19,19,2,,,,,,,,,,,,,,,,,,,,,,,,,,,,,,,,,,,,,,,,,,,,,,,,,,,,,,,,,,,True,True,False,0.52,-0.48,-9.780000000000003,16.500000000000004,8.3,-8.200000000000003,0.049999999999998934,certain,certain,0.049999999999998934,21.15541666666668,1186.387806201703,None,1186.387806201703,None,1186.387806201703,None,1186.387806201703,None,1186.387806201703,None,1186.387806201703,None,1186.387806201703,None,3,1.5008447605650872,1186.387806201703,None,1187.9217412562575,None,1187.9217412562575,None,1187.9217412562575,None,1187.9217412562575,None,1187.9217412562575,None,1187.9217412562575,None,1187.9217412562575,None,1191.9066200427478,None,1191.9066200427478,None,1191.9066200427478,None,1191.9066200427478,None,1191.9066200427478,None,1191.9066200427478,None,1191.9066200427478,None,1201.410253792943,None,1192.90699602518,None,1193.9073969664169,None,0.53,7.502748991595581,1196.9085345133208,None,None,1196.9085345133208,None,,,,,,,,,,,,,,,,,,,,23732,2019_Oct_09_1734,Mmi_3levels,3.1.5,59.95921047158436,
,,,3,1,1.9,,,,,,,,,0,2,2,2,0,20,20,20,,,,,,,,,,,,,,,,,,,,,,,,,,,,,,,,,,,,,,,,,,,,,,,,,,,,,,,,,,,True,True,True,0.53,-0.47,-10.250000000000004,16.830000000000005,1.9,-14.930000000000005,-6.515000000000002,gamble,win,1.9,23.05541666666668,1203.4277544153156,None,1203.4277544153156,None,1203.4277544153156,None,1203.4277544153156,None,1203.4277544153156,None,1203.4277544153156,None,1203.4277544153156,None,1,1.3674618721706793,1203.4277544153156,None,1204.828317141044,None,1204.828317141044,None,1204.828317141044,None,1204.828317141044,None,1204.828317141044,None,1204.828317141044,None,1204.828317141044,None,1208.8298540292308,None,1208.8298540292308,None,1208.8298540292308,None,1208.8298540292308,None,1208.8298540292308,None,1208.8298540292308,None,1208.8298540292308,None,1209.813611908059,None,,,,,,,,,,,,,,,,,,,,,,,,,,,,,,,23732,2019_Oct_09_1734,Mmi_3levels,3.1.5,59.95921047158436,
,,,3,1,-1.1,,,,,,,,,0,2,2,2,0,21,21,14,,,,,,,,,,,,,,,,,,,,,,,,,,,,,,,,,,,,,,,,,,,,,,,,,,,,,,,,,,,True,False,False,0.53,-0.47,-10.720000000000004,-2.5383333333333336,-1.1,-3.6383333333333336,-2.3691666666666666,gamble,lose,-3.6383333333333336,19.417083333333345,1211.8309643773828,None,1211.8309643773828,None,1211.8309643773828,None,1211.8309643773828,None,1211.8309643773828,None,1211.8309643773828,None,1211.8309643773828,None,1,2.617999927024357,1211.8309643773828,None,1214.4820369992522,None,1214.4820369992522,None,1214.4820369992522,None,1214.4820369992522,None,1214.4820369992522,None,1214.4820369992522,None,1214.4820369992522,None,1218.4835434888955,None,1218.4835434888955,None,1218.4835434888955,None,1218.4835434888955,None,1218.4835434888955,None,1218.4835434888955,None,1218.4835434888955,None,1219.4672872883384,None,,,,,,,,,,,,,,,,,,,,,,,,,,,,,,,23732,2019_Oct_09_1734,Mmi_3levels,3.1.5,59.95921047158436,
,,,3,1,10.1,,,,,,,,,0,2,2,2,0,22,22,16,,,,,,,,,,,,,,,,,,,,,,,,,,,,,,,,,,,,,,,,,,,,,,,,,,,,,,,,,,,True,True,True,0.53,-0.47,-11.190000000000005,17.770000000000003,10.1,-7.6700000000000035,1.214999999999998,gamble,win,10.1,29.517083333333346,1221.4847690316383,None,1221.4847690316383,None,1221.4847690316383,None,1221.4847690316383,None,1221.4847690316383,None,1221.4847690316383,None,1221.4847690316383,None,1,1.2840683283284307,1221.4847690316383,None,1222.8019266939955,None,1222.8019266939955,None,1222.8019266939955,None,1222.8019266939955,None,1222.8019266939955,None,1222.8019266939955,None,1222.8019266939955,None,1226.8034987805877,None,1226.8034987805877,None,1226.8034987805877,None,1226.8034987805877,None,1226.8034987805877,None,1226.8034987805877,None,1226.8034987805877,None,1236.2905112273293,None,1227.7871341051068,None,1228.7875628850888,None,0.53,7.5028913848800585,1231.7887327504577,None,None,1231.7887327504577,None,,,,,,,,,,,,,,,,,,,,23732,2019_Oct_09_1734,Mmi_3levels,3.1.5,59.95921047158436,
,,,3,1,6.1,,,,,,,,,0,2,2,2,0,23,23,5,,,,,,,,,,,,,,,,,,,,,,,,,,,,,,,,,,,,,,,,,,,,,,,,,,,,,,,,,,,True,True,False,0.53,-0.47,-11.660000000000005,18.240000000000006,6.1,-12.140000000000006,-3.020000000000003,gamble,win,6.1,35.61708333333335,1238.3079619320342,None,1238.3079619320342,None,1238.3079619320342,None,1238.3079619320342,None,1238.3079619320342,None,1238.3079619320342,None,1238.3079619320342,None,1,1.3674205941497348,1238.3079619320342,None,1239.708504178736,None,1239.708504178736,None,1239.708504178736,None,1239.708504178736,None,1239.708504178736,None,1239.708504178736,None,1239.708504178736,None,1243.710008428432,None,1243.710008428432,None,1243.710008428432,None,1243.710008428432,None,1243.710008428432,None,1243.710008428432,None,1243.710008428432,None,1244.6936978304875,None,,,,,,,,,,,,,,,,,,,,,,,,,,,,,,,23732,2019_Oct_09_1734,Mmi_3levels,3.1.5,59.95921047158436,
,,,3,1,0.7,,,,,,,,,0,2,2,2,0,24,24,6,,,,,,,,,,,,,,,,,,,,,,,,,,,,,,,,,,,,,,,,,,,,,,,,,,,,,,,,,,,True,False,False,0.53,-0.47,-12.130000000000006,-2.6558333333333337,0.7,-1.9558333333333338,-0.6279166666666669,gamble,lose,-1.9558333333333338,33.66125000000002,1246.711172214069,None,1246.711172214069,None,1246.711172214069,None,1246.711172214069,None,1246.711172214069,None,1246.711172214069,None,1246.711172214069,None,1,1.7676156570087187,1246.711172214069,None,1248.5119312825846,None,1248.5119312825846,None,1248.5119312825846,None,1248.5119312825846,None,1248.5119312825846,None,1248.5119312825846,None,1248.5119312825846,None,1252.5134057737305,None,1252.5134057737305,None,1252.5134057737305,None,1252.5134057737305,None,1252.5134057737305,None,1252.5134057737305,None,1252.5134057737305,None,1262.0004345397465,None,1253.4971863714745,None,1254.4975786731811,None,0.53,7.5029425825341605,1257.4986778217717,None,None,1257.4986778217717,None,,,,,,,,,,,,,,,,,,,,23732,2019_Oct_09_1734,Mmi_3levels,3.1.5,59.95921047158436,
,,,3,1,13.5,,,,,,,,,0,2,2,2,0,25,25,24,,,,,,,,,,,,,,,,,,,,,,,,,,,,,,,,,,,,,,,,,,,,,,,,,,,,,,,,,,,True,True,True,0.53,-0.47,-12.600000000000007,19.180000000000007,13.5,-5.680000000000007,-2.8400000000000034,gamble,win,13.5,47.16125000000002,1264.0179358020541,None,1264.0179358020541,None,1264.0179358020541,None,1264.0179358020541,None,1264.0179358020541,None,1264.0179358020541,None,1264.0179358020541,None,1,2.901178056956269,1264.0179358020541,None,1266.952383344702,None,1266.952383344702,None,1266.952383344702,None,1266.952383344702,None,1266.952383344702,None,1266.952383344702,None,1266.952383344702,None,1270.9538911142154,None,1270.9538911142154,None,1270.9538911142154,None,1270.9538911142154,None,1270.9538911142154,None,1270.9538911142154,None,1270.9538911142154,None,1271.937626274128,None,,,,,,,,,,,,,,,,,,,,,,,,,,,,,,,23732,2019_Oct_09_1734,Mmi_3levels,3.1.5,59.95921047158436,
,,,3,1,10.5,,,,,,,,,0,2,2,2,0,26,26,22,,,,,,,,,,,,,,,,,,,,,,,,,,,,,,,,,,,,,,,,,,,,,,,,,,,,,,,,,,,True,True,False,0.53,-0.47,-13.070000000000007,19.650000000000006,10.5,-9.150000000000006,0.6749999999999972,gamble,win,10.5,57.66125000000002,1273.9550971378922,None,1273.9550971378922,None,1273.9550971378922,None,1273.9550971378922,None,1273.9550971378922,None,1273.9550971378922,None,1273.9550971378922,None,1,1.017466703953687,1273.9550971378922,None,1275.005532541545,None,1275.005532541545,None,1275.005532541545,None,1275.005532541545,None,1275.005532541545,None,1275.005532541545,None,1275.005532541545,None,1279.0070879888954,None,1279.0070879888954,None,1279.0070879888954,None,1279.0070879888954,None,1279.0070879888954,None,1279.0070879888954,None,1279.0070879888954,None,1288.4941061954014,None,1279.990768111369,None,1280.9911376941018,None,0.52,7.50284914689837,1283.9923440376879,None,None,1283.9923440376879,None,,,,,,,,,,,,,,,,,,,,23732,2019_Oct_09_1734,Mmi_3levels,3.1.5,59.95921047158436,
,,,,,,,,,,,,,,,,,,,,,,,,,,,,,,0,0,0,0,,,,,,,,,,,,,,,,,,,,,,,,,,,,,,,,,,,,,,,,,,,,,,,,,,,,,,,,,,,,,,,,,,,,,,,,,,,,,,,,,,,,,,,,,,,,,,,,,,,,,,,,,,,,,,,,,,,,,,,,1290.4948709596647,None,4,2.501205063716043,1290.4948709596647,None,,57.66125000000002,3,1293.0291903162724,None,1293.0291903162724,None,1293.0291903162724,None,space,42.683383112365846,1293.0291903162724,None,23732,2019_Oct_09_1734,Mmi_3levels,3.1.5,59.95921047158436,
