currSlide,currImage,currText,blockNum,targetHappiness,highAmount,instructionLoop1.thisRepN,instructionLoop1.thisTrialN,instructionLoop1.thisN,instructionLoop1.thisIndex,instructionLoop2.thisRepN,instructionLoop2.thisTrialN,instructionLoop2.thisN,instructionLoop2.thisIndex,blockLoop.thisRepN,blockLoop.thisTrialN,blockLoop.thisN,blockLoop.thisIndex,trialLoop.thisRepN,trialLoop.thisTrialN,trialLoop.thisN,trialLoop.thisIndex,doRatingLoop.thisRepN,doRatingLoop.thisTrialN,doRatingLoop.thisN,doRatingLoop.thisIndex,trialHappyLoop.thisRepN,trialHappyLoop.thisTrialN,trialHappyLoop.thisN,trialHappyLoop.thisIndex,logWinningsLoop.thisRepN,logWinningsLoop.thisTrialN,logWinningsLoop.thisN,logWinningsLoop.thisIndex,instrImage.started,instrImage.stopped,instrText.started,instrText.stopped,instrContinueText.started,instrContinueText.stopped,instrKeyResp.keys,instrKeyResp.rt,instrKeyResp.started,instrKeyResp.stopped,lifeHappyText.started,lifeHappyText.stopped,lifeHappySlider.response,lifeHappySlider.rt,lifeHappySlider.started,lifeHappySlider.stopped,lifeHappyResp.keys,lifeHappyResp.rt,lifeHappyResp.started,lifeHappyResp.stopped,instrImage_2.started,instrImage_2.stopped,instrText_2.started,instrText_2.stopped,instrContinueText_2.started,instrContinueText_2.stopped,instrKeyResp_2.keys,instrKeyResp_2.rt,instrKeyResp_2.started,instrKeyResp_2.stopped,localizing.started,localizing.stopped,start_exp.keys,start_exp.rt,start_exp.started,start_exp.stopped,blockHappyText.started,blockHappyText.stopped,blockHappySlider.response,blockHappySlider.rt,blockHappySlider.started,blockHappySlider.stopped,blockHappyResp.keys,blockHappyResp.rt,blockHappyResp.started,blockHappyResp.stopped,blankText.started,blankText.stopped,isHappyBlock,isCongruent,isWinOnTop,lastHappyRating,diff,sumDiff,RPE,winAmount,loseAmount,certainAmount,choice,outcome,outcomeAmount,currentWinnings,fixCross.started,fixCross.stopped,certainBox.started,certainBox.stopped,outcome1Box.started,outcome1Box.stopped,outcome2Box.started,outcome2Box.stopped,certainText.started,certainText.stopped,outcome1Text.started,outcome1Text.stopped,outcome2Text.started,outcome2Text.stopped,choiceKey.keys,choiceKey.rt,choiceKey.started,choiceKey.stopped,fixCross_2.started,fixCross_2.stopped,certainBox_2.started,certainBox_2.stopped,outcome1Box_2.started,outcome1Box_2.stopped,outcome2Box_2.started,outcome2Box_2.stopped,certainText_2.started,certainText_2.stopped,outcome1Text_2.started,outcome1Text_2.stopped,outcome2Text_2.started,outcome2Text_2.stopped,fixCross_3.started,fixCross_3.stopped,certainBox_3.started,certainBox_3.stopped,outcome1Box_3.started,outcome1Box_3.stopped,outcome2Box_3.started,outcome2Box_3.stopped,certainText_3.started,certainText_3.stopped,outcome1Text_3.started,outcome1Text_3.stopped,outcome2Text_3.started,outcome2Text_3.stopped,fixCross_ITI.started,fixCross_ITI.stopped,fixCross_ISI.started,fixCross_ISI.stopped,happyText.started,happyText.stopped,happySlider.response,happySlider.rt,happySlider.started,happySlider.stopped,happyResp.keys,happyResp.started,happyResp.stopped,endOfBlockText.started,endOfBlockText.stopped,restKeyResp.keys,restKeyResp.rt,restKeyResp.started,restKeyResp.stopped,finalWinnings,cashBonus,goodbyeText.started,goodbyeText.stopped,finalWinningsText.started,finalWinningsText.stopped,spaceToContinue.started,spaceToContinue.stopped,goodbyeKeyResp_2.keys,goodbyeKeyResp_2.rt,goodbyeKeyResp_2.started,goodbyeKeyResp_2.stopped,participant,date,expName,psychopyVersion,frameRate,
1,black.png,"Welcome! You are about to play our gambling task.
This task has 3 blocks and takes about 15 minutes.",,,,0,0,0,0,,,,,,,,,,,,,,,,,,,,,,,,,9.582170675086672,None,9.582170675086672,None,9.582170675086672,None,4,4.785530112640117,9.582170675086672,None,,,,,,,,,,,,,,,,,,,,,,,,,,,,,,,,,,,,,,,,,,,,,,,,,,,,,,,,,,,,,,,,,,,,,,,,,,,,,,,,,,,,,,,,,,,,,,,,,,,,,,,,,,,,,,,,,,,,,,,,,,,,,,,,,,23809,2019_Dec_12_1559,Mmi_3levels,3.1.5,59.97604923766995,
2,black.png,"In this game, you may win or lose points. Your goal is to get as many points as possible. These points will be converted to a cash bonus at the end.
Sometimes we will ask you to rate your mood.",,,,0,1,1,1,,,,,,,,,,,,,,,,,,,,,,,,,14.400770071093575,None,14.400770071093575,None,14.400770071093575,None,4,6.453805333861965,14.400770071093575,None,,,,,,,,,,,,,,,,,,,,,,,,,,,,,,,,,,,,,,,,,,,,,,,,,,,,,,,,,,,,,,,,,,,,,,,,,,,,,,,,,,,,,,,,,,,,,,,,,,,,,,,,,,,,,,,,,,,,,,,,,,,,,,,,,,23809,2019_Dec_12_1559,Mmi_3levels,3.1.5,59.97604923766995,
3,black.png,"On the next screen, please rate how you feel about your life these days. Use the LEFT (green) and RIGHT (blue) buttons to move the slider (you can press and hold them to slide gradually) and the TOP (red) button to lock in your response.
Make your rating as accurately and quickly as you can!",,,,0,2,2,2,,,,,,,,,,,,,,,,,,,,,,,,,20.904279004695127,None,20.904279004695127,None,20.904279004695127,None,4,13.939076196271344,20.904279004695127,None,,,,,,,,,,,,,,,,,,,,,,,,,,,,,,,,,,,,,,,,,,,,,,,,,,,,,,,,,,,,,,,,,,,,,,,,,,,,,,,,,,,,,,,,,,,,,,,,,,,,,,,,,,,,,,,,,,,,,,,,,,,,,,,,,,23809,2019_Dec_12_1559,Mmi_3levels,3.1.5,59.97604923766995,
,,,,,,,,,,,,,,,,,,,,,,,,,,,,,,,,,,,,,,,,,,,,34.85966889439442,None,0.65,8.468929970433237,38.86112929681258,None,4,4.452050547071849,38.86112929681258,None,,,,,,,,,,,,,,,,,,,,,,,,,,,,,,,,,,,,,,,,,,,,,,,,,,,,,,,,,,,,,,,,,,,,,,,,,,,,,,,,,,,,,,,,,,,,,,,,,,,,,,,,,,,,,,,,,,,,,,,,23809,2019_Dec_12_1559,Mmi_3levels,3.1.5,59.97604923766995,
4,black.png,"In this game you can win money by earning points according to your choices. You will decide whether to gamble a number of points or stick with a guaranteed number of points. 
Make your choice by pressing the left or right arrow key once. An example of one trial is shown on the next screen.",,,,,,,,0,0,0,0,,,,,,,,,,,,,,,,,,,,,,,,,,,,,,,,,,,,,,,,,43.36290744235157,None,43.36290744235157,None,43.36290744235157,None,4,11.90475673932815,43.36290744235157,None,,,,,,,,,,,,,,,,,,,,,,,,,,,,,,,,,,,,,,,,,,,,,,,,,,,,,,,,,,,,,,,,,,,,,,,,,,,,,,,,,,,,,,,,,,,,,,,,,,,,,,,,,,,,,,23809,2019_Dec_12_1559,Mmi_3levels,3.1.5,59.97604923766995,
5,example_start.png,"The GAMBLING OPTION will be shown on the RIGHT SIDE. 
Select this option using the RIGHT (blue) button on your keypad.",,,,,,,,0,1,1,1,,,,,,,,,,,,,,,,,,,,,,,,,,,,,,,,,,,,,,,,,55.334142890322255,None,55.334142890322255,None,55.334142890322255,None,4,6.252572503362899,55.334142890322255,None,,,,,,,,,,,,,,,,,,,,,,,,,,,,,,,,,,,,,,,,,,,,,,,,,,,,,,,,,,,,,,,,,,,,,,,,,,,,,,,,,,,,,,,,,,,,,,,,,,,,,,,,,,,,,,23809,2019_Dec_12_1559,Mmi_3levels,3.1.5,59.97604923766995,
6,example_gamble.png,"Once you select the gambling choice, the choice you made will remain on the screen.",,,,,,,,0,2,2,2,,,,,,,,,,,,,,,,,,,,,,,,,,,,,,,,,,,,,,,,,61.6199440285709,None,61.6199440285709,None,61.6199440285709,None,4,2.4344997993757715,61.6199440285709,None,,,,,,,,,,,,,,,,,,,,,,,,,,,,,,,,,,,,,,,,,,,,,,,,,,,,,,,,,,,,,,,,,,,,,,,,,,,,,,,,,,,,,,,,,,,,,,,,,,,,,,,,,,,,,,23809,2019_Dec_12_1559,Mmi_3levels,3.1.5,59.97604923766995,
7,example_win.png,"The outcome you received will then be shown on the screen. In this example , you WON 10 points.",,,,,,,,0,3,3,3,,,,,,,,,,,,,,,,,,,,,,,,,,,,,,,,,,,,,,,,,64.0875278305175,None,64.0875278305175,None,64.0875278305175,None,4,1.75094218995946,64.0875278305175,None,,,,,,,,,,,,,,,,,,,,,,,,,,,,,,,,,,,,,,,,,,,,,,,,,,,,,,,,,,,,,,,,,,,,,,,,,,,,,,,,,,,,,,,,,,,,,,,,,,,,,,,,,,,,,,23809,2019_Dec_12_1559,Mmi_3levels,3.1.5,59.97604923766995,
8,example_start.png,"The GUARANTEED OPTION will be shown on the LEFT SIDE. You are 100% guaranteed to gain or lose this amount. In this example, you have a 100% chance of winning 1 point. Select this option using the LEFT (green) button on your keyboard.",,,,,,,,0,4,4,4,,,,,,,,,,,,,,,,,,,,,,,,,,,,,,,,,,,,,,,,,65.88817554010893,None,65.88817554010893,None,65.88817554010893,None,4,3.885152660688618,65.88817554010893,None,,,,,,,,,,,,,,,,,,,,,,,,,,,,,,,,,,,,,,,,,,,,,,,,,,,,,,,,,,,,,,,,,,,,,,,,,,,,,,,,,,,,,,,,,,,,,,,,,,,,,,,,,,,,,,23809,2019_Dec_12_1559,Mmi_3levels,3.1.5,59.97604923766995,
9,example_certain.png,"Once you select the guaranteed choice, your selection will remain on the screen.",,,,,,,,0,5,5,5,,,,,,,,,,,,,,,,,,,,,,,,,,,,,,,,,,,,,,,,,69.8063683657092,None,69.8063683657092,None,69.8063683657092,None,4,1.1672535154939396,69.8063683657092,None,,,,,,,,,,,,,,,,,,,,,,,,,,,,,,,,,,,,,,,,,,,,,,,,,,,,,,,,,,,,,,,,,,,,,,,,,,,,,,,,,,,,,,,,,,,,,,,,,,,,,,,,,,,,,,23809,2019_Dec_12_1559,Mmi_3levels,3.1.5,59.97604923766995,
10,black.png,"Please make your choices as fast as possible.
You will be given a break at the end of each block.
Let's play!",,,,,,,,0,6,6,6,,,,,,,,,,,,,,,,,,,,,,,,,,,,,,,,,,,,,,,,,71.0067350022291,None,71.0067350022291,None,71.0067350022291,None,4,2.4179461187013658,71.0067350022291,None,,,,,,,,,,,,,,,,,,,,,,,,,,,,,,,,,,,,,,,,,,,,,,,,,,,,,,,,,,,,,,,,,,,,,,,,,,,,,,,,,,,,,,,,,,,,,,,,,,,,,,,,,,,,,,23809,2019_Dec_12_1559,Mmi_3levels,3.1.5,59.97604923766995,
,,,,,,,,,,,,,,,,,,,,,,,,,,,,,,,,,,,,,,,,,,,,,,,,,,,,,,,,,,,,,,,,73.44111512796371,None,space,59.38958474525134,73.44111512796371,None,,,,,,,,,,,,,,,,,,,,,,,,,,,,,,,,,,,,,,,,,,,,,,,,,,,,,,,,,,,,,,,,,,,,,,,,,,,,,,,,,,,,,,,,,,,,,,,,,,,,,,,,23809,2019_Dec_12_1559,Mmi_3levels,3.1.5,59.97604923766995,
,,,1,1,13.7,,,,,,,,,0,0,0,0,0,0,0,9,,,,,,,,,,,,,,,,,,,,,,,,,,,,,,,,,,,,,,,,,,,,,,,,,132.84711372132006,None,0.53,6.128982268463005,135.8649271750619,None,4,3.1014195725874742,135.8649271750619,None,138.98278011471848,None,True,False,True,0.53,-0.47,-0.47,-1.6841666666666666,13.7,12.015833333333333,6.007916666666667,gamble,lose,12.015833333333333,12.015833333333333,142.01721732541046,None,142.01721732541046,None,142.01721732541046,None,142.01721732541046,None,142.01721732541046,None,142.01721732541046,None,142.01721732541046,None,1,1.7843816936365329,142.01721732541046,None,143.834635984138,None,143.834635984138,None,143.834635984138,None,143.834635984138,None,143.834635984138,None,143.834635984138,None,143.834635984138,None,147.8361687027209,None,147.8361687027209,None,147.8361687027209,None,147.8361687027209,None,147.8361687027209,None,147.8361687027209,None,147.8361687027209,None,148.81987708812812,None,,,,,,,,,,,,,,,,,,,,,,,,,,,,,,23809,2019_Dec_12_1559,Mmi_3levels,3.1.5,59.97604923766995,
,,,1,1,7.9,,,,,,,,,0,0,0,0,0,1,1,1,,,,,,,,,,,,,,,,,,,,,,,,,,,,,,,,,,,,,,,,,,,,,,,,,,,,,,,,,,,,,True,True,False,0.53,-0.47,-0.94,7.52,7.9,0.3800000000000008,0.1900000000000004,gamble,win,7.9,19.91583333333333,150.83732768114714,None,150.83732768114714,None,150.83732768114714,None,150.83732768114714,None,150.83732768114714,None,150.83732768114714,None,150.83732768114714,None,1,1.450806773151271,150.83732768114714,None,152.321226776432,None,152.321226776432,None,152.321226776432,None,152.321226776432,None,152.321226776432,None,152.321226776432,None,152.321226776432,None,156.30603462344152,None,156.30603462344152,None,156.30603462344152,None,156.30603462344152,None,156.30603462344152,None,156.30603462344152,None,156.30603462344152,None,157.30645220125734,None,,,,,,,,,,,,,,,,,,,,,,,,,,,,,,23809,2019_Dec_12_1559,Mmi_3levels,3.1.5,59.97604923766995,
,,,1,1,3.1,,,,,,,,,0,0,0,0,0,2,2,8,,,,,,,,,,,,,,,,,,,,,,,,,,,,,,,,,,,,,,,,,,,,,,,,,,,,,,,,,,,,,True,True,True,0.53,-0.47,-1.41,7.99,3.1,-4.890000000000001,-0.8950000000000002,gamble,win,3.1,23.015833333333333,159.32382439845242,None,159.32382439845242,None,159.32382439845242,None,159.32382439845242,None,159.32382439845242,None,159.32382439845242,None,159.32382439845242,None,1,1.1007776866754284,159.32382439845242,None,160.4576528094767,None,160.4576528094767,None,160.4576528094767,None,160.4576528094767,None,160.4576528094767,None,160.4576528094767,None,160.4576528094767,None,164.45915864949347,None,164.45915864949347,None,164.45915864949347,None,164.45915864949347,None,164.45915864949347,None,164.45915864949347,None,164.45915864949347,None,173.94614334085782,None,165.44289807324822,None,166.44320909673115,None,0.6,7.502736494643614,169.4444013533939,None,None,169.4444013533939,None,,,,,,,,,,,,,,,,,,,23809,2019_Dec_12_1559,Mmi_3levels,3.1.5,59.97604923766995,
,,,1,1,8.1,,,,,,,,,0,0,0,0,0,3,3,12,,,,,,,,,,,,,,,,,,,,,,,,,,,,,,,,,,,,,,,,,,,,,,,,,,,,,,,,,,,,,True,True,True,0.6,-0.4,-1.81,7.41,8.1,0.6899999999999995,0.34499999999999975,gamble,win,8.1,31.115833333333335,175.96358273449005,None,175.96358273449005,None,175.96358273449005,None,175.96358273449005,None,175.96358273449005,None,175.96358273449005,None,175.96358273449005,None,1,1.08404481553589,175.96358273449005,None,177.08066803491965,None,177.08066803491965,None,177.08066803491965,None,177.08066803491965,None,177.08066803491965,None,177.08066803491965,None,177.08066803491965,None,181.06552291942353,None,181.06552291942353,None,181.06552291942353,None,181.06552291942353,None,181.06552291942353,None,181.06552291942353,None,181.06552291942353,None,182.06590305922145,None,,,,,,,,,,,,,,,,,,,,,,,,,,,,,,23809,2019_Dec_12_1559,Mmi_3levels,3.1.5,59.97604923766995,
,,,1,1,7.5,,,,,,,,,0,0,0,0,0,4,4,10,,,,,,,,,,,,,,,,,,,,,,,,,,,,,,,,,,,,,,,,,,,,,,,,,,,,,,,,,,,,,True,True,True,0.6,-0.4,-2.21,7.8100000000000005,7.5,-0.3100000000000005,-0.15500000000000025,gamble,win,7.5,38.615833333333335,184.08334789256332,None,184.08334789256332,None,184.08334789256332,None,184.08334789256332,None,184.08334789256332,None,184.08334789256332,None,184.08334789256332,None,1,1.0840412957331864,184.08334789256332,None,185.20042999315774,None,185.20042999315774,None,185.20042999315774,None,185.20042999315774,None,185.20042999315774,None,185.20042999315774,None,185.20042999315774,None,189.20196047185163,None,189.20196047185163,None,189.20196047185163,None,189.20196047185163,None,189.20196047185163,None,189.20196047185163,None,189.20196047185163,None,198.68891476484714,None,190.18566917725548,None,191.1860051593976,None,0.62,7.502753133754595,194.1870799823082,None,None,194.1870799823082,None,,,,,,,,,,,,,,,,,,,23809,2019_Dec_12_1559,Mmi_3levels,3.1.5,59.97604923766995,
,,,1,1,7.3,,,,,,,,,0,0,0,0,0,5,5,6,,,,,,,,,,,,,,,,,,,,,,,,,,,,,,,,,,,,,,,,,,,,,,,,,,,,,,,,,,,,,True,True,False,0.62,-0.38,-2.59,7.91,7.3,-0.6100000000000003,-0.30500000000000016,gamble,win,7.3,45.91583333333333,200.70634231909935,None,200.70634231909935,None,200.70634231909935,None,200.70634231909935,None,200.70634231909935,None,200.70634231909935,None,200.70634231909935,None,1,1.1339743232820183,200.70634231909935,None,201.8734700812638,None,201.8734700812638,None,201.8734700812638,None,201.8734700812638,None,201.8734700812638,None,201.8734700812638,None,201.8734700812638,None,205.8749208842055,None,205.8749208842055,None,205.8749208842055,None,205.8749208842055,None,205.8749208842055,None,205.8749208842055,None,205.8749208842055,None,206.85865006850509,None,,,,,,,,,,,,,,,,,,,,,,,,,,,,,,23809,2019_Dec_12_1559,Mmi_3levels,3.1.5,59.97604923766995,
,,,1,1,4.3,,,,,,,,,0,0,0,0,0,6,6,21,,,,,,,,,,,,,,,,,,,,,,,,,,,,,,,,,,,,,,,,,,,,,,,,,,,,,,,,,,,,,True,True,True,0.62,-0.38,-2.9699999999999998,8.29,4.3,-3.9899999999999993,0.15500000000000025,certain,certain,0.15500000000000025,46.07083333333333,208.87614417921577,None,208.87614417921577,None,208.87614417921577,None,208.87614417921577,None,208.87614417921577,None,208.87614417921577,None,208.87614417921577,None,3,1.4007262334198458,208.87614417921577,None,210.31000977227814,None,210.31000977227814,None,210.31000977227814,None,210.31000977227814,None,210.31000977227814,None,210.31000977227814,None,210.31000977227814,None,214.2948736163089,None,214.2948736163089,None,214.2948736163089,None,214.2948736163089,None,214.2948736163089,None,214.2948736163089,None,214.2948736163089,None,215.2952585558669,None,,,,,,,,,,,,,,,,,,,,,,,,,,,,,,23809,2019_Dec_12_1559,Mmi_3levels,3.1.5,59.97604923766995,
,,,1,1,8.7,,,,,,,,,0,0,0,0,0,7,7,16,,,,,,,,,,,,,,,,,,,,,,,,,,,,,,,,,,,,,,,,,,,,,,,,,,,,,,,,,,,,,True,True,False,0.62,-0.38,-3.3499999999999996,8.67,8.7,0.02999999999999936,0.01499999999999968,gamble,win,8.7,54.77083333333333,217.312638112664,None,217.312638112664,None,217.312638112664,None,217.312638112664,None,217.312638112664,None,217.312638112664,None,217.312638112664,None,1,1.134107436213526,217.312638112664,None,218.4798068326636,None,218.4798068326636,None,218.4798068326636,None,218.4798068326636,None,218.4798068326636,None,218.4798068326636,None,218.4798068326636,None,222.46464059829304,None,222.46464059829304,None,222.46464059829304,None,222.46464059829304,None,222.46464059829304,None,222.46464059829304,None,222.46464059829304,None,231.9682845647185,None,223.4649826601235,None,224.46541175732273,None,0.6,7.502691057045013,227.46650289936224,None,None,227.46650289936224,None,,,,,,,,,,,,,,,,,,,23809,2019_Dec_12_1559,Mmi_3levels,3.1.5,59.97604923766995,
,,,1,1,8.5,,,,,,,,,0,0,0,0,0,8,8,5,,,,,,,,,,,,,,,,,,,,,,,,,,,,,,,,,,,,,,,,,,,,,,,,,,,,,,,,,,,,,True,True,True,0.6,-0.4,-3.7499999999999996,9.35,8.5,-0.8499999999999996,-0.4249999999999998,gamble,win,8.5,63.27083333333333,233.98571147900657,None,233.98571147900657,None,233.98571147900657,None,233.98571147900657,None,233.98571147900657,None,233.98571147900657,None,233.98571147900657,None,1,1.1673319113324396,233.98571147900657,None,235.18612931281677,None,235.18612931281677,None,235.18612931281677,None,235.18612931281677,None,235.18612931281677,None,235.18612931281677,None,235.18612931281677,None,239.1877084289299,None,239.1877084289299,None,239.1877084289299,None,239.1877084289299,None,239.1877084289299,None,239.1877084289299,None,239.1877084289299,None,240.17140625489992,None,,,,,,,,,,,,,,,,,,,,,,,,,,,,,,23809,2019_Dec_12_1559,Mmi_3levels,3.1.5,59.97604923766995,
,,,1,1,-0.7,,,,,,,,,0,0,0,0,0,9,9,15,,,,,,,,,,,,,,,,,,,,,,,,,,,,,,,,,,,,,,,,,,,,,,,,,,,,,,,,,,,,,True,True,True,0.6,-0.4,-4.1499999999999995,9.75,-0.7,-10.45,-5.574999999999999,gamble,win,-0.7,62.570833333333326,242.1888446885714,None,242.1888446885714,None,242.1888446885714,None,242.1888446885714,None,242.1888446885714,None,242.1888446885714,None,242.1888446885714,None,1,1.650633918325184,242.1888446885714,None,243.87281827589322,None,243.87281827589322,None,243.87281827589322,None,243.87281827589322,None,243.87281827589322,None,243.87281827589322,None,243.87281827589322,None,247.87434171496716,None,247.87434171496716,None,247.87434171496716,None,247.87434171496716,None,247.87434171496716,None,247.87434171496716,None,247.87434171496716,None,257.3613107271667,None,248.85806033982954,None,249.85844783924404,None,0.61,7.502931684270152,252.85952714191808,None,None,252.85952714191808,None,,,,,,,,,,,,,,,,,,,23809,2019_Dec_12_1559,Mmi_3levels,3.1.5,59.97604923766995,
,,,1,1,5.9,,,,,,,,,0,0,0,0,0,10,10,3,,,,,,,,,,,,,,,,,,,,,,,,,,,,,,,,,,,,,,,,,,,,,,,,,,,,,,,,,,,,,True,True,False,0.61,-0.39,-4.539999999999999,10.0,5.9,-4.1,0.9000000000000004,gamble,win,5.9,68.47083333333333,259.3787462809996,None,259.3787462809996,None,259.3787462809996,None,259.3787462809996,None,259.3787462809996,None,259.3787462809996,None,259.3787462809996,None,1,1.300703066663118,259.3787462809996,None,260.7125928670721,None,260.7125928670721,None,260.7125928670721,None,260.7125928670721,None,260.7125928670721,None,260.7125928670721,None,260.7125928670721,None,264.6974279126298,None,264.6974279126298,None,264.6974279126298,None,264.6974279126298,None,264.6974279126298,None,264.6974279126298,None,264.6974279126298,None,265.6978160520084,None,,,,,,,,,,,,,,,,,,,,,,,,,,,,,,23809,2019_Dec_12_1559,Mmi_3levels,3.1.5,59.97604923766995,
,,,1,1,11.7,,,,,,,,,0,0,0,0,0,11,11,25,,,,,,,,,,,,,,,,,,,,,,,,,,,,,,,,,,,,,,,,,,,,,,,,,,,,,,,,,,,,,True,True,False,0.61,-0.39,-4.929999999999999,10.389999999999999,11.7,1.3100000000000005,0.6550000000000002,gamble,win,11.7,80.17083333333333,267.7152672850061,None,267.7152672850061,None,267.7152672850061,None,267.7152672850061,None,267.7152672850061,None,267.7152672850061,None,267.7152672850061,None,1,1.3007741028850432,267.7152672850061,None,269.04909339215374,None,269.04909339215374,None,269.04909339215374,None,269.04909339215374,None,269.04909339215374,None,269.04909339215374,None,269.04909339215374,None,273.0338989992888,None,273.0338989992888,None,273.0338989992888,None,273.0338989992888,None,273.0338989992888,None,273.0338989992888,None,273.0338989992888,None,282.53753304624115,None,274.0343341761618,None,275.0347123960819,None,0.6,7.5026792176795425,278.035834896451,None,None,278.035834896451,None,,,,,,,,,,,,,,,,,,,23809,2019_Dec_12_1559,Mmi_3levels,3.1.5,59.97604923766995,
,,,1,1,1.5,,,,,,,,,0,0,0,0,0,12,12,4,,,,,,,,,,,,,,,,,,,,,,,,,,,,,,,,,,,,,,,,,,,,,,,,,,,,,,,,,,,,,True,True,True,0.6,-0.4,-5.329999999999999,10.93,1.5,-9.43,-3.965,gamble,win,1.5,81.67083333333333,284.5550201173319,None,284.5550201173319,None,284.5550201173319,None,284.5550201173319,None,284.5550201173319,None,284.5550201173319,None,284.5550201173319,None,1,1.2841151478060056,284.5550201173319,None,285.8721351121785,None,285.8721351121785,None,285.8721351121785,None,285.8721351121785,None,285.8721351121785,None,285.8721351121785,None,285.8721351121785,None,289.8736473518511,None,289.8736473518511,None,289.8736473518511,None,289.8736473518511,None,289.8736473518511,None,289.8736473518511,None,289.8736473518511,None,290.85732341898256,None,,,,,,,,,,,,,,,,,,,,,,,,,,,,,,23809,2019_Dec_12_1559,Mmi_3levels,3.1.5,59.97604923766995,
,,,1,1,-0.3,,,,,,,,,0,0,0,0,0,13,13,7,,,,,,,,,,,,,,,,,,,,,,,,,,,,,,,,,,,,,,,,,,,,,,,,,,,,,,,,,,,,,True,False,False,0.6,-0.4,-5.7299999999999995,-1.8775000000000002,-0.3,-2.1775,-1.23875,certain,certain,-1.23875,80.43208333333334,292.8747810516361,None,292.8747810516361,None,292.8747810516361,None,292.8747810516361,None,292.8747810516361,None,292.8747810516361,None,292.8747810516361,None,3,1.334227685831138,292.8747810516361,None,294.24204058280156,None,294.24204058280156,None,294.24204058280156,None,294.24204058280156,None,294.24204058280156,None,294.24204058280156,None,294.24204058280156,None,298.24354962263897,None,298.24354962263897,None,298.24354962263897,None,298.24354962263897,None,298.24354962263897,None,298.24354962263897,None,298.24354962263897,None,299.2272698474262,None,,,,,,,,,,,,,,,,,,,,,,,,,,,,,,23809,2019_Dec_12_1559,Mmi_3levels,3.1.5,59.97604923766995,
,,,1,1,9.1,,,,,,,,,0,0,0,0,0,14,14,17,,,,,,,,,,,,,,,,,,,,,,,,,,,,,,,,,,,,,,,,,,,,,,,,,,,,,,,,,,,,,True,False,True,0.6,-0.4,-6.13,-1.9108333333333336,9.1,7.189166666666666,3.594583333333333,gamble,lose,7.189166666666666,87.62125,301.2447178805887,None,301.2447178805887,None,301.2447178805887,None,301.2447178805887,None,301.2447178805887,None,301.2447178805887,None,301.2447178805887,None,1,1.1007325690879952,301.2447178805887,None,302.3784810150828,None,302.3784810150828,None,302.3784810150828,None,302.3784810150828,None,302.3784810150828,None,302.3784810150828,None,302.3784810150828,None,306.3633192604757,None,306.3633192604757,None,306.3633192604757,None,306.3633192604757,None,306.3633192604757,None,306.3633192604757,None,306.3633192604757,None,315.8669149094785,None,307.3637205191626,None,308.3640881796309,None,0.62,7.50270641624229,311.36513036426913,None,None,311.36513036426913,None,,,,,,,,,,,,,,,,,,,23809,2019_Dec_12_1559,Mmi_3levels,3.1.5,59.97604923766995,
,,,1,1,-1.5,,,,,,,,,0,0,0,0,0,15,15,14,,,,,,,,,,,,,,,,,,,,,,,,,,,,,,,,,,,,,,,,,,,,,,,,,,,,,,,,,,,,,True,True,False,0.62,-0.38,-6.51,11.83,-1.5,-13.33,-7.415,gamble,win,-1.5,86.12125,317.8844000606623,None,317.8844000606623,None,317.8844000606623,None,317.8844000606623,None,317.8844000606623,None,317.8844000606623,None,317.8844000606623,None,1,1.267344838634017,317.8844000606623,None,319.18484618097136,None,319.18484618097136,None,319.18484618097136,None,319.18484618097136,None,319.18484618097136,None,319.18484618097136,None,319.18484618097136,None,323.18636322038947,None,323.18636322038947,None,323.18636322038947,None,323.18636322038947,None,323.18636322038947,None,323.18636322038947,None,323.18636322038947,None,324.17013272254553,None,,,,,,,,,,,,,,,,,,,,,,,,,,,,,,23809,2019_Dec_12_1559,Mmi_3levels,3.1.5,59.97604923766995,
,,,1,1,-0.9,,,,,,,,,0,0,0,0,0,16,16,18,,,,,,,,,,,,,,,,,,,,,,,,,,,,,,,,,,,,,,,,,,,,,,,,,,,,,,,,,,,,,True,False,True,0.62,-0.38,-6.89,-1.9041666666666668,-0.9,-2.8041666666666667,-1.8520833333333333,gamble,lose,-2.8041666666666667,83.31708333333334,326.1875657165074,None,326.1875657165074,None,326.1875657165074,None,326.1875657165074,None,326.1875657165074,None,326.1875657165074,None,326.1875657165074,None,1,1.2840873092791298,326.1875657165074,None,327.504737668336,None,327.504737668336,None,327.504737668336,None,327.504737668336,None,327.504737668336,None,327.504737668336,None,327.504737668336,None,331.50625310782925,None,331.50625310782925,None,331.50625310782925,None,331.50625310782925,None,331.50625310782925,None,331.50625310782925,None,331.50625310782925,None,340.9932170003158,None,332.4899682128889,None,333.49027923637186,None,0.54,7.502823850009008,336.49143469498085,None,None,336.49143469498085,None,,,,,,,,,,,,,,,,,,,23809,2019_Dec_12_1559,Mmi_3levels,3.1.5,59.97604923766995,
,,,1,1,4.5,,,,,,,,,0,0,0,0,0,17,17,26,,,,,,,,,,,,,,,,,,,,,,,,,,,,,,,,,,,,,,,,,,,,,,,,,,,,,,,,,,,,,True,True,True,0.54,-0.45999999999999996,-7.35,13.79,4.5,-9.29,-2.3949999999999996,gamble,win,4.5,87.81708333333334,343.0106391148438,None,343.0106391148438,None,343.0106391148438,None,343.0106391148438,None,343.0106391148438,None,343.0106391148438,None,343.0106391148438,None,1,0.9339894264849136,343.0106391148438,None,343.9776408677135,None,343.9776408677135,None,343.9776408677135,None,343.9776408677135,None,343.9776408677135,None,343.9776408677135,None,343.9776408677135,None,347.9791684665688,None,347.9791684665688,None,347.9791684665688,None,347.9791684665688,None,347.9791684665688,None,347.9791684665688,None,347.9791684665688,None,348.9629066103953,None,,,,,,,,,,,,,,,,,,,,,,,,,,,,,,23809,2019_Dec_12_1559,Mmi_3levels,3.1.5,59.97604923766995,
,,,1,1,1.3,,,,,,,,,0,0,0,0,0,18,18,24,,,,,,,,,,,,,,,,,,,,,,,,,,,,,,,,,,,,,,,,,,,,,,,,,,,,,,,,,,,,,True,True,True,0.54,-0.45999999999999996,-7.81,14.25,1.3,-12.95,-5.824999999999999,gamble,win,1.3,89.11708333333334,350.9803095259558,None,350.9803095259558,None,350.9803095259558,None,350.9803095259558,None,350.9803095259558,None,350.9803095259558,None,350.9803095259558,None,1,1.3841562336165225,350.9803095259558,None,352.39753984268464,None,352.39753984268464,None,352.39753984268464,None,352.39753984268464,None,352.39753984268464,None,352.39753984268464,None,352.39753984268464,None,356.3990872804861,None,356.3990872804861,None,356.3990872804861,None,356.3990872804861,None,356.3990872804861,None,356.3990872804861,None,356.3990872804861,None,357.38269583119836,None,,,,,,,,,,,,,,,,,,,,,,,,,,,,,,23809,2019_Dec_12_1559,Mmi_3levels,3.1.5,59.97604923766995,
,,,1,1,0.1,,,,,,,,,0,0,0,0,0,19,19,11,,,,,,,,,,,,,,,,,,,,,,,,,,,,,,,,,,,,,,,,,,,,,,,,,,,,,,,,,,,,,True,True,False,0.54,-0.45999999999999996,-8.27,14.709999999999999,0.1,-14.61,-7.255,gamble,win,0.1,89.21708333333333,359.40016050347185,None,359.40016050347185,None,359.40016050347185,None,359.40016050347185,None,359.40016050347185,None,359.40016050347185,None,359.40016050347185,None,1,1.850982635791297,359.40016050347185,None,361.28428185894154,None,361.28428185894154,None,361.28428185894154,None,361.28428185894154,None,361.28428185894154,None,361.28428185894154,None,361.28428185894154,None,365.2690775466035,None,365.2690775466035,None,365.2690775466035,None,365.2690775466035,None,365.2690775466035,None,365.2690775466035,None,365.2690775466035,None,374.77276151090336,None,366.26954184193164,None,367.2698586251063,None,0.59,7.502804011048283,370.2710259230953,None,None,370.2710259230953,None,,,,,,,,,,,,,,,,,,,23809,2019_Dec_12_1559,Mmi_3levels,3.1.5,59.97604923766995,
,,,1,1,5.1,,,,,,,,,0,0,0,0,0,20,20,23,,,,,,,,,,,,,,,,,,,,,,,,,,,,,,,,,,,,,,,,,,,,,,,,,,,,,,,,,,,,,True,True,False,0.59,-0.41000000000000003,-8.68,14.42,5.1,-9.32,-2.1100000000000003,gamble,win,5.1,94.31708333333333,376.79020986404794,None,376.79020986404794,None,376.79020986404794,None,376.79020986404794,None,376.79020986404794,None,376.79020986404794,None,376.79020986404794,None,1,1.300685147594777,376.79020986404794,None,378.12396461499156,None,378.12396461499156,None,378.12396461499156,None,378.12396461499156,None,378.12396461499156,None,378.12396461499156,None,378.12396461499156,None,382.1088985353126,None,382.1088985353126,None,382.1088985353126,None,382.1088985353126,None,382.1088985353126,None,382.1088985353126,None,382.1088985353126,None,383.1092226780893,None,,,,,,,,,,,,,,,,,,,,,,,,,,,,,,23809,2019_Dec_12_1559,Mmi_3levels,3.1.5,59.97604923766995,
,,,1,1,5.3,,,,,,,,,0,0,0,0,0,21,21,0,,,,,,,,,,,,,,,,,,,,,,,,,,,,,,,,,,,,,,,,,,,,,,,,,,,,,,,,,,,,,True,True,True,0.59,-0.41000000000000003,-9.09,14.83,5.3,-9.530000000000001,-2.1150000000000007,gamble,win,5.3,99.61708333333333,385.1266633516352,None,385.1266633516352,None,385.1266633516352,None,385.1266633516352,None,385.1266633516352,None,385.1266633516352,None,385.1266633516352,None,1,1.6008605622919276,385.1266633516352,None,386.7605730383657,None,386.7605730383657,None,386.7605730383657,None,386.7605730383657,None,386.7605730383657,None,386.7605730383657,None,386.7605730383657,None,390.76217423329945,None,390.76217423329945,None,390.76217423329945,None,390.76217423329945,None,390.76217423329945,None,390.76217423329945,None,390.76217423329945,None,400.2491013277322,None,391.7459101372515,None,392.746323875268,None,0.63,7.502776172521408,395.7473682997952,None,None,395.7473682997952,None,,,,,,,,,,,,,,,,,,,23809,2019_Dec_12_1559,Mmi_3levels,3.1.5,59.97604923766995,
,,,1,1,11.9,,,,,,,,,0,0,0,0,0,22,22,2,,,,,,,,,,,,,,,,,,,,,,,,,,,,,,,,,,,,,,,,,,,,,,,,,,,,,,,,,,,,,True,True,True,0.63,-0.37,-9.459999999999999,14.639999999999999,11.9,-2.7399999999999984,-1.3699999999999992,gamble,win,11.9,111.51708333333333,402.266598318296,None,402.266598318296,None,402.266598318296,None,402.266598318296,None,402.266598318296,None,402.266598318296,None,402.266598318296,None,1,1.0672271488874685,402.266598318296,None,403.36698306586186,None,403.36698306586186,None,403.36698306586186,None,403.36698306586186,None,403.36698306586186,None,403.36698306586186,None,403.36698306586186,None,407.36850874481024,None,407.36850874481024,None,407.36850874481024,None,407.36850874481024,None,407.36850874481024,None,407.36850874481024,None,407.36850874481024,None,408.3521876917948,None,,,,,,,,,,,,,,,,,,,,,,,,,,,,,,23809,2019_Dec_12_1559,Mmi_3levels,3.1.5,59.97604923766995,
,,,1,1,9.9,,,,,,,,,0,0,0,0,0,23,23,13,,,,,,,,,,,,,,,,,,,,,,,,,,,,,,,,,,,,,,,,,,,,,,,,,,,,,,,,,,,,,True,False,False,0.63,-0.37,-9.829999999999998,-2.1141666666666663,9.9,7.7858333333333345,3.8929166666666672,gamble,lose,7.7858333333333345,119.30291666666666,410.36964308455936,None,410.36964308455936,None,410.36964308455936,None,410.36964308455936,None,410.36964308455936,None,410.36964308455936,None,410.36964308455936,None,1,1.3341147318133153,410.36964308455936,None,411.73690293572145,None,411.73690293572145,None,411.73690293572145,None,411.73690293572145,None,411.73690293572145,None,411.73690293572145,None,411.73690293572145,None,415.72166150533303,None,415.72166150533303,None,415.72166150533303,None,415.72166150533303,None,415.72166150533303,None,415.72166150533303,None,415.72166150533303,None,425.225286272791,None,416.72209604225645,None,417.7223801871587,None,0.64,7.502763373209746,420.7235590045457,None,None,420.7235590045457,None,,,,,,,,,,,,,,,,,,,23809,2019_Dec_12_1559,Mmi_3levels,3.1.5,59.97604923766995,
,,,1,1,4.9,,,,,,,,,0,0,0,0,0,24,24,20,,,,,,,,,,,,,,,,,,,,,,,,,,,,,,,,,,,,,,,,,,,,,,,,,,,,,,,,,,,,,True,False,True,0.64,-0.36,-10.189999999999998,-2.1091666666666664,4.9,2.790833333333334,1.395416666666667,gamble,lose,2.790833333333334,122.09375,427.24276022457343,None,427.24276022457343,None,427.24276022457343,None,427.24276022457343,None,427.24276022457343,None,427.24276022457343,None,427.24276022457343,None,1,0.9838142997905379,427.24276022457343,None,428.2598137186869,None,428.2598137186869,None,428.2598137186869,None,428.2598137186869,None,428.2598137186869,None,428.2598137186869,None,428.2598137186869,None,432.2446308452054,None,432.2446308452054,None,432.2446308452054,None,432.2446308452054,None,432.2446308452054,None,432.2446308452054,None,432.2446308452054,None,433.24504714309296,None,,,,,,,,,,,,,,,,,,,,,,,,,,,,,,23809,2019_Dec_12_1559,Mmi_3levels,3.1.5,59.97604923766995,
,,,1,1,10.9,,,,,,,,,0,0,0,0,0,25,25,19,,,,,,,,,,,,,,,,,,,,,,,,,,,,,,,,,,,,,,,,,,,,,,,,,,,,,,,,,,,,,True,True,False,0.64,-0.36,-10.549999999999997,15.589999999999996,10.9,-4.689999999999996,-2.344999999999998,gamble,win,10.9,132.99375,435.2625111754023,None,435.2625111754023,None,435.2625111754023,None,435.2625111754023,None,435.2625111754023,None,435.2625111754023,None,435.2625111754023,None,1,1.1006714523246046,435.2625111754023,None,436.39624583141995,None,436.39624583141995,None,436.39624583141995,None,436.39624583141995,None,436.39624583141995,None,436.39624583141995,None,436.39624583141995,None,440.3978009488055,None,440.3978009488055,None,440.3978009488055,None,440.3978009488055,None,440.3978009488055,None,440.3978009488055,None,440.3978009488055,None,441.38142837851774,None,,,,,,,,,,,,,,,,,,,,,,,,,,,,,,23809,2019_Dec_12_1559,Mmi_3levels,3.1.5,59.97604923766995,
,,,1,1,2.5,,,,,,,,,0,0,0,0,0,26,26,22,,,,,,,,,,,,,,,,,,,,,,,,,,,,,,,,,,,,,,,,,,,,,,,,,,,,,,,,,,,,,True,True,False,0.64,-0.36,-10.909999999999997,15.949999999999996,2.5,-13.449999999999996,-5.474999999999998,gamble,win,2.5,135.49375,443.39886585224303,None,443.39886585224303,None,443.39886585224303,None,443.39886585224303,None,443.39886585224303,None,443.39886585224303,None,443.39886585224303,None,1,1.5008473149791826,443.39886585224303,None,444.9327862903883,None,444.9327862903883,None,444.9327862903883,None,444.9327862903883,None,444.9327862903883,None,444.9327862903883,None,444.9327862903883,None,448.93433436815394,None,448.93433436815394,None,448.93433436815394,None,448.93433436815394,None,448.93433436815394,None,448.93433436815394,None,448.93433436815394,None,458.4213408183714,None,449.9180209947226,None,450.91840337440954,None,0.68,7.50273393477255,453.91955243337725,None,None,453.91955243337725,None,,,,,,,,,,,,,,,,,,,23809,2019_Dec_12_1559,Mmi_3levels,3.1.5,59.97604923766995,
,,,2,0,12.7,,,,,,,,,0,1,1,1,0,0,0,12,,,,,,,,,,,,,,,,,,,,,,,,,,,,,,,,,,,,,,,,,,,,,,,,,464.32356649215217,None,0.67,7.501700069697108,467.34134538772923,None,None,,467.34134538772923,None,471.8263570639101,None,False,False,False,0.67,0.67,0.67,2.4008333333333334,3.175,0.7741666666666664,1.9745833333333331,gamble,win,3.175,138.66875000000002,474.8608685106592,None,474.8608685106592,None,474.8608685106592,None,474.8608685106592,None,474.8608685106592,None,474.8608685106592,None,474.8608685106592,None,1,1.4008219083334552,474.8608685106592,None,476.29484129803313,None,476.29484129803313,None,476.29484129803313,None,476.29484129803313,None,476.29484129803313,None,476.29484129803313,None,476.29484129803313,None,480.2796542647702,None,480.2796542647702,None,480.2796542647702,None,480.2796542647702,None,480.2796542647702,None,480.2796542647702,None,480.2796542647702,None,481.28001072582265,None,,,,,,,,,,,,460.4220729394874,None,4,3.8849811498075724,460.4220729394874,None,,,,,,,,,,,,,23809,2019_Dec_12_1559,Mmi_3levels,3.1.5,59.97604923766995,
,,,2,0,4.3,,,,,,,,,0,1,1,1,0,1,1,20,,,,,,,,,,,,,,,,,,,,,,,,,,,,,,,,,,,,,,,,,,,,,,,,,,,,,,,,,,,,,False,True,True,0.67,0.67,1.34,-10.72,4.3,-6.420000000000001,-1.0600000000000005,gamble,lose,-6.420000000000001,132.24875000000003,483.29747827794927,None,483.29747827794927,None,483.29747827794927,None,483.29747827794927,None,483.29747827794927,None,483.29747827794927,None,483.29747827794927,None,1,1.1339794430095935,483.29747827794927,None,484.4645567627449,None,484.4645567627449,None,484.4645567627449,None,484.4645567627449,None,484.4645567627449,None,484.4645567627449,None,484.4645567627449,None,488.44941196723084,None,488.44941196723084,None,488.44941196723084,None,488.44941196723084,None,488.44941196723084,None,488.44941196723084,None,488.44941196723084,None,497.9530140158895,None,489.449833384846,None,490.45027336147905,None,0.5,7.50270961606293,493.45130594662623,None,None,493.45130594662623,None,,,,,,,,,,,,,,,,,,,23809,2019_Dec_12_1559,Mmi_3levels,3.1.5,59.97604923766995,
,,,2,0,-1.3,,,,,,,,,0,1,1,1,0,2,2,1,,,,,,,,,,,,,,,,,,,,,,,,,,,,,,,,,,,,,,,,,,,,,,,,,,,,,,,,,,,,,False,False,False,0.5,0.5,1.84,1.9033333333333333,-0.325,-2.2283333333333335,-1.2766666666666668,certain,certain,-1.2766666666666668,130.97208333333336,499.97046268901613,None,499.97046268901613,None,499.97046268901613,None,499.97046268901613,None,499.97046268901613,None,499.97046268901613,None,499.97046268901613,None,3,1.6508828650985379,499.97046268901613,None,501.6544503555924,None,501.6544503555924,None,501.6544503555924,None,501.6544503555924,None,501.6544503555924,None,501.6544503555924,None,501.6544503555924,None,505.655981474265,None,505.655981474265,None,505.655981474265,None,505.655981474265,None,505.655981474265,None,505.655981474265,None,505.655981474265,None,506.63966010125296,None,,,,,,,,,,,,,,,,,,,,,,,,,,,,,,23809,2019_Dec_12_1559,Mmi_3levels,3.1.5,59.97604923766995,
,,,2,0,-0.5,,,,,,,,,0,1,1,1,0,3,3,22,,,,,,,,,,,,,,,,,,,,,,,,,,,,,,,,,,,,,,,,,,,,,,,,,,,,,,,,,,,,,False,True,False,0.5,0.5,2.34,-9.34,-0.5,-9.84,-5.17,gamble,lose,-9.84,121.13208333333336,508.65707325626863,None,508.65707325626863,None,508.65707325626863,None,508.65707325626863,None,508.65707325626863,None,508.65707325626863,None,508.65707325626863,None,1,1.5008645940833958,508.65707325626863,None,510.1910362521594,None,510.1910362521594,None,510.1910362521594,None,510.1910362521594,None,510.1910362521594,None,510.1910362521594,None,510.1910362521594,None,514.2259143994306,None,514.2259143994306,None,514.2259143994306,None,514.2259143994306,None,514.2259143994306,None,514.2259143994306,None,514.2259143994306,None,523.7128418138454,None,515.2096263046551,None,516.2099901253241,None,0.43,7.502938083925983,519.2111516636214,None,None,519.2111516636214,None,,,,,,,,,,,,,,,,,,,23809,2019_Dec_12_1559,Mmi_3levels,3.1.5,59.97604923766995,
,,,2,0,9.7,,,,,,,,,0,1,1,1,0,4,4,4,,,,,,,,,,,,,,,,,,,,,,,,,,,,,,,,,,,,,,,,,,,,,,,,,,,,,,,,,,,,,False,True,False,0.43,0.43,2.77,-8.79,9.7,0.9100000000000001,0.45500000000000007,gamble,lose,0.9100000000000001,122.04208333333335,525.7302840873017,None,525.7302840873017,None,525.7302840873017,None,525.7302840873017,None,525.7302840873017,None,525.7302840873017,None,525.7302840873017,None,1,1.050677947991062,525.7302840873017,None,526.8140655568423,None,526.8140655568423,None,526.8140655568423,None,526.8140655568423,None,526.8140655568423,None,526.8140655568423,None,526.8140655568423,None,530.8155614773714,None,530.8155614773714,None,530.8155614773714,None,530.8155614773714,None,530.8155614773714,None,530.8155614773714,None,530.8155614773714,None,531.7992781823414,None,,,,,,,,,,,,,,,,,,,,,,,,,,,,,,23809,2019_Dec_12_1559,Mmi_3levels,3.1.5,59.97604923766995,
,,,2,0,8.3,,,,,,,,,0,1,1,1,0,5,5,16,,,,,,,,,,,,,,,,,,,,,,,,,,,,,,,,,,,,,,,,,,,,,,,,,,,,,,,,,,,,,False,False,True,0.43,0.43,3.2,1.7716666666666665,2.075,0.3033333333333337,1.189166666666667,gamble,win,2.075,124.11708333333335,533.8167111763032,None,533.8167111763032,None,533.8167111763032,None,533.8167111763032,None,533.8167111763032,None,533.8167111763032,None,533.8167111763032,None,1,1.3007923419208964,533.8167111763032,None,535.1505603222322,None,535.1505603222322,None,535.1505603222322,None,535.1505603222322,None,535.1505603222322,None,535.1505603222322,None,535.1505603222322,None,539.1354043273168,None,539.1354043273168,None,539.1354043273168,None,539.1354043273168,None,539.1354043273168,None,539.1354043273168,None,539.1354043273168,None,540.1357950265665,None,,,,,,,,,,,,,,,,,,,,,,,,,,,,,,23809,2019_Dec_12_1559,Mmi_3levels,3.1.5,59.97604923766995,
,,,2,0,10.3,,,,,,,,,0,1,1,1,0,6,6,6,,,,,,,,,,,,,,,,,,,,,,,,,,,,,,,,,,,,,,,,,,,,,,,,,,,,,,,,,,,,,False,True,False,0.43,0.43,3.6300000000000003,-9.65,10.3,0.6500000000000004,0.3250000000000002,gamble,lose,0.6500000000000004,124.76708333333336,542.1532305803848,None,542.1532305803848,None,542.1532305803848,None,542.1532305803848,None,542.1532305803848,None,542.1532305803848,None,542.1532305803848,None,1,0.9671086271846434,542.1532305803848,None,543.1536094402691,None,543.1536094402691,None,543.1536094402691,None,543.1536094402691,None,543.1536094402691,None,543.1536094402691,None,543.1536094402691,None,547.1384611249377,None,547.1384611249377,None,547.1384611249377,None,547.1384611249377,None,547.1384611249377,None,547.1384611249377,None,547.1384611249377,None,556.6420657334675,None,548.1388230257144,None,549.1392233244551,None,0.53,7.502735854664934,552.1403848627524,None,None,552.1403848627524,None,,,,,,,,,,,,,,,,,,,23809,2019_Dec_12_1559,Mmi_3levels,3.1.5,59.97604923766995,
,,,2,0,7.1,,,,,,,,,0,1,1,1,0,7,7,7,,,,,,,,,,,,,,,,,,,,,,,,,,,,,,,,,,,,,,,,,,,,,,,,,,,,,,,,,,,,,False,True,False,0.53,0.53,4.16,-11.58,7.1,-4.48,1.3099999999999996,gamble,lose,-4.48,120.28708333333336,558.6595195263217,None,558.6595195263217,None,558.6595195263217,None,558.6595195263217,None,558.6595195263217,None,558.6595195263217,None,558.6595195263217,None,1,1.1671344818169018,558.6595195263217,None,559.8599821577518,None,559.8599821577518,None,559.8599821577518,None,559.8599821577518,None,559.8599821577518,None,559.8599821577518,None,559.8599821577518,None,563.844822003055,None,563.844822003055,None,563.844822003055,None,563.844822003055,None,563.844822003055,None,563.844822003055,None,563.844822003055,None,564.845214302215,None,,,,,,,,,,,,,,,,,,,,,,,,,,,,,,23809,2019_Dec_12_1559,Mmi_3levels,3.1.5,59.97604923766995,
,,,2,0,2.1,,,,,,,,,0,1,1,1,0,8,8,18,,,,,,,,,,,,,,,,,,,,,,,,,,,,,,,,,,,,,,,,,,,,,,,,,,,,,,,,,,,,,False,True,False,0.53,0.53,4.69,-12.11,2.1,-10.01,-3.955,gamble,lose,-10.01,110.27708333333335,566.8626367367397,None,566.8626367367397,None,566.8626367367397,None,566.8626367367397,None,566.8626367367397,None,566.8626367367397,None,566.8626367367397,None,1,1.5508302599046146,566.8626367367397,None,568.4465708381613,None,568.4465708381613,None,568.4465708381613,None,568.4465708381613,None,568.4465708381613,None,568.4465708381613,None,568.4465708381613,None,572.431441721812,None,572.431441721812,None,572.431441721812,None,572.431441721812,None,572.431441721812,None,572.431441721812,None,572.431441721812,None,581.9350748088182,None,573.4318029826245,None,574.432164243437,None,0.43,7.5029080055246595,577.4333273816446,None,None,577.4333273816446,None,,,,,,,,,,,,,,,,,,,23809,2019_Dec_12_1559,Mmi_3levels,3.1.5,59.97604923766995,
,,,2,0,12.5,,,,,,,,,0,1,1,1,0,9,9,0,,,,,,,,,,,,,,,,,,,,,,,,,,,,,,,,,,,,,,,,,,,,,,,,,,,,,,,,,,,,,False,True,True,0.43,0.43,5.12,-11.14,12.5,1.3599999999999994,0.6799999999999997,gamble,lose,1.3599999999999994,111.63708333333335,583.952510042669,None,583.952510042669,None,583.952510042669,None,583.952510042669,None,583.952510042669,None,583.952510042669,None,583.952510042669,None,1,0.8172385082871187,583.952510042669,None,584.8028261538711,None,584.8028261538711,None,584.8028261538711,None,584.8028261538711,None,584.8028261538711,None,584.8028261538711,None,584.8028261538711,None,588.8043553526368,None,588.8043553526368,None,588.8043553526368,None,588.8043553526368,None,588.8043553526368,None,588.8043553526368,None,588.8043553526368,None,589.7880666178971,None,,,,,,,,,,,,,,,,,,,,,,,,,,,,,,23809,2019_Dec_12_1559,Mmi_3levels,3.1.5,59.97604923766995,
,,,2,0,6.1,,,,,,,,,0,1,1,1,0,10,10,10,,,,,,,,,,,,,,,,,,,,,,,,,,,,,,,,,,,,,,,,,,,,,,,,,,,,,,,,,,,,,False,False,True,0.43,0.43,5.55,1.9674999999999998,1.525,-0.4424999999999999,0.54125,gamble,win,1.525,113.16208333333336,591.8054848926404,None,591.8054848926404,None,591.8054848926404,None,591.8054848926404,None,591.8054848926404,None,591.8054848926404,None,591.8054848926404,None,1,1.5175453079864383,591.8054848926404,None,593.3561353220866,None,593.3561353220866,None,593.3561353220866,None,593.3561353220866,None,593.3561353220866,None,593.3561353220866,None,593.3561353220866,None,597.3409374094044,None,597.3409374094044,None,597.3409374094044,None,597.3409374094044,None,597.3409374094044,None,597.3409374094044,None,597.3409374094044,None,598.3413588270196,None,,,,,,,,,,,,,,,,,,,,,,,,,,,,,,23809,2019_Dec_12_1559,Mmi_3levels,3.1.5,59.97604923766995,
,,,2,0,13.9,,,,,,,,,0,1,1,1,0,11,11,26,,,,,,,,,,,,,,,,,,,,,,,,,,,,,,,,,,,,,,,,,,,,,,,,,,,,,,,,,,,,,False,False,True,0.43,0.43,5.9799999999999995,2.003333333333333,3.475,1.4716666666666671,0.7358333333333336,gamble,win,3.475,116.63708333333335,600.358796940709,None,600.358796940709,None,600.358796940709,None,600.358796940709,None,600.358796940709,None,600.358796940709,None,600.358796940709,None,1,0.9505690257792594,600.358796940709,None,601.3424534888763,None,601.3424534888763,None,601.3424534888763,None,601.3424534888763,None,601.3424534888763,None,601.3424534888763,None,601.3424534888763,None,605.3273010137636,None,605.3273010137636,None,605.3273010137636,None,605.3273010137636,None,605.3273010137636,None,605.3273010137636,None,605.3273010137636,None,614.8309590594581,None,606.3277880279056,None,607.3280859320803,None,0.52,7.502667058332008,610.3292237916321,None,None,610.3292237916321,None,,,,,,,,,,,,,,,,,,,23809,2019_Dec_12_1559,Mmi_3levels,3.1.5,59.97604923766995,
,,,2,0,8.1,,,,,,,,,0,1,1,1,0,12,12,2,,,,,,,,,,,,,,,,,,,,,,,,,,,,,,,,,,,,,,,,,,,,,,,,,,,,,,,,,,,,,False,True,False,0.52,0.52,6.5,-13.780000000000001,8.1,-5.6800000000000015,1.209999999999999,gamble,lose,-5.6800000000000015,110.95708333333334,616.8483706145489,None,616.8483706145489,None,616.8483706145489,None,616.8483706145489,None,616.8483706145489,None,616.8483706145489,None,616.8483706145489,None,1,1.5508424192521488,616.8483706145489,None,618.4323040760064,None,618.4323040760064,None,618.4323040760064,None,618.4323040760064,None,618.4323040760064,None,618.4323040760064,None,618.4323040760064,None,622.4172104777826,None,622.4172104777826,None,622.4172104777826,None,622.4172104777826,None,622.4172104777826,None,622.4172104777826,None,622.4172104777826,None,623.4175880577241,None,,,,,,,,,,,,,,,,,,,,,,,,,,,,,,23809,2019_Dec_12_1559,Mmi_3levels,3.1.5,59.97604923766995,
,,,2,0,6.5,,,,,,,,,0,1,1,1,0,13,13,25,,,,,,,,,,,,,,,,,,,,,,,,,,,,,,,,,,,,,,,,,,,,,,,,,,,,,,,,,,,,,False,True,False,0.52,0.52,7.02,-14.3,6.5,-7.800000000000001,-0.6500000000000004,certain,certain,-0.6500000000000004,110.30708333333334,625.4350271313597,None,625.4350271313597,None,625.4350271313597,None,625.4350271313597,None,625.4350271313597,None,625.4350271313597,None,625.4350271313597,None,3,1.7842450609023217,625.4350271313597,None,627.2523165169405,None,627.2523165169405,None,627.2523165169405,None,627.2523165169405,None,627.2523165169405,None,627.2523165169405,None,627.2523165169405,None,631.2539132321253,None,631.2539132321253,None,631.2539132321253,None,631.2539132321253,None,631.2539132321253,None,631.2539132321253,None,631.2539132321253,None,640.7408915238484,None,632.2376043384575,None,633.2380350355816,None,0.48,7.502911845309427,636.2391104984563,None,None,636.2391104984563,None,,,,,,,,,,,,,,,,,,,23809,2019_Dec_12_1559,Mmi_3levels,3.1.5,59.97604923766995,
,,,2,0,9.5,,,,,,,,,0,1,1,1,0,14,14,19,,,,,,,,,,,,,,,,,,,,,,,,,,,,,,,,,,,,,,,,,,,,,,,,,,,,,,,,,,,,,False,False,False,0.48,0.48,7.5,2.3049999999999997,2.375,0.07000000000000028,1.2225000000000001,gamble,win,2.375,112.68208333333334,642.7582851598854,None,642.7582851598854,None,642.7582851598854,None,642.7582851598854,None,642.7582851598854,None,642.7582851598854,None,642.7582851598854,None,1,1.1507151940022595,642.7582851598854,None,643.9420305993262,None,643.9420305993262,None,643.9420305993262,None,643.9420305993262,None,643.9420305993262,None,643.9420305993262,None,643.9420305993262,None,647.9269053227908,None,647.9269053227908,None,647.9269053227908,None,647.9269053227908,None,647.9269053227908,None,647.9269053227908,None,647.9269053227908,None,648.9272896223702,None,,,,,,,,,,,,,,,,,,,,,,,,,,,,,,23809,2019_Dec_12_1559,Mmi_3levels,3.1.5,59.97604923766995,
,,,2,0,1.5,,,,,,,,,0,1,1,1,0,15,15,15,,,,,,,,,,,,,,,,,,,,,,,,,,,,,,,,,,,,,,,,,,,,,,,,,,,,,,,,,,,,,False,True,False,0.48,0.48,7.98,-14.7,1.5,-13.2,-5.85,gamble,lose,-13.2,99.48208333333334,650.9447462950775,None,650.9447462950775,None,650.9447462950775,None,650.9447462950775,None,650.9447462950775,None,650.9447462950775,None,650.9447462950775,None,1,1.86757983417192,650.9447462950775,None,652.845425491003,None,652.845425491003,None,652.845425491003,None,652.845425491003,None,652.845425491003,None,652.845425491003,None,652.845425491003,None,656.8469719688437,None,656.8469719688437,None,656.8469719688437,None,656.8469719688437,None,656.8469719688437,None,656.8469719688437,None,656.8469719688437,None,666.3339649797854,None,657.8307049929426,None,658.8310633739165,None,0.41,7.502766573044937,661.8321756348305,None,None,661.8321756348305,None,,,,,,,,,,,,,,,,,,,23809,2019_Dec_12_1559,Mmi_3levels,3.1.5,59.97604923766995,
,,,2,0,3.9,,,,,,,,,0,1,1,1,0,16,16,23,,,,,,,,,,,,,,,,,,,,,,,,,,,,,,,,,,,,,,,,,,,,,,,,,,,,,,,,,,,,,False,True,True,0.41,0.41,8.39,-14.129999999999999,3.9,-10.229999999999999,-3.164999999999999,certain,certain,-3.164999999999999,96.31708333333333,668.3513464564749,None,668.3513464564749,None,668.3513464564749,None,668.3513464564749,None,668.3513464564749,None,668.3513464564749,None,668.3513464564749,None,3,1.600891600639443,668.3513464564749,None,669.9853242995741,None,669.9853242995741,None,669.9853242995741,None,669.9853242995741,None,669.9853242995741,None,669.9853242995741,None,669.9853242995741,None,673.986828539666,None,673.986828539666,None,673.986828539666,None,673.986828539666,None,673.986828539666,None,673.986828539666,None,673.986828539666,None,674.9706156408938,None,,,,,,,,,,,,,,,,,,,,,,,,,,,,,,23809,2019_Dec_12_1559,Mmi_3levels,3.1.5,59.97604923766995,
,,,2,0,8.5,,,,,,,,,0,1,1,1,0,17,17,5,,,,,,,,,,,,,,,,,,,,,,,,,,,,,,,,,,,,,,,,,,,,,,,,,,,,,,,,,,,,,False,True,False,0.41,0.41,8.8,-14.54,8.5,-6.039999999999999,1.2300000000000004,gamble,lose,-6.039999999999999,90.27708333333334,676.9880041572178,None,676.9880041572178,None,676.9880041572178,None,676.9880041572178,None,676.9880041572178,None,676.9880041572178,None,676.9880041572178,None,1,1.4341356587101473,676.9880041572178,None,678.4552202986961,None,678.4552202986961,None,678.4552202986961,None,678.4552202986961,None,678.4552202986961,None,678.4552202986961,None,678.4552202986961,None,682.4400959821069,None,682.4400959821069,None,682.4400959821069,None,682.4400959821069,None,682.4400959821069,None,682.4400959821069,None,682.4400959821069,None,683.4404495633207,None,,,,,,,,,,,,,,,,,,,,,,,,,,,,,,23809,2019_Dec_12_1559,Mmi_3levels,3.1.5,59.97604923766995,
,,,2,0,4.5,,,,,,,,,0,1,1,1,0,18,18,17,,,,,,,,,,,,,,,,,,,,,,,,,,,,,,,,,,,,,,,,,,,,,,,,,,,,,,,,,,,,,False,True,True,0.41,0.41,9.21,-14.95,4.5,-10.45,-2.9749999999999996,certain,certain,-2.9749999999999996,87.30208333333334,685.4579286348308,None,685.4579286348308,None,685.4579286348308,None,685.4579286348308,None,685.4579286348308,None,685.4579286348308,None,685.4579286348308,None,3,1.5675916095206048,685.4579286348308,None,687.0585024923494,None,687.0585024923494,None,687.0585024923494,None,687.0585024923494,None,687.0585024923494,None,687.0585024923494,None,687.0585024923494,None,691.0600678491901,None,691.0600678491901,None,691.0600678491901,None,691.0600678491901,None,691.0600678491901,None,691.0600678491901,None,691.0600678491901,None,700.5469373466913,None,692.0437359167408,None,693.0441019772989,None,0.39,7.502668338260264,696.045227037539,None,None,696.045227037539,None,,,,,,,,,,,,,,,,,,,23809,2019_Dec_12_1559,Mmi_3levels,3.1.5,59.97604923766995,
,,,2,0,3.7,,,,,,,,,0,1,1,1,0,19,19,13,,,,,,,,,,,,,,,,,,,,,,,,,,,,,,,,,,,,,,,,,,,,,,,,,,,,,,,,,,,,,False,True,False,0.39,0.39,9.600000000000001,-15.060000000000002,3.7,-11.360000000000003,-3.8300000000000014,gamble,lose,-11.360000000000003,75.94208333333334,702.5644090585847,None,702.5644090585847,None,702.5644090585847,None,702.5644090585847,None,702.5644090585847,None,702.5644090585847,None,702.5644090585847,None,1,1.0506270706828218,702.5644090585847,None,703.6481706891791,None,703.6481706891791,None,703.6481706891791,None,703.6481706891791,None,703.6481706891791,None,703.6481706891791,None,703.6481706891791,None,707.6496710894717,None,707.6496710894717,None,707.6496710894717,None,707.6496710894717,None,707.6496710894717,None,707.6496710894717,None,707.6496710894717,None,708.6333999537892,None,,,,,,,,,,,,,,,,,,,,,,,,,,,,,,23809,2019_Dec_12_1559,Mmi_3levels,3.1.5,59.97604923766995,
,,,2,0,10.5,,,,,,,,,0,1,1,1,0,20,20,24,,,,,,,,,,,,,,,,,,,,,,,,,,,,,,,,,,,,,,,,,,,,,,,,,,,,,,,,,,,,,False,False,True,0.39,0.39,9.990000000000002,2.1975000000000002,2.625,0.42749999999999977,1.5262499999999999,gamble,win,2.625,78.56708333333334,710.6508364675683,None,710.6508364675683,None,710.6508364675683,None,710.6508364675683,None,710.6508364675683,None,710.6508364675683,None,710.6508364675683,None,1,1.1840855813788949,710.6508364675683,None,711.8680463693745,None,711.8680463693745,None,711.8680463693745,None,711.8680463693745,None,711.8680463693745,None,711.8680463693745,None,711.8680463693745,None,715.8528522964916,None,715.8528522964916,None,715.8528522964916,None,715.8528522964916,None,715.8528522964916,None,715.8528522964916,None,715.8528522964916,None,725.3564514652971,None,716.8531828389241,None,717.8535991368117,None,0.37,7.502722735371208,720.8547056380339,None,None,720.8547056380339,None,,,,,,,,,,,,,,,,,,,23809,2019_Dec_12_1559,Mmi_3levels,3.1.5,59.97604923766995,
,,,2,0,8.9,,,,,,,,,0,1,1,1,0,21,21,8,,,,,,,,,,,,,,,,,,,,,,,,,,,,,,,,,,,,,,,,,,,,,,,,,,,,,,,,,,,,,False,True,True,0.37,0.37,10.360000000000001,-15.540000000000001,8.9,-6.640000000000001,1.13,gamble,lose,-6.640000000000001,71.92708333333334,727.3739116578072,None,727.3739116578072,None,727.3739116578072,None,727.3739116578072,None,727.3739116578072,None,727.3739116578072,None,727.3739116578072,None,1,0.9172152775281575,727.3739116578072,None,728.3242221373221,None,728.3242221373221,None,728.3242221373221,None,728.3242221373221,None,728.3242221373221,None,728.3242221373221,None,728.3242221373221,None,732.309125019281,None,732.309125019281,None,732.309125019281,None,732.309125019281,None,732.309125019281,None,732.309125019281,None,732.309125019281,None,733.3094961995666,None,,,,,,,,,,,,,,,,,,,,,,,,,,,,,,23809,2019_Dec_12_1559,Mmi_3levels,3.1.5,59.97604923766995,
,,,2,0,-0.9,,,,,,,,,0,1,1,1,0,22,22,11,,,,,,,,,,,,,,,,,,,,,,,,,,,,,,,,,,,,,,,,,,,,,,,,,,,,,,,,,,,,,False,True,False,0.37,0.37,10.73,-15.91,-0.9,-16.81,-8.854999999999999,certain,certain,-8.854999999999999,63.072083333333346,735.327021988589,None,735.327021988589,None,735.327021988589,None,735.327021988589,None,735.327021988589,None,735.327021988589,None,735.327021988589,None,3,1.9675607631652383,735.327021988589,None,737.3277083521243,None,737.3277083521243,None,737.3277083521243,None,737.3277083521243,None,737.3277083521243,None,737.3277083521243,None,737.3277083521243,None,741.3292045926501,None,741.3292045926501,None,741.3292045926501,None,741.3292045926501,None,741.3292045926501,None,741.3292045926501,None,741.3292045926501,None,750.816116007918,None,742.3129478562041,None,743.3134047919302,None,0.26,7.50294256368943,746.3144575360202,None,None,746.3144575360202,None,,,,,,,,,,,,,,,,,,,23809,2019_Dec_12_1559,Mmi_3levels,3.1.5,59.97604923766995,
,,,2,0,1.1,,,,,,,,,0,1,1,1,0,23,23,3,,,,,,,,,,,,,,,,,,,,,,,,,,,,,,,,,,,,,,,,,,,,,,,,,,,,,,,,,,,,,False,True,True,0.26,0.26,10.99,-14.63,1.1,-13.530000000000001,-6.215000000000001,gamble,lose,-13.530000000000001,49.542083333333345,752.8335707607184,None,752.8335707607184,None,752.8335707607184,None,752.8335707607184,None,752.8335707607184,None,752.8335707607184,None,752.8335707607184,None,1,1.1507094343105564,752.8335707607184,None,754.0173366790696,None,754.0173366790696,None,754.0173366790696,None,754.0173366790696,None,754.0173366790696,None,754.0173366790696,None,754.0173366790696,None,758.0022309214983,None,758.0022309214983,None,758.0022309214983,None,758.0022309214983,None,758.0022309214983,None,758.0022309214983,None,758.0022309214983,None,759.0025944221852,None,,,,,,,,,,,,,,,,,,,,,,,,,,,,,,23809,2019_Dec_12_1559,Mmi_3levels,3.1.5,59.97604923766995,
,,,2,0,9.3,,,,,,,,,0,1,1,1,0,24,24,21,,,,,,,,,,,,,,,,,,,,,,,,,,,,,,,,,,,,,,,,,,,,,,,,,,,,,,,,,,,,,False,True,False,0.26,0.26,11.25,-14.89,9.3,-5.59,1.8550000000000004,gamble,lose,-5.59,43.95208333333335,761.0200286960753,None,761.0200286960753,None,761.0200286960753,None,761.0200286960753,None,761.0200286960753,None,761.0200286960753,None,761.0200286960753,None,1,1.4507978136098245,761.0200286960753,None,762.503924591525,None,762.503924591525,None,762.503924591525,None,762.503924591525,None,762.503924591525,None,762.503924591525,None,762.503924591525,None,766.5055069074733,None,766.5055069074733,None,766.5055069074733,None,766.5055069074733,None,766.5055069074733,None,766.5055069074733,None,766.5055069074733,None,767.489138816949,None,,,,,,,,,,,,,,,,,,,,,,,,,,,,,,23809,2019_Dec_12_1559,Mmi_3levels,3.1.5,59.97604923766995,
,,,2,0,11.3,,,,,,,,,0,1,1,1,0,25,25,14,,,,,,,,,,,,,,,,,,,,,,,,,,,,,,,,,,,,,,,,,,,,,,,,,,,,,,,,,,,,,False,False,True,0.26,0.26,11.51,1.8691666666666666,2.825,0.9558333333333335,1.8904166666666669,gamble,win,2.825,46.77708333333335,769.5066204483155,None,769.5066204483155,None,769.5066204483155,None,769.5066204483155,None,769.5066204483155,None,769.5066204483155,None,769.5066204483155,None,1,1.167375429009553,769.5066204483155,None,770.7070494815271,None,770.7070494815271,None,770.7070494815271,None,770.7070494815271,None,770.7070494815271,None,770.7070494815271,None,770.7070494815271,None,774.6919574832136,None,774.6919574832136,None,774.6919574832136,None,774.6919574832136,None,774.6919574832136,None,774.6919574832136,None,774.6919574832136,None,784.1955313733779,None,775.6923174640979,None,776.6926899243117,None,0.24,7.502666098385816,779.6938274638815,None,None,779.6938274638815,None,,,,,,,,,,,,,,,,,,,23809,2019_Dec_12_1559,Mmi_3levels,3.1.5,59.97604923766995,
,,,2,0,12.9,,,,,,,,,0,1,1,1,0,26,26,9,,,,,,,,,,,,,,,,,,,,,,,,,,,,,,,,,,,,,,,,,,,,,,,,,,,,,,,,,,,,,False,True,False,0.24,0.24,11.75,-15.11,12.9,-2.209999999999999,-1.1049999999999995,gamble,lose,-2.209999999999999,44.56708333333335,786.2130210043251,None,786.2130210043251,None,786.2130210043251,None,786.2130210043251,None,786.2130210043251,None,786.2130210043251,None,786.2130210043251,None,1,1.4840984446927905,786.2130210043251,None,787.7302597686066,None,787.7302597686066,None,787.7302597686066,None,787.7302597686066,None,787.7302597686066,None,787.7302597686066,None,787.7302597686066,None,791.7317595289351,None,791.7317595289351,None,791.7317595289351,None,791.7317595289351,None,791.7317595289351,None,791.7317595289351,None,791.7317595289351,None,792.7154787937616,None,,,,,,,,,,,,,,,,,,,,,,,,,,,,,,23809,2019_Dec_12_1559,Mmi_3levels,3.1.5,59.97604923766995,
,,,3,1,7.7,,,,,,,,,0,2,2,2,0,0,0,12,,,,,,,,,,,,,,,,,,,,,,,,,,,,,,,,,,,,,,,,,,,,,,,,,798.5343546550866,None,0.36,7.502056530764094,801.5354694758571,None,None,,801.5354694758571,None,806.0372085834824,None,True,True,True,0.36,-0.64,-0.64,9.600000000000001,7.7,-1.9000000000000012,-0.9500000000000006,gamble,win,7.7,52.26708333333335,809.071796186181,None,809.071796186181,None,809.071796186181,None,809.071796186181,None,809.071796186181,None,809.071796186181,None,809.071796186181,None,1,1.150613439414883,809.071796186181,None,810.2554923482385,None,810.2554923482385,None,810.2554923482385,None,810.2554923482385,None,810.2554923482385,None,810.2554923482385,None,810.2554923482385,None,814.2570289066207,None,814.2570289066207,None,814.2570289066207,None,814.2570289066207,None,814.2570289066207,None,814.2570289066207,None,814.2570289066207,None,823.7439835195983,None,815.2407308923721,None,816.2412169465533,None,0.53,7.50276145330281,819.2422872897005,None,None,819.2422872897005,None,794.7162371534796,None,4,3.8016566159931244,794.7162371534796,None,,,,,,,,,,,,,23809,2019_Dec_12_1559,Mmi_3levels,3.1.5,59.97604923766995,
,,,3,1,8.5,,,,,,,,,0,2,2,2,0,1,1,16,,,,,,,,,,,,,,,,,,,,,,,,,,,,,,,,,,,,,,,,,,,,,,,,,,,,,,,,,,,,,True,True,True,0.53,-0.47,-1.1099999999999999,7.6899999999999995,8.5,0.8100000000000005,0.40500000000000025,gamble,win,8.5,60.76708333333335,825.761413633707,None,825.761413633707,None,825.761413633707,None,825.761413633707,None,825.761413633707,None,825.761413633707,None,825.761413633707,None,1,0.9672615790768759,825.761413633707,None,826.7617992132291,None,826.7617992132291,None,826.7617992132291,None,826.7617992132291,None,826.7617992132291,None,826.7617992132291,None,826.7617992132291,None,830.7632967336831,None,830.7632967336831,None,830.7632967336831,None,830.7632967336831,None,830.7632967336831,None,830.7632967336831,None,830.7632967336831,None,831.7470054390724,None,,,,,,,,,,,,,,,,,,,,,,,,,,,,,,23809,2019_Dec_12_1559,Mmi_3levels,3.1.5,59.97604923766995,
,,,3,1,12.5,,,,,,,,,0,2,2,2,0,2,2,24,,,,,,,,,,,,,,,,,,,,,,,,,,,,,,,,,,,,,,,,,,,,,,,,,,,,,,,,,,,,,True,True,True,0.53,-0.47,-1.5799999999999998,8.16,12.5,4.34,2.17,gamble,win,12.5,73.26708333333335,833.7644406729087,None,833.7644406729087,None,833.7644406729087,None,833.7644406729087,None,833.7644406729087,None,833.7644406729087,None,833.7644406729087,None,1,1.0339850747113815,833.7644406729087,None,834.8315161498613,None,834.8315161498613,None,834.8315161498613,None,834.8315161498613,None,834.8315161498613,None,834.8315161498613,None,834.8315161498613,None,838.8330501483724,None,838.8330501483724,None,838.8330501483724,None,838.8330501483724,None,838.8330501483724,None,838.8330501483724,None,838.8330501483724,None,839.8168122909265,None,,,,,,,,,,,,,,,,,,,,,,,,,,,,,,23809,2019_Dec_12_1559,Mmi_3levels,3.1.5,59.97604923766995,
,,,3,1,6.3,,,,,,,,,0,2,2,2,0,3,3,3,,,,,,,,,,,,,,,,,,,,,,,,,,,,,,,,,,,,,,,,,,,,,,,,,,,,,,,,,,,,,True,True,False,0.53,-0.47,-2.05,8.629999999999999,6.3,-2.329999999999999,1.9850000000000003,gamble,win,6.3,79.56708333333334,841.8342123266339,None,841.8342123266339,None,841.8342123266339,None,841.8342123266339,None,841.8342123266339,None,841.8342123266339,None,841.8342123266339,None,1,1.35079288588895,841.8342123266339,None,843.2180776957102,None,843.2180776957102,None,843.2180776957102,None,843.2180776957102,None,843.2180776957102,None,843.2180776957102,None,843.2180776957102,None,847.202953059139,None,847.202953059139,None,847.202953059139,None,847.202953059139,None,847.202953059139,None,847.202953059139,None,847.202953059139,None,856.7065541478369,None,848.2032826416253,None,849.2036471022584,None,0.6,7.502785452030366,852.2048172801005,None,None,852.2048172801005,None,,,,,,,,,,,,,,,,,,,23809,2019_Dec_12_1559,Mmi_3levels,3.1.5,59.97604923766995,
,,,3,1,0.7,,,,,,,,,0,2,2,2,0,4,4,26,,,,,,,,,,,,,,,,,,,,,,,,,,,,,,,,,,,,,,,,,,,,,,,,,,,,,,,,,,,,,True,True,False,0.6,-0.4,-2.4499999999999997,8.05,0.7,-7.3500000000000005,-3.325,gamble,win,0.7,80.26708333333335,858.7239961013256,None,858.7239961013256,None,858.7239961013256,None,858.7239961013256,None,858.7239961013256,None,858.7239961013256,None,858.7239961013256,None,1,1.0673439426900586,858.7239961013256,None,859.8244304462569,None,859.8244304462569,None,859.8244304462569,None,859.8244304462569,None,859.8244304462569,None,859.8244304462569,None,859.8244304462569,None,863.8259110076033,None,863.8259110076033,None,863.8259110076033,None,863.8259110076033,None,863.8259110076033,None,863.8259110076033,None,863.8259110076033,None,864.8096417918277,None,,,,,,,,,,,,,,,,,,,,,,,,,,,,,,23809,2019_Dec_12_1559,Mmi_3levels,3.1.5,59.97604923766995,
,,,3,1,3.7,,,,,,,,,0,2,2,2,0,5,5,19,,,,,,,,,,,,,,,,,,,,,,,,,,,,,,,,,,,,,,,,,,,,,,,,,,,,,,,,,,,,,True,True,True,0.6,-0.4,-2.8499999999999996,8.45,3.7,-4.749999999999999,-0.5249999999999995,gamble,win,3.7,83.96708333333335,866.8270536669152,None,866.8270536669152,None,866.8270536669152,None,866.8270536669152,None,866.8270536669152,None,866.8270536669152,None,866.8270536669152,None,1,1.1840574228699552,866.8270536669152,None,868.0442056517932,None,868.0442056517932,None,868.0442056517932,None,868.0442056517932,None,868.0442056517932,None,868.0442056517932,None,868.0442056517932,None,872.0457220512471,None,872.0457220512471,None,872.0457220512471,None,872.0457220512471,None,872.0457220512471,None,872.0457220512471,None,872.0457220512471,None,881.5326789040992,None,873.0294230770378,None,874.0298224158323,None,0.61,7.502771692772512,877.030914197836,None,None,877.030914197836,None,,,,,,,,,,,,,,,,,,,23809,2019_Dec_12_1559,Mmi_3levels,3.1.5,59.97604923766995,
,,,3,1,11.5,,,,,,,,,0,2,2,2,0,6,6,4,,,,,,,,,,,,,,,,,,,,,,,,,,,,,,,,,,,,,,,,,,,,,,,,,,,,,,,,,,,,,True,True,True,0.61,-0.39,-3.2399999999999998,8.7,11.5,2.8000000000000007,1.4000000000000004,gamble,win,11.5,95.46708333333335,883.5501522159175,None,883.5501522159175,None,883.5501522159175,None,883.5501522159175,None,883.5501522159175,None,883.5501522159175,None,883.5501522159175,None,1,1.150652157361037,883.5501522159175,None,884.7339853306912,None,884.7339853306912,None,884.7339853306912,None,884.7339853306912,None,884.7339853306912,None,884.7339853306912,None,884.7339853306912,None,888.7354681319266,None,888.7354681319266,None,888.7354681319266,None,888.7354681319266,None,888.7354681319266,None,888.7354681319266,None,888.7354681319266,None,889.7191179604561,None,,,,,,,,,,,,,,,,,,,,,,,,,,,,,,23809,2019_Dec_12_1559,Mmi_3levels,3.1.5,59.97604923766995,
,,,3,1,-0.5,,,,,,,,,0,2,2,2,0,7,7,25,,,,,,,,,,,,,,,,,,,,,,,,,,,,,,,,,,,,,,,,,,,,,,,,,,,,,,,,,,,,,True,True,False,0.61,-0.39,-3.63,9.09,-0.5,-9.59,-5.045,gamble,win,-0.5,94.96708333333335,891.7365423148731,None,891.7365423148731,None,891.7365423148731,None,891.7365423148731,None,891.7365423148731,None,891.7365423148731,None,891.7365423148731,None,1,1.4174882230145158,891.7365423148731,None,893.1871302196378,None,893.1871302196378,None,893.1871302196378,None,893.1871302196378,None,893.1871302196378,None,893.1871302196378,None,893.1871302196378,None,897.1886568585469,None,897.1886568585469,None,897.1886568585469,None,897.1886568585469,None,897.1886568585469,None,897.1886568585469,None,897.1886568585469,None,906.67555963427,None,898.1723431651335,None,899.1727745022217,None,0.59,7.5027963314641966,902.1739034022467,None,None,902.1739034022467,None,,,,,,,,,,,,,,,,,,,23809,2019_Dec_12_1559,Mmi_3levels,3.1.5,59.97604923766995,
,,,3,1,8.9,,,,,,,,,0,2,2,2,0,8,8,2,,,,,,,,,,,,,,,,,,,,,,,,,,,,,,,,,,,,,,,,,,,,,,,,,,,,,,,,,,,,,True,True,True,0.59,-0.41000000000000003,-4.04,9.780000000000001,8.9,-0.8800000000000008,-0.4400000000000004,gamble,win,8.9,103.86708333333335,908.6929935881781,None,908.6929935881781,None,908.6929935881781,None,908.6929935881781,None,908.6929935881781,None,908.6929935881781,None,908.6929935881781,None,1,1.0673407428548671,908.6929935881781,None,909.7934656910948,None,909.7934656910948,None,909.7934656910948,None,909.7934656910948,None,909.7934656910948,None,909.7934656910948,None,909.7934656910948,None,913.7949888101866,None,913.7949888101866,None,913.7949888101866,None,913.7949888101866,None,913.7949888101866,None,913.7949888101866,None,913.7949888101866,None,914.7786751167732,None,,,,,,,,,,,,,,,,,,,,,,,,,,,,,,23809,2019_Dec_12_1559,Mmi_3levels,3.1.5,59.97604923766995,
,,,3,1,-1.5,,,,,,,,,0,2,2,2,0,9,9,17,,,,,,,,,,,,,,,,,,,,,,,,,,,,,,,,,,,,,,,,,,,,,,,,,,,,,,,,,,,,,True,True,False,0.59,-0.41000000000000003,-4.45,10.190000000000001,-1.5,-11.690000000000001,-6.595000000000001,gamble,win,-1.5,102.36708333333335,916.7961263497709,None,916.7961263497709,None,916.7961263497709,None,916.7961263497709,None,916.7961263497709,None,916.7961263497709,None,916.7961263497709,None,1,1.9510736389784142,916.7961263497709,None,918.7802551928471,None,918.7802551928471,None,918.7802551928471,None,918.7802551928471,None,918.7802551928471,None,918.7802551928471,None,918.7802551928471,None,922.7817399139749,None,922.7817399139749,None,922.7817399139749,None,922.7817399139749,None,922.7817399139749,None,922.7817399139749,None,922.7817399139749,None,923.7654175810167,None,,,,,,,,,,,,,,,,,,,,,,,,,,,,,,23809,2019_Dec_12_1559,Mmi_3levels,3.1.5,59.97604923766995,
,,,3,1,5.9,,,,,,,,,0,2,2,2,0,10,10,23,,,,,,,,,,,,,,,,,,,,,,,,,,,,,,,,,,,,,,,,,,,,,,,,,,,,,,,,,,,,,True,False,False,0.59,-0.41000000000000003,-4.86,-1.84,5.9,4.0600000000000005,2.0300000000000002,gamble,lose,4.0600000000000005,106.42708333333336,925.7829321706377,None,925.7829321706377,None,925.7829321706377,None,925.7829321706377,None,925.7829321706377,None,925.7829321706377,None,925.7829321706377,None,1,1.1006452137226006,925.7829321706377,None,926.9166540273436,None,926.9166540273436,None,926.9166540273436,None,926.9166540273436,None,926.9166540273436,None,926.9166540273436,None,926.9166540273436,None,930.9015105117578,None,930.9015105117578,None,930.9015105117578,None,930.9015105117578,None,930.9015105117578,None,930.9015105117578,None,930.9015105117578,None,940.405143598764,None,931.9019146502978,None,932.9022535122931,None,0.55,7.502807530865539,935.9034156905545,None,None,935.9034156905545,None,,,,,,,,,,,,,,,,,,,23809,2019_Dec_12_1559,Mmi_3levels,3.1.5,59.97604923766995,
,,,3,1,6.5,,,,,,,,,0,2,2,2,0,11,11,6,,,,,,,,,,,,,,,,,,,,,,,,,,,,,,,,,,,,,,,,,,,,,,,,,,,,,,,,,,,,,True,True,False,0.55,-0.44999999999999996,-5.3100000000000005,11.61,6.5,-5.109999999999999,0.6950000000000003,gamble,win,6.5,112.92708333333336,942.4225778726686,None,942.4225778726686,None,942.4225778726686,None,942.4225778726686,None,942.4225778726686,None,942.4225778726686,None,942.4225778726686,None,1,1.150698554891278,942.4225778726686,None,943.6063578702742,None,943.6063578702742,None,943.6063578702742,None,943.6063578702742,None,943.6063578702742,None,943.6063578702742,None,943.6063578702742,None,947.5912156346312,None,947.5912156346312,None,947.5912156346312,None,947.5912156346312,None,947.5912156346312,None,947.5912156346312,None,947.5912156346312,None,948.5916482516477,None,,,,,,,,,,,,,,,,,,,,,,,,,,,,,,23809,2019_Dec_12_1559,Mmi_3levels,3.1.5,59.97604923766995,
,,,3,1,11.3,,,,,,,,,0,2,2,2,0,12,12,10,,,,,,,,,,,,,,,,,,,,,,,,,,,,,,,,,,,,,,,,,,,,,,,,,,,,,,,,,,,,,True,True,False,0.55,-0.44999999999999996,-5.760000000000001,12.059999999999999,11.3,-0.759999999999998,-0.379999999999999,gamble,win,11.3,124.22708333333335,950.6090623666096,None,950.6090623666096,None,950.6090623666096,None,950.6090623666096,None,950.6090623666096,None,950.6090623666096,None,950.6090623666096,None,1,1.5341431463166373,950.6090623666096,None,952.1763167140598,None,952.1763167140598,None,952.1763167140598,None,952.1763167140598,None,952.1763167140598,None,952.1763167140598,None,952.1763167140598,None,956.1778545523703,None,956.1778545523703,None,956.1778545523703,None,956.1778545523703,None,956.1778545523703,None,956.1778545523703,None,956.1778545523703,None,965.6647797268961,None,957.1615216599748,None,958.1618992399162,None,0.57,7.502740974392509,961.1630329396867,None,None,961.1630329396867,None,,,,,,,,,,,,,,,,,,,23809,2019_Dec_12_1559,Mmi_3levels,3.1.5,59.97604923766995,
,,,3,1,7.3,,,,,,,,,0,2,2,2,0,13,13,0,,,,,,,,,,,,,,,,,,,,,,,,,,,,,,,,,,,,,,,,,,,,,,,,,,,,,,,,,,,,,True,True,True,0.57,-0.43000000000000005,-6.19,12.21,7.3,-4.910000000000001,1.1949999999999994,gamble,win,7.3,131.52708333333337,967.6823029560619,None,967.6823029560619,None,967.6823029560619,None,967.6823029560619,None,967.6823029560619,None,967.6823029560619,None,967.6823029560619,None,1,1.1672851938055828,967.6823029560619,None,968.8827035107824,None,968.8827035107824,None,968.8827035107824,None,968.8827035107824,None,968.8827035107824,None,968.8827035107824,None,968.8827035107824,None,972.8841501539428,None,972.8841501539428,None,972.8841501539428,None,972.8841501539428,None,972.8841501539428,None,972.8841501539428,None,972.8841501539428,None,973.8679750131705,None,,,,,,,,,,,,,,,,,,,,,,,,,,,,,,23809,2019_Dec_12_1559,Mmi_3levels,3.1.5,59.97604923766995,
,,,3,1,6.7,,,,,,,,,0,2,2,2,0,14,14,20,,,,,,,,,,,,,,,,,,,,,,,,,,,,,,,,,,,,,,,,,,,,,,,,,,,,,,,,,,,,,True,True,True,0.57,-0.43000000000000005,-6.62,12.64,6.7,-5.94,0.3799999999999999,gamble,win,6.7,138.22708333333335,975.8853372908779,None,975.8853372908779,None,975.8853372908779,None,975.8853372908779,None,975.8853372908779,None,975.8853372908779,None,975.8853372908779,None,1,1.617535516503267,975.8853372908779,None,977.5359737690742,None,977.5359737690742,None,977.5359737690742,None,977.5359737690742,None,977.5359737690742,None,977.5359737690742,None,977.5359737690742,None,981.520819054087,None,981.520819054087,None,981.520819054087,None,981.520819054087,None,981.520819054087,None,981.520819054087,None,981.520819054087,None,982.5212075134623,None,,,,,,,,,,,,,,,,,,,,,,,,,,,,,,23809,2019_Dec_12_1559,Mmi_3levels,3.1.5,59.97604923766995,
,,,3,1,8.7,,,,,,,,,0,2,2,2,0,15,15,7,,,,,,,,,,,,,,,,,,,,,,,,,,,,,,,,,,,,,,,,,,,,,,,,,,,,,,,,,,,,,True,True,True,0.57,-0.43000000000000005,-7.05,13.07,8.7,-4.370000000000001,-2.1850000000000005,gamble,win,8.7,146.92708333333334,984.5386459471192,None,984.5386459471192,None,984.5386459471192,None,984.5386459471192,None,984.5386459471192,None,984.5386459471192,None,984.5386459471192,None,1,1.2340662864007754,984.5386459471192,None,985.8058211947791,None,985.8058211947791,None,985.8058211947791,None,985.8058211947791,None,985.8058211947791,None,985.8058211947791,None,985.8058211947791,None,989.8073139154876,None,989.8073139154876,None,989.8073139154876,None,989.8073139154876,None,989.8073139154876,None,989.8073139154876,None,989.8073139154876,None,999.2942480495403,None,990.7910059817659,None,991.7914030806714,None,0.59,7.502807210883475,994.7925364604598,None,None,994.7925364604598,None,,,,,,,,,,,,,,,,,,,23809,2019_Dec_12_1559,Mmi_3levels,3.1.5,59.97604923766995,
,,,3,1,9.1,,,,,,,,,0,2,2,2,0,16,16,18,,,,,,,,,,,,,,,,,,,,,,,,,,,,,,,,,,,,,,,,,,,,,,,,,,,,,,,,,,,,,True,True,True,0.59,-0.41000000000000003,-7.46,13.2,9.1,-4.1,-2.05,gamble,win,9.1,156.02708333333334,1001.3117946374696,None,1001.3117946374696,None,1001.3117946374696,None,1001.3117946374696,None,1001.3117946374696,None,1001.3117946374696,None,1001.3117946374696,None,1,1.033890039747348,1001.3117946374696,None,1002.3787680398382,None,1002.3787680398382,None,1002.3787680398382,None,1002.3787680398382,None,1002.3787680398382,None,1002.3787680398382,None,1002.3787680398382,None,1006.3636302839586,None,1006.3636302839586,None,1006.3636302839586,None,1006.3636302839586,None,1006.3636302839586,None,1006.3636302839586,None,1006.3636302839586,None,1007.3640193832834,None,,,,,,,,,,,,,,,,,,,,,,,,,,,,,,23809,2019_Dec_12_1559,Mmi_3levels,3.1.5,59.97604923766995,
,,,3,1,9.9,,,,,,,,,0,2,2,2,0,17,17,22,,,,,,,,,,,,,,,,,,,,,,,,,,,,,,,,,,,,,,,,,,,,,,,,,,,,,,,,,,,,,True,True,True,0.59,-0.41000000000000003,-7.87,13.61,9.9,-3.709999999999999,-1.8549999999999995,gamble,win,9.9,165.92708333333334,1009.3814718962094,None,1009.3814718962094,None,1009.3814718962094,None,1009.3814718962094,None,1009.3814718962094,None,1009.3814718962094,None,1009.3814718962094,None,1,1.6673354311351432,1009.3814718962094,None,1011.0821341970295,None,1011.0821341970295,None,1011.0821341970295,None,1011.0821341970295,None,1011.0821341970295,None,1011.0821341970295,None,1011.0821341970295,None,1015.0836617958848,None,1015.0836617958848,None,1015.0836617958848,None,1015.0836617958848,None,1015.0836617958848,None,1015.0836617958848,None,1015.0836617958848,None,1024.5705543321528,None,1016.0673353031452,None,1017.0677138430328,None,0.68,7.502763373209746,1020.0688373033627,None,None,1020.0688373033627,None,,,,,,,,,,,,,,,,,,,23809,2019_Dec_12_1559,Mmi_3levels,3.1.5,59.97604923766995,
,,,3,1,4.5,,,,,,,,,0,2,2,2,0,18,18,5,,,,,,,,,,,,,,,,,,,,,,,,,,,,,,,,,,,,,,,,,,,,,,,,,,,,,,,,,,,,,True,True,True,0.68,-0.31999999999999995,-8.19,12.669999999999998,4.5,-8.169999999999998,-1.834999999999999,gamble,win,4.5,170.42708333333334,1026.5880974002648,None,1026.5880974002648,None,1026.5880974002648,None,1026.5880974002648,None,1026.5880974002648,None,1026.5880974002648,None,1026.5880974002648,None,1,1.1839665476873051,1026.5880974002648,None,1027.8051562701003,None,1027.8051562701003,None,1027.8051562701003,None,1027.8051562701003,None,1027.8051562701003,None,1027.8051562701003,None,1027.8051562701003,None,1031.8066473908839,None,1031.8066473908839,None,1031.8066473908839,None,1031.8066473908839,None,1031.8066473908839,None,1031.8066473908839,None,1031.8066473908839,None,1032.7904063336173,None,,,,,,,,,,,,,,,,,,,,,,,,,,,,,,23809,2019_Dec_12_1559,Mmi_3levels,3.1.5,59.97604923766995,
,,,3,1,13.5,,,,,,,,,0,2,2,2,0,19,19,15,,,,,,,,,,,,,,,,,,,,,,,,,,,,,,,,,,,,,,,,,,,,,,,,,,,,,,,,,,,,,True,True,False,0.68,-0.31999999999999995,-8.51,12.989999999999998,13.5,0.5100000000000016,0.2550000000000008,gamble,win,13.5,183.92708333333334,1034.8077990097227,None,1034.8077990097227,None,1034.8077990097227,None,1034.8077990097227,None,1034.8077990097227,None,1034.8077990097227,None,1034.8077990097227,None,1,1.2174367697589332,1034.8077990097227,None,1036.0582695447229,None,1036.0582695447229,None,1036.0582695447229,None,1036.0582695447229,None,1036.0582695447229,None,1036.0582695447229,None,1036.0582695447229,None,1040.059840981252,None,1040.059840981252,None,1040.059840981252,None,1040.059840981252,None,1040.059840981252,None,1040.059840981252,None,1040.059840981252,None,1049.546740877122,None,1041.0435416870605,None,1042.0439208669268,None,0.76,7.5027054562815465,1045.0450686459517,None,None,1045.0450686459517,None,,,,,,,,,,,,,,,,,,,23809,2019_Dec_12_1559,Mmi_3levels,3.1.5,59.97604923766995,
,,,3,1,7.9,,,,,,,,,0,2,2,2,0,20,20,14,,,,,,,,,,,,,,,,,,,,,,,,,,,,,,,,,,,,,,,,,,,,,,,,,,,,,,,,,,,,,True,False,False,0.76,-0.24,-8.75,-1.5691666666666666,7.9,6.3308333333333335,3.1654166666666668,gamble,lose,6.3308333333333335,190.2579166666667,1051.5642004296678,None,1051.5642004296678,None,1051.5642004296678,None,1051.5642004296678,None,1051.5642004296678,None,1051.5642004296678,None,1051.5642004296678,None,1,1.0006335663492791,1051.5642004296678,None,1052.597936877588,None,1052.597936877588,None,1052.597936877588,None,1052.597936877588,None,1052.597936877588,None,1052.597936877588,None,1052.597936877588,None,1056.582730325361,None,1056.582730325361,None,1056.582730325361,None,1056.582730325361,None,1056.582730325361,None,1056.582730325361,None,1056.582730325361,None,1057.5831658222305,None,,,,,,,,,,,,,,,,,,,,,,,,,,,,,,23809,2019_Dec_12_1559,Mmi_3levels,3.1.5,59.97604923766995,
,,,3,1,5.7,,,,,,,,,0,2,2,2,0,21,21,1,,,,,,,,,,,,,,,,,,,,,,,,,,,,,,,,,,,,,,,,,,,,,,,,,,,,,,,,,,,,,True,True,False,0.76,-0.24,-8.99,12.35,5.7,-6.6499999999999995,-0.47499999999999964,gamble,win,5.7,195.95791666666668,1059.600587936773,None,1059.600587936773,None,1059.600587936773,None,1059.600587936773,None,1059.600587936773,None,1059.600587936773,None,1059.600587936773,None,1,1.3841418343945406,1059.600587936773,None,1061.0178121738136,None,1061.0178121738136,None,1061.0178121738136,None,1061.0178121738136,None,1061.0178121738136,None,1061.0178121738136,None,1061.0178121738136,None,1065.0193183338124,None,1065.0193183338124,None,1065.0193183338124,None,1065.0193183338124,None,1065.0193183338124,None,1065.0193183338124,None,1065.0193183338124,None,1066.0030222394562,None,,,,,,,,,,,,,,,,,,,,,,,,,,,,,,23809,2019_Dec_12_1559,Mmi_3levels,3.1.5,59.97604923766995,
,,,3,1,10.7,,,,,,,,,0,2,2,2,0,22,22,21,,,,,,,,,,,,,,,,,,,,,,,,,,,,,,,,,,,,,,,,,,,,,,,,,,,,,,,,,,,,,True,True,True,0.76,-0.24,-9.23,12.59,10.7,-1.8900000000000006,-0.9450000000000003,gamble,win,10.7,206.65791666666667,1068.0205080306187,None,1068.0205080306187,None,1068.0205080306187,None,1068.0205080306187,None,1068.0205080306187,None,1068.0205080306187,None,1068.0205080306187,None,1,1.4841070842376212,1068.0205080306187,None,1069.5376853581547,None,1069.5376853581547,None,1069.5376853581547,None,1069.5376853581547,None,1069.5376853581547,None,1069.5376853581547,None,1069.5376853581547,None,1073.539246235232,None,1073.539246235232,None,1073.539246235232,None,1073.539246235232,None,1073.539246235232,None,1073.539246235232,None,1073.539246235232,None,1083.0262014881737,None,1074.5229607003275,None,1075.5233418000862,None,0.67,7.5027707328117685,1078.5244707001111,None,None,1078.5244707001111,None,,,,,,,,,,,,,,,,,,,23809,2019_Dec_12_1559,Mmi_3levels,3.1.5,59.97604923766995,
,,,3,1,6.9,,,,,,,,,0,2,2,2,0,23,23,9,,,,,,,,,,,,,,,,,,,,,,,,,,,,,,,,,,,,,,,,,,,,,,,,,,,,,,,,,,,,,True,True,True,0.67,-0.32999999999999996,-9.56,14.18,6.9,-7.279999999999999,-0.1899999999999995,gamble,win,6.9,213.55791666666667,1085.0436479214259,None,1085.0436479214259,None,1085.0436479214259,None,1085.0436479214259,None,1085.0436479214259,None,1085.0436479214259,None,1085.0436479214259,None,1,1.2507175618811743,1085.0436479214259,None,1086.32746164524,None,1086.32746164524,None,1086.32746164524,None,1086.32746164524,None,1086.32746164524,None,1086.32746164524,None,1086.32746164524,None,1090.329011322916,None,1090.329011322916,None,1090.329011322916,None,1090.329011322916,None,1090.329011322916,None,1090.329011322916,None,1090.329011322916,None,1091.31270274923,None,,,,,,,,,,,,,,,,,,,,,,,,,,,,,,23809,2019_Dec_12_1559,Mmi_3levels,3.1.5,59.97604923766995,
,,,3,1,1.5,,,,,,,,,0,2,2,2,0,24,24,8,,,,,,,,,,,,,,,,,,,,,,,,,,,,,,,,,,,,,,,,,,,,,,,,,,,,,,,,,,,,,True,False,True,0.67,-0.32999999999999996,-9.89,-1.9791666666666665,1.5,-0.4791666666666665,0.5104166666666667,gamble,lose,-0.4791666666666665,213.07875,1093.3301674215036,None,1093.3301674215036,None,1093.3301674215036,None,1093.3301674215036,None,1093.3301674215036,None,1093.3301674215036,None,1093.3301674215036,None,1,1.5174502730369568,1093.3301674215036,None,1094.880701697126,None,1094.880701697126,None,1094.880701697126,None,1094.880701697126,None,1094.880701697126,None,1094.880701697126,None,1094.880701697126,None,1098.8655780205008,None,1098.8655780205008,None,1098.8655780205008,None,1098.8655780205008,None,1098.8655780205008,None,1098.8655780205008,None,1098.8655780205008,None,1108.369230306489,None,1099.8659536805353,None,1100.8663360602222,None,0.53,7.502774892593152,1103.8674710399355,None,None,1103.8674710399355,None,,,,,,,,,,,,,,,,,,,23809,2019_Dec_12_1559,Mmi_3levels,3.1.5,59.97604923766995,
,,,3,1,10.3,,,,,,,,,0,2,2,2,0,25,25,13,,,,,,,,,,,,,,,,,,,,,,,,,,,,,,,,,,,,,,,,,,,,,,,,,,,,,,,,,,,,,True,True,True,0.53,-0.47,-10.360000000000001,16.94,10.3,-6.640000000000001,1.83,gamble,win,10.3,223.37875000000003,1110.3866437814868,None,1110.3866437814868,None,1110.3866437814868,None,1110.3866437814868,None,1110.3866437814868,None,1110.3866437814868,None,1110.3866437814868,None,1,1.3674979185161646,1110.3866437814868,None,1111.7872036237386,None,1111.7872036237386,None,1111.7872036237386,None,1111.7872036237386,None,1111.7872036237386,None,1111.7872036237386,None,1111.7872036237386,None,1115.7720626680239,None,1115.7720626680239,None,1115.7720626680239,None,1115.7720626680239,None,1115.7720626680239,None,1115.7720626680239,None,1115.7720626680239,None,1116.7724082496716,None,,,,,,,,,,,,,,,,,,,,,,,,,,,,,,23809,2019_Dec_12_1559,Mmi_3levels,3.1.5,59.97604923766995,
,,,3,1,7.1,,,,,,,,,0,2,2,2,0,26,26,11,,,,,,,,,,,,,,,,,,,,,,,,,,,,,,,,,,,,,,,,,,,,,,,,,,,,,,,,,,,,,True,True,True,0.53,-0.47,-10.830000000000002,17.410000000000004,7.1,-10.310000000000004,-1.6050000000000022,certain,certain,-1.6050000000000022,221.77375000000004,1118.7898425235617,None,1118.7898425235617,None,1118.7898425235617,None,1118.7898425235617,None,1118.7898425235617,None,1118.7898425235617,None,1118.7898425235617,None,3,1.8007648233615328,1118.7898425235617,None,1120.6238743797876,None,1120.6238743797876,None,1120.6238743797876,None,1120.6238743797876,None,1120.6238743797876,None,1120.6238743797876,None,1120.6238743797876,None,1124.6087567828363,None,1124.6087567828363,None,1124.6087567828363,None,1124.6087567828363,None,1124.6087567828363,None,1124.6087567828363,None,1124.6087567828363,None,1134.1123565916205,None,1125.6090866853192,None,1126.6095260219736,None,0.61,7.5027704128442565,1129.610600524902,None,None,1129.610600524902,None,,,,,,,,,,,,,,,,,,,23809,2019_Dec_12_1559,Mmi_3levels,3.1.5,59.97604923766995,
,,,,,,,,,,,,,,,,,,,,,,,,,,,,,,0,0,0,0,,,,,,,,,,,,,,,,,,,,,,,,,,,,,,,,,,,,,,,,,,,,,,,,,,,,,,,,,,,,,,,,,,,,,,,,,,,,,,,,,,,,,,,,,,,,,,,,,,,,,,,,,,,,,,,,,,,,,,,,,,1136.1130842329585,None,4,3.3849011540587526,1136.1130842329585,None,221.77375000000004,5,1139.5310773891688,None,1139.5310773891688,None,1139.5310773891688,None,4,10.037380734327598,1139.5310773891688,None,23809,2019_Dec_12_1559,Mmi_3levels,3.1.5,59.97604923766995,
