currSlide,currImage,currText,blockNum,targetHappiness,highAmount,instructionLoop1.thisRepN,instructionLoop1.thisTrialN,instructionLoop1.thisN,instructionLoop1.thisIndex,instructionLoop2.thisRepN,instructionLoop2.thisTrialN,instructionLoop2.thisN,instructionLoop2.thisIndex,blockLoop.thisRepN,blockLoop.thisTrialN,blockLoop.thisN,blockLoop.thisIndex,trialLoop.thisRepN,trialLoop.thisTrialN,trialLoop.thisN,trialLoop.thisIndex,doRatingLoop.thisRepN,doRatingLoop.thisTrialN,doRatingLoop.thisN,doRatingLoop.thisIndex,trialHappyLoop.thisRepN,trialHappyLoop.thisTrialN,trialHappyLoop.thisN,trialHappyLoop.thisIndex,logWinningsLoop.thisRepN,logWinningsLoop.thisTrialN,logWinningsLoop.thisN,logWinningsLoop.thisIndex,instrImage.started,instrImage.stopped,instrText.started,instrText.stopped,instrContinueText.started,instrContinueText.stopped,instrKeyResp.keys,instrKeyResp.rt,instrKeyResp.started,instrKeyResp.stopped,lifeHappyText.started,lifeHappyText.stopped,lifeHappySlider.response,lifeHappySlider.rt,lifeHappySlider.started,lifeHappySlider.stopped,lifeHappyResp.keys,lifeHappyResp.started,lifeHappyResp.stopped,instrImage_2.started,instrImage_2.stopped,instrText_2.started,instrText_2.stopped,instrContinueText_2.started,instrContinueText_2.stopped,instrKeyResp_2.keys,instrKeyResp_2.rt,instrKeyResp_2.started,instrKeyResp_2.stopped,localizing.started,localizing.stopped,start_exp.keys,start_exp.rt,start_exp.started,start_exp.stopped,blockHappyText.started,blockHappyText.stopped,blockHappySlider.response,blockHappySlider.rt,blockHappySlider.started,blockHappySlider.stopped,blockHappyResp.keys,blockHappyResp.started,blockHappyResp.stopped,blankText.started,blankText.stopped,isHappyBlock,isCongruent,isWinOnTop,lastHappyRating,diff,sumDiff,RPE,winAmount,loseAmount,certainAmount,choice,outcome,outcomeAmount,currentWinnings,fixCross.started,fixCross.stopped,certainBox.started,certainBox.stopped,outcome1Box.started,outcome1Box.stopped,outcome2Box.started,outcome2Box.stopped,certainText.started,certainText.stopped,outcome1Text.started,outcome1Text.stopped,outcome2Text.started,outcome2Text.stopped,choiceKey.keys,choiceKey.rt,choiceKey.started,choiceKey.stopped,fixCross_2.started,fixCross_2.stopped,certainBox_2.started,certainBox_2.stopped,outcome1Box_2.started,outcome1Box_2.stopped,outcome2Box_2.started,outcome2Box_2.stopped,certainText_2.started,certainText_2.stopped,outcome1Text_2.started,outcome1Text_2.stopped,outcome2Text_2.started,outcome2Text_2.stopped,fixCross_3.started,fixCross_3.stopped,certainBox_3.started,certainBox_3.stopped,outcome1Box_3.started,outcome1Box_3.stopped,outcome2Box_3.started,outcome2Box_3.stopped,certainText_3.started,certainText_3.stopped,outcome1Text_3.started,outcome1Text_3.stopped,outcome2Text_3.started,outcome2Text_3.stopped,fixCross_ITI.started,fixCross_ITI.stopped,fixCross_ISI.started,fixCross_ISI.stopped,happyText.started,happyText.stopped,happySlider.response,happySlider.rt,happySlider.started,happySlider.stopped,happyResp.keys,happyResp.started,happyResp.stopped,endOfBlockText.started,endOfBlockText.stopped,restKeyResp.keys,restKeyResp.rt,restKeyResp.started,restKeyResp.stopped,finalWinnings,cashBonus,goodbyeText.started,goodbyeText.stopped,finalWinningsText.started,finalWinningsText.stopped,spaceToContinue.started,spaceToContinue.stopped,goodbyeKeyResp_2.keys,goodbyeKeyResp_2.rt,goodbyeKeyResp_2.started,goodbyeKeyResp_2.stopped,participant,date,expName,psychopyVersion,frameRate,
1,black.png,"Welcome! You are about to play our gambling task.
This task has 3 blocks and takes about 15 minutes.",,,,0,0,0,0,,,,,,,,,,,,,,,,,,,,,,,,,8.455111537186895,None,8.455111537186895,None,8.455111537186895,None,4,2.851451420196099,8.455111537186895,None,,,,,,,,,,,,,,,,,,,,,,,,,,,,,,,,,,,,,,,,,,,,,,,,,,,,,,,,,,,,,,,,,,,,,,,,,,,,,,,,,,,,,,,,,,,,,,,,,,,,,,,,,,,,,,,,,,,,,,,,,,,,,,,,22812,2020_Jan_10_1437,Mmi_3levels,3.1.5,60.008256748413196,
2,black.png,"In this game, you may win or lose points. Your goal is to get as many points as possible. These points will be converted to a cash bonus at the end.
Sometimes we will ask you to rate your mood.",,,,0,1,1,1,,,,,,,,,,,,,,,,,,,,,,,,,11.356280954554677,None,11.356280954554677,None,11.356280954554677,None,4,5.703635286161443,11.356280954554677,None,,,,,,,,,,,,,,,,,,,,,,,,,,,,,,,,,,,,,,,,,,,,,,,,,,,,,,,,,,,,,,,,,,,,,,,,,,,,,,,,,,,,,,,,,,,,,,,,,,,,,,,,,,,,,,,,,,,,,,,,,,,,,,,,22812,2020_Jan_10_1437,Mmi_3levels,3.1.5,60.008256748413196,
3,black.png,"On the next screen, please rate how you feel about your life these days. Use the LEFT (green) and RIGHT (blue) buttons to move the slider (you can press and hold them to slide gradually) and the TOP (red) button to lock in your response.
Make your rating as accurately and quickly as you can!",,,,0,2,2,2,,,,,,,,,,,,,,,,,,,,,,,,,17.10970079479739,None,17.10970079479739,None,17.10970079479739,None,4,7.669815106230089,17.10970079479739,None,,,,,,,,,,,,,,,,,,,,,,,,,,,,,,,,,,,,,,,,,,,,,,,,,,,,,,,,,,,,,,,,,,,,,,,,,,,,,,,,,,,,,,,,,,,,,,,,,,,,,,,,,,,,,,,,,,,,,,,,,,,,,,,,22812,2020_Jan_10_1437,Mmi_3levels,3.1.5,60.008256748413196,
,,,,,,,,,,,,,,,,,,,,,,,,,,,,,,,,,,,,,,,,,,,,24.79601753008319,None,1.0,10.502887545095291,28.797514100151602,None,None,28.797514100151602,None,,,,,,,,,,,,,,,,,,,,,,,,,,,,,,,,,,,,,,,,,,,,,,,,,,,,,,,,,,,,,,,,,,,,,,,,,,,,,,,,,,,,,,,,,,,,,,,,,,,,,,,,,,,,,,,,,,,,,,,22812,2020_Jan_10_1437,Mmi_3levels,3.1.5,60.008256748413196,
4,black.png,"In this game you can win money by earning points according to your choices. You will decide whether to gamble a number of points or stick with a guaranteed number of points. 
Make your choice by pressing the left or right arrow key once. An example of one trial is shown on the next screen.",,,,,,,,0,0,0,0,,,,,,,,,,,,,,,,,,,,,,,,,,,,,,,,,,,,,,,,35.35007132467581,None,35.35007132467581,None,35.35007132467581,None,4,2.8513963827572297,35.35007132467581,None,,,,,,,,,,,,,,,,,,,,,,,,,,,,,,,,,,,,,,,,,,,,,,,,,,,,,,,,,,,,,,,,,,,,,,,,,,,,,,,,,,,,,,,,,,,,,,,,,,,,,,,,,,,,,22812,2020_Jan_10_1437,Mmi_3levels,3.1.5,60.008256748413196,
5,example_start.png,"The GAMBLING OPTION will be shown on the RIGHT SIDE. 
Select this option using the RIGHT (blue) button on your keypad.",,,,,,,,0,1,1,1,,,,,,,,,,,,,,,,,,,,,,,,,,,,,,,,,,,,,,,,38.267904603504576,None,38.267904603504576,None,38.267904603504576,None,4,1.8343149408174213,38.267904603504576,None,,,,,,,,,,,,,,,,,,,,,,,,,,,,,,,,,,,,,,,,,,,,,,,,,,,,,,,,,,,,,,,,,,,,,,,,,,,,,,,,,,,,,,,,,,,,,,,,,,,,,,,,,,,,,22812,2020_Jan_10_1437,Mmi_3levels,3.1.5,60.008256748413196,
6,example_gamble.png,"Once you select the gambling choice, the choice you made will remain on the screen.",,,,,,,,0,2,2,2,,,,,,,,,,,,,,,,,,,,,,,,,,,,,,,,,,,,,,,,40.135238481656415,None,40.135238481656415,None,40.135238481656415,None,4,0.7505258954479359,40.135238481656415,None,,,,,,,,,,,,,,,,,,,,,,,,,,,,,,,,,,,,,,,,,,,,,,,,,,,,,,,,,,,,,,,,,,,,,,,,,,,,,,,,,,,,,,,,,,,,,,,,,,,,,,,,,,,,,22812,2020_Jan_10_1437,Mmi_3levels,3.1.5,60.008256748413196,
7,example_win.png,"The outcome you received will then be shown on the screen. In this example , you WON 10 points.",,,,,,,,0,3,3,3,,,,,,,,,,,,,,,,,,,,,,,,,,,,,,,,,,,,,,,,40.91888410973479,None,40.91888410973479,None,40.91888410973479,None,4,0.8839974196453113,40.91888410973479,None,,,,,,,,,,,,,,,,,,,,,,,,,,,,,,,,,,,,,,,,,,,,,,,,,,,,,,,,,,,,,,,,,,,,,,,,,,,,,,,,,,,,,,,,,,,,,,,,,,,,,,,,,,,,,22812,2020_Jan_10_1437,Mmi_3levels,3.1.5,60.008256748413196,
8,example_start.png,"The GUARANTEED OPTION will be shown on the LEFT SIDE. You are 100% guaranteed to gain or lose this amount. In this example, you have a 100% chance of winning 1 point. Select this option using the LEFT (green) button on your keyboard.",,,,,,,,0,4,4,4,,,,,,,,,,,,,,,,,,,,,,,,,,,,,,,,,,,,,,,,41.85262480538222,None,41.85262480538222,None,41.85262480538222,None,4,0.617047331557842,41.85262480538222,None,,,,,,,,,,,,,,,,,,,,,,,,,,,,,,,,,,,,,,,,,,,,,,,,,,,,,,,,,,,,,,,,,,,,,,,,,,,,,,,,,,,,,,,,,,,,,,,,,,,,,,,,,,,,,22812,2020_Jan_10_1437,Mmi_3levels,3.1.5,60.008256748413196,
9,example_certain.png,"Once you select the guaranteed choice, your selection will remain on the screen.",,,,,,,,0,5,5,5,,,,,,,,,,,,,,,,,,,,,,,,,,,,,,,,,,,,,,,,42.50287474569632,None,42.50287474569632,None,42.50287474569632,None,4,0.6003623510769103,42.50287474569632,None,,,,,,,,,,,,,,,,,,,,,,,,,,,,,,,,,,,,,,,,,,,,,,,,,,,,,,,,,,,,,,,,,,,,,,,,,,,,,,,,,,,,,,,,,,,,,,,,,,,,,,,,,,,,,22812,2020_Jan_10_1437,Mmi_3levels,3.1.5,60.008256748413196,
10,black.png,"Please make your choices as fast as possible.
You will be given a break at the end of each block.
Let's play!",,,,,,,,0,6,6,6,,,,,,,,,,,,,,,,,,,,,,,,,,,,,,,,,,,,,,,,43.13635778936441,None,43.13635778936441,None,43.13635778936441,None,4,0.5671856610861141,43.13635778936441,None,,,,,,,,,,,,,,,,,,,,,,,,,,,,,,,,,,,,,,,,,,,,,,,,,,,,,,,,,,,,,,,,,,,,,,,,,,,,,,,,,,,,,,,,,,,,,,,,,,,,,,,,,,,,,22812,2020_Jan_10_1437,Mmi_3levels,3.1.5,60.008256748413196,
,,,,,,,,,,,,,,,,,,,,,,,,,,,,,,,,,,,,,,,,,,,,,,,,,,,,,,,,,,,,,,,43.71997852262575,None,space,68.35988750605611,43.71997852262575,None,,,,,,,,,,,,,,,,,,,,,,,,,,,,,,,,,,,,,,,,,,,,,,,,,,,,,,,,,,,,,,,,,,,,,,,,,,,,,,,,,,,,,,,,,,,,,,,,,,,,,,,22812,2020_Jan_10_1437,Mmi_3levels,3.1.5,60.008256748413196,
,,,1,1,-0.3,,,,,,,,,0,0,0,0,0,0,0,15,,,,,,,,,,,,,,,,,,,,,,,,,,,,,,,,,,,,,,,,,,,,,,,,112.09653213003185,None,1.0,7.493128001049627,115.11434409784852,None,None,115.11434409784852,None,119.59943183456198,None,True,True,False,1.0,0.0,0.0,0.03,-0.3,-0.32999999999999996,-0.31499999999999995,gamble,win,-0.3,-0.3,122.63394638203317,None,122.63394638203317,None,122.63394638203317,None,122.63394638203317,None,122.63394638203317,None,122.63394638203317,None,122.63394638203317,None,1,2.1010557586560026,122.63394638203317,None,124.75143241308979,None,124.75143241308979,None,124.75143241308979,None,124.75143241308979,None,124.75143241308979,None,124.75143241308979,None,124.75143241308979,None,128.75304449777468,None,128.75304449777468,None,128.75304449777468,None,128.75304449777468,None,128.75304449777468,None,128.75304449777468,None,128.75304449777468,None,129.75342559997807,None,,,,,,,,,,,,,,,,,,,,,,,,,,,,,,22812,2020_Jan_10_1437,Mmi_3levels,3.1.5,60.008256748413196,
,,,1,1,2.9,,,,,,,,,0,0,0,0,0,1,1,13,,,,,,,,,,,,,,,,,,,,,,,,,,,,,,,,,,,,,,,,,,,,,,,,,,,,,,,,,,,True,True,False,1.0,0.0,0.0,0.03,2.9,2.87,1.435,gamble,win,2.9,2.6,131.7708151875122,None,131.7708151875122,None,131.7708151875122,None,131.7708151875122,None,131.7708151875122,None,131.7708151875122,None,131.7708151875122,None,1,2.017714692367008,131.7708151875122,None,133.82161857400206,None,133.82161857400206,None,133.82161857400206,None,133.82161857400206,None,133.82161857400206,None,133.82161857400206,None,133.82161857400206,None,137.80649704046664,None,137.80649704046664,None,137.80649704046664,None,137.80649704046664,None,137.80649704046664,None,137.80649704046664,None,137.80649704046664,None,138.80693733989028,None,,,,,,,,,,,,,,,,,,,,,,,,,,,,,,22812,2020_Jan_10_1437,Mmi_3levels,3.1.5,60.008256748413196,
,,,1,1,12.1,,,,,,,,,0,0,0,0,0,2,2,7,,,,,,,,,,,,,,,,,,,,,,,,,,,,,,,,,,,,,,,,,,,,,,,,,,,,,,,,,,,True,False,False,1.0,0.0,0.0,-0.03,12.1,12.07,6.035,gamble,lose,12.07,14.67,140.82433492707787,None,140.82433492707787,None,140.82433492707787,None,140.82433492707787,None,140.82433492707787,None,140.82433492707787,None,140.82433492707787,None,1,0.9339416462462395,140.82433492707787,None,141.79137614692445,None,141.79137614692445,None,141.79137614692445,None,141.79137614692445,None,141.79137614692445,None,141.79137614692445,None,141.79137614692445,None,145.79298631168786,None,145.79298631168786,None,145.79298631168786,None,145.79298631168786,None,145.79298631168786,None,145.79298631168786,None,145.79298631168786,None,155.2799290017283,None,146.77664115533116,None,147.77703281704453,None,1.0,7.502775550325168,150.77822188148275,None,None,150.77822188148275,None,,,,,,,,,,,,,,,,,,,22812,2020_Jan_10_1437,Mmi_3levels,3.1.5,60.008256748413196,
,,,1,1,12.7,,,,,,,,,0,0,0,0,0,3,3,6,,,,,,,,,,,,,,,,,,,,,,,,,,,,,,,,,,,,,,,,,,,,,,,,,,,,,,,,,,,True,True,False,1.0,0.0,0.0,0.03,12.7,12.67,6.335,gamble,win,12.7,27.369999999999997,157.29739506571786,None,157.29739506571786,None,157.29739506571786,None,157.29739506571786,None,157.29739506571786,None,157.29739506571786,None,157.29739506571786,None,1,0.7839412942703348,157.29739506571786,None,158.11443017382408,None,158.11443017382408,None,158.11443017382408,None,158.11443017382408,None,158.11443017382408,None,158.11443017382408,None,158.11443017382408,None,162.11598402124946,None,162.11598402124946,None,162.11598402124946,None,162.11598402124946,None,162.11598402124946,None,162.11598402124946,None,162.11598402124946,None,163.09965422417736,None,,,,,,,,,,,,,,,,,,,,,,,,,,,,,,22812,2020_Jan_10_1437,Mmi_3levels,3.1.5,60.008256748413196,
,,,1,1,-0.9,,,,,,,,,0,0,0,0,0,4,4,24,,,,,,,,,,,,,,,,,,,,,,,,,,,,,,,,,,,,,,,,,,,,,,,,,,,,,,,,,,,True,True,True,1.0,0.0,0.0,0.03,-0.9,-0.93,-0.915,gamble,win,-0.9,26.47,165.11710108903935,None,165.11710108903935,None,165.11710108903935,None,165.11710108903935,None,165.11710108903935,None,165.11710108903935,None,165.11710108903935,None,1,2.2175866343604866,165.11710108903935,None,167.36796520868666,None,167.36796520868666,None,167.36796520868666,None,167.36796520868666,None,167.36796520868666,None,167.36796520868666,None,167.36796520868666,None,171.35289999251836,None,171.35289999251836,None,171.35289999251836,None,171.35289999251836,None,171.35289999251836,None,171.35289999251836,None,171.35289999251836,None,180.87325744141708,None,172.3532887743495,None,173.35362251877086,None,1.0,7.5195155682449695,176.3548275824578,None,None,176.3548275824578,None,,,,,,,,,,,,,,,,,,,22812,2020_Jan_10_1437,Mmi_3levels,3.1.5,60.008256748413196,
,,,1,1,11.1,,,,,,,,,0,0,0,0,0,5,5,26,,,,,,,,,,,,,,,,,,,,,,,,,,,,,,,,,,,,,,,,,,,,,,,,,,,,,,,,,,,True,True,True,1.0,0.0,0.0,0.03,11.1,11.07,5.535,gamble,win,11.1,37.57,182.89067038788926,None,182.89067038788926,None,182.89067038788926,None,182.89067038788926,None,182.89067038788926,None,182.89067038788926,None,182.89067038788926,None,1,0.7005515902419575,182.89067038788926,None,183.62429691286525,None,183.62429691286525,None,183.62429691286525,None,183.62429691286525,None,183.62429691286525,None,183.62429691286525,None,183.62429691286525,None,187.60915618023137,None,187.60915618023137,None,187.60915618023137,None,187.60915618023137,None,187.60915618023137,None,187.60915618023137,None,187.60915618023137,None,188.60953920232714,None,,,,,,,,,,,,,,,,,,,,,,,,,,,,,,22812,2020_Jan_10_1437,Mmi_3levels,3.1.5,60.008256748413196,
,,,1,1,11.7,,,,,,,,,0,0,0,0,0,6,6,10,,,,,,,,,,,,,,,,,,,,,,,,,,,,,,,,,,,,,,,,,,,,,,,,,,,,,,,,,,,True,True,False,1.0,0.0,0.0,0.03,11.7,11.67,5.835,gamble,win,11.7,49.269999999999996,190.62704014469637,None,190.62704014469637,None,190.62704014469637,None,190.62704014469637,None,190.62704014469637,None,190.62704014469637,None,190.62704014469637,None,1,0.6671144324354827,190.62704014469637,None,191.32726663010544,None,191.32726663010544,None,191.32726663010544,None,191.32726663010544,None,191.32726663010544,None,191.32726663010544,None,191.32726663010544,None,195.32886751531623,None,195.32886751531623,None,195.32886751531623,None,195.32886751531623,None,195.32886751531623,None,195.32886751531623,None,195.32886751531623,None,196.3125841160945,None,,,,,,,,,,,,,,,,,,,,,,,,,,,,,,22812,2020_Jan_10_1437,Mmi_3levels,3.1.5,60.008256748413196,
,,,1,1,4.1,,,,,,,,,0,0,0,0,0,7,7,2,,,,,,,,,,,,,,,,,,,,,,,,,,,,,,,,,,,,,,,,,,,,,,,,,,,,,,,,,,,True,True,False,1.0,0.0,0.0,0.03,4.1,4.069999999999999,2.0349999999999997,gamble,win,4.1,53.37,198.33003450080287,None,198.33003450080287,None,198.33003450080287,None,198.33003450080287,None,198.33003450080287,None,198.33003450080287,None,198.33003450080287,None,1,0.5005497343081515,198.33003450080287,None,198.86353949544718,None,198.86353949544718,None,198.86353949544718,None,198.86353949544718,None,198.86353949544718,None,198.86353949544718,None,198.86353949544718,None,202.84843940092833,None,202.84843940092833,None,202.84843940092833,None,202.84843940092833,None,202.84843940092833,None,202.84843940092833,None,202.84843940092833,None,212.35208819044055,None,203.8487689855101,None,204.84915872730198,None,1.0,7.502958901779493,207.8503321124881,None,None,207.8503321124881,None,,,,,,,,,,,,,,,,,,,22812,2020_Jan_10_1437,Mmi_3levels,3.1.5,60.008256748413196,
,,,1,1,5.1,,,,,,,,,0,0,0,0,0,8,8,22,,,,,,,,,,,,,,,,,,,,,,,,,,,,,,,,,,,,,,,,,,,,,,,,,,,,,,,,,,,True,False,True,1.0,0.0,0.0,-0.03,5.1,5.069999999999999,2.5349999999999997,gamble,lose,5.069999999999999,58.44,214.36953985510627,None,214.36953985510627,None,214.36953985510627,None,214.36953985510627,None,214.36953985510627,None,214.36953985510627,None,214.36953985510627,None,1,0.7505428546282928,214.36953985510627,None,215.15322356141405,None,215.15322356141405,None,215.15322356141405,None,215.15322356141405,None,215.15322356141405,None,215.15322356141405,None,215.15322356141405,None,219.13804955032538,None,219.13804955032538,None,219.13804955032538,None,219.13804955032538,None,219.13804955032538,None,219.13804955032538,None,219.13804955032538,None,220.13844569181674,None,,,,,,,,,,,,,,,,,,,,,,,,,,,,,,22812,2020_Jan_10_1437,Mmi_3levels,3.1.5,60.008256748413196,
,,,1,1,9.5,,,,,,,,,0,0,0,0,0,9,9,17,,,,,,,,,,,,,,,,,,,,,,,,,,,,,,,,,,,,,,,,,,,,,,,,,,,,,,,,,,,True,True,True,1.0,0.0,0.0,0.03,9.5,9.47,4.735,gamble,win,9.5,67.94,222.15588871689397,None,222.15588871689397,None,222.15588871689397,None,222.15588871689397,None,222.15588871689397,None,222.15588871689397,None,222.15588871689397,None,1,0.4837818777014036,222.15588871689397,None,222.6727477692475,None,222.6727477692475,None,222.6727477692475,None,222.6727477692475,None,222.6727477692475,None,222.6727477692475,None,222.6727477692475,None,226.65766623383388,None,226.65766623383388,None,226.65766623383388,None,226.65766623383388,None,226.65766623383388,None,226.65766623383388,None,226.65766623383388,None,236.1613438220229,None,227.65802461709245,None,228.65839068000787,None,1.0,7.502833467617165,231.65956086531514,None,None,231.65956086531514,None,,,,,,,,,,,,,,,,,,,22812,2020_Jan_10_1437,Mmi_3levels,3.1.5,60.008256748413196,
,,,1,1,0.3,,,,,,,,,0,0,0,0,0,10,10,19,,,,,,,,,,,,,,,,,,,,,,,,,,,,,,,,,,,,,,,,,,,,,,,,,,,,,,,,,,,True,True,True,1.0,0.0,0.0,0.03,0.3,0.27,0.28500000000000003,gamble,win,0.3,68.24,238.1787753276294,None,238.1787753276294,None,238.1787753276294,None,238.1787753276294,None,238.1787753276294,None,238.1787753276294,None,238.1787753276294,None,1,0.7172368906904012,238.1787753276294,None,238.91243193118135,None,238.91243193118135,None,238.91243193118135,None,238.91243193118135,None,238.91243193118135,None,238.91243193118135,None,238.91243193118135,None,242.91393746086396,None,242.91393746086396,None,242.91393746086396,None,242.91393746086396,None,242.91393746086396,None,242.91393746086396,None,242.91393746086396,None,243.91432944254484,None,,,,,,,,,,,,,,,,,,,,,,,,,,,,,,22812,2020_Jan_10_1437,Mmi_3levels,3.1.5,60.008256748413196,
,,,1,1,10.9,,,,,,,,,0,0,0,0,0,11,11,12,,,,,,,,,,,,,,,,,,,,,,,,,,,,,,,,,,,,,,,,,,,,,,,,,,,,,,,,,,,True,False,False,1.0,0.0,0.0,-0.03,10.9,10.870000000000001,5.4350000000000005,gamble,lose,10.870000000000001,79.11,245.9317753474752,None,245.9317753474752,None,245.9317753474752,None,245.9317753474752,None,245.9317753474752,None,245.9317753474752,None,245.9317753474752,None,1,1.1673614608880598,245.9317753474752,None,247.1322475814086,None,247.1322475814086,None,247.1322475814086,None,247.1322475814086,None,247.1322475814086,None,247.1322475814086,None,247.1322475814086,None,251.13380526861874,None,251.13380526861874,None,251.13380526861874,None,251.13380526861874,None,251.13380526861874,None,251.13380526861874,None,251.13380526861874,None,260.6207863568852,None,252.1175081100373,None,253.11789945175406,None,1.0,7.502802109083859,256.11904435826,None,None,256.11904435826,None,,,,,,,,,,,,,,,,,,,22812,2020_Jan_10_1437,Mmi_3levels,3.1.5,60.008256748413196,
,,,1,1,10.1,,,,,,,,,0,0,0,0,0,12,12,16,,,,,,,,,,,,,,,,,,,,,,,,,,,,,,,,,,,,,,,,,,,,,,,,,,,,,,,,,,,True,False,False,1.0,0.0,0.0,-0.03,10.1,10.07,5.035,gamble,lose,10.07,89.18,262.6382549807313,None,262.6382549807313,None,262.6382549807313,None,262.6382549807313,None,262.6382549807313,None,262.6382549807313,None,262.6382549807313,None,1,0.6838410109630786,262.6382549807313,None,263.3551888455986,None,263.3551888455986,None,263.3551888455986,None,263.3551888455986,None,263.3551888455986,None,263.3551888455986,None,263.3551888455986,None,267.34007723160903,None,267.34007723160903,None,267.34007723160903,None,267.34007723160903,None,267.34007723160903,None,267.34007723160903,None,267.34007723160903,None,268.3405245706963,None,,,,,,,,,,,,,,,,,,,,,,,,,,,,,,22812,2020_Jan_10_1437,Mmi_3levels,3.1.5,60.008256748413196,
,,,1,1,12.9,,,,,,,,,0,0,0,0,0,13,13,0,,,,,,,,,,,,,,,,,,,,,,,,,,,,,,,,,,,,,,,,,,,,,,,,,,,,,,,,,,,True,True,True,1.0,0.0,0.0,0.03,12.9,12.870000000000001,6.4350000000000005,gamble,win,12.9,102.08000000000001,270.35797303551226,None,270.35797303551226,None,270.35797303551226,None,270.35797303551226,None,270.35797303551226,None,270.35797303551226,None,270.35797303551226,None,1,0.8172053401649464,270.35797303551226,None,271.2082990682684,None,271.2082990682684,None,271.2082990682684,None,271.2082990682684,None,271.2082990682684,None,271.2082990682684,None,271.2082990682684,None,275.2431972778286,None,275.2431972778286,None,275.2431972778286,None,275.2431972778286,None,275.2431972778286,None,275.2431972778286,None,275.2431972778286,None,276.22688284004107,None,,,,,,,,,,,,,,,,,,,,,,,,,,,,,,22812,2020_Jan_10_1437,Mmi_3levels,3.1.5,60.008256748413196,
,,,1,1,0.7,,,,,,,,,0,0,0,0,0,14,14,11,,,,,,,,,,,,,,,,,,,,,,,,,,,,,,,,,,,,,,,,,,,,,,,,,,,,,,,,,,,True,True,True,1.0,0.0,0.0,0.03,0.7,0.6699999999999999,0.6849999999999999,gamble,win,0.7,102.78000000000002,278.2443149856117,None,278.2443149856117,None,278.2443149856117,None,278.2443149856117,None,278.2443149856117,None,278.2443149856117,None,278.2443149856117,None,1,1.034040969592752,278.2443149856117,None,279.31144976906944,None,279.31144976906944,None,279.31144976906944,None,279.31144976906944,None,279.31144976906944,None,279.31144976906944,None,279.31144976906944,None,283.29631351624266,None,283.29631351624266,None,283.29631351624266,None,283.29631351624266,None,283.29631351624266,None,283.29631351624266,None,283.29631351624266,None,292.8000087036053,None,284.29665846013813,None,285.2970411622373,None,1.0,7.502865466114599,288.2982497457706,None,None,288.2982497457706,None,,,,,,,,,,,,,,,,,,,22812,2020_Jan_10_1437,Mmi_3levels,3.1.5,60.008256748413196,
,,,1,1,0.1,,,,,,,,,0,0,0,0,0,15,15,5,,,,,,,,,,,,,,,,,,,,,,,,,,,,,,,,,,,,,,,,,,,,,,,,,,,,,,,,,,,True,False,True,1.0,0.0,0.0,-0.03,0.1,0.07,0.085,gamble,lose,0.07,102.85000000000001,294.8174094906426,None,294.8174094906426,None,294.8174094906426,None,294.8174094906426,None,294.8174094906426,None,294.8174094906426,None,294.8174094906426,None,1,0.8005465984751936,294.8174094906426,None,295.63442507968284,None,295.63442507968284,None,295.63442507968284,None,295.63442507968284,None,295.63442507968284,None,295.63442507968284,None,295.63442507968284,None,299.63592804945074,None,299.63592804945074,None,299.63592804945074,None,299.63592804945074,None,299.63592804945074,None,299.63592804945074,None,299.63592804945074,None,300.6362745932711,None,,,,,,,,,,,,,,,,,,,,,,,,,,,,,,22812,2020_Jan_10_1437,Mmi_3levels,3.1.5,60.008256748413196,
,,,1,1,5.7,,,,,,,,,0,0,0,0,0,16,16,8,,,,,,,,,,,,,,,,,,,,,,,,,,,,,,,,,,,,,,,,,,,,,,,,,,,,,,,,,,,True,True,True,1.0,0.0,0.0,0.03,5.7,5.67,2.835,gamble,win,5.7,108.55000000000001,302.65378129534656,None,302.65378129534656,None,302.65378129534656,None,302.65378129534656,None,302.65378129534656,None,302.65378129534656,None,302.65378129534656,None,1,0.8172373386623804,302.65378129534656,None,303.5041630055057,None,303.5041630055057,None,303.5041630055057,None,303.5041630055057,None,303.5041630055057,None,303.5041630055057,None,303.5041630055057,None,307.5056589356391,None,307.5056589356391,None,307.5056589356391,None,307.5056589356391,None,307.5056589356391,None,307.5056589356391,None,307.5056589356391,None,316.99267362229875,None,308.4894008152187,None,309.48976559814764,None,1.0,7.502818748296704,312.4909287438204,None,None,312.4909287438204,None,,,,,,,,,,,,,,,,,,,22812,2020_Jan_10_1437,Mmi_3levels,3.1.5,60.008256748413196,
,,,1,1,1.9,,,,,,,,,0,0,0,0,0,17,17,25,,,,,,,,,,,,,,,,,,,,,,,,,,,,,,,,,,,,,,,,,,,,,,,,,,,,,,,,,,,True,True,True,1.0,0.0,0.0,0.03,1.9,1.8699999999999999,1.8849999999999998,gamble,win,1.9,110.45000000000002,319.01016464512213,None,319.01016464512213,None,319.01016464512213,None,319.01016464512213,None,319.01016464512213,None,319.01016464512213,None,319.01016464512213,None,1,0.9505888684943784,319.01016464512213,None,319.99383964782464,None,319.99383964782464,None,319.99383964782464,None,319.99383964782464,None,319.99383964782464,None,319.99383964782464,None,319.99383964782464,None,323.97869603533763,None,323.97869603533763,None,323.97869603533763,None,323.97869603533763,None,323.97869603533763,None,323.97869603533763,None,323.97869603533763,None,324.979107216117,None,,,,,,,,,,,,,,,,,,,,,,,,,,,,,,22812,2020_Jan_10_1437,Mmi_3levels,3.1.5,60.008256748413196,
,,,1,1,2.1,,,,,,,,,0,0,0,0,0,18,18,14,,,,,,,,,,,,,,,,,,,,,,,,,,,,,,,,,,,,,,,,,,,,,,,,,,,,,,,,,,,True,True,False,1.0,0.0,0.0,0.03,2.1,2.0700000000000003,1.0350000000000001,gamble,win,2.1,112.55000000000001,326.9965521610866,None,326.9965521610866,None,326.9965521610866,None,326.9965521610866,None,326.9965521610866,None,326.9965521610866,None,326.9965521610866,None,1,0.7839444940909743,326.9965521610866,None,327.8135917489999,None,327.8135917489999,None,327.8135917489999,None,327.8135917489999,None,327.8135917489999,None,327.8135917489999,None,327.8135917489999,None,331.7984129381657,None,331.7984129381657,None,331.7984129381657,None,331.7984129381657,None,331.7984129381657,None,331.7984129381657,None,331.7984129381657,None,332.7987857207481,None,,,,,,,,,,,,,,,,,,,,,,,,,,,,,,22812,2020_Jan_10_1437,Mmi_3levels,3.1.5,60.008256748413196,
,,,1,1,8.9,,,,,,,,,0,0,0,0,0,19,19,21,,,,,,,,,,,,,,,,,,,,,,,,,,,,,,,,,,,,,,,,,,,,,,,,,,,,,,,,,,,True,False,True,1.0,0.0,0.0,-0.03,8.9,8.870000000000001,4.4350000000000005,gamble,lose,8.870000000000001,121.42000000000002,334.81625562455156,None,334.81625562455156,None,334.81625562455156,None,334.81625562455156,None,334.81625562455156,None,334.81625562455156,None,334.81625562455156,None,1,0.7339362704951782,334.81625562455156,None,335.5832725895161,None,335.5832725895161,None,335.5832725895161,None,335.5832725895161,None,335.5832725895161,None,335.5832725895161,None,335.5832725895161,None,339.5680822592112,None,339.5680822592112,None,339.5680822592112,None,339.5680822592112,None,339.5680822592112,None,339.5680822592112,None,339.5680822592112,None,349.07183824371896,None,340.56848192054895,None,341.5689222199726,None,1.0,7.502811068639858,344.5700239284779,None,None,344.5700239284779,None,,,,,,,,,,,,,,,,,,,22812,2020_Jan_10_1437,Mmi_3levels,3.1.5,60.008256748413196,
,,,1,1,6.5,,,,,,,,,0,0,0,0,0,20,20,4,,,,,,,,,,,,,,,,,,,,,,,,,,,,,,,,,,,,,,,,,,,,,,,,,,,,,,,,,,,True,True,True,1.0,0.0,0.0,0.03,6.5,6.47,3.235,gamble,win,6.5,127.92000000000002,351.0892867085349,None,351.0892867085349,None,351.0892867085349,None,351.0892867085349,None,351.0892867085349,None,351.0892867085349,None,351.0892867085349,None,1,0.7338220358360559,351.0892867085349,None,351.856247676129,None,351.856247676129,None,351.856247676129,None,351.856247676129,None,351.856247676129,None,351.856247676129,None,351.856247676129,None,355.8577685650671,None,355.8577685650671,None,355.8577685650671,None,355.8577685650671,None,355.8577685650671,None,355.8577685650671,None,355.8577685650671,None,356.8414307683706,None,,,,,,,,,,,,,,,,,,,,,,,,,,,,,,22812,2020_Jan_10_1437,Mmi_3levels,3.1.5,60.008256748413196,
,,,1,1,7.1,,,,,,,,,0,0,0,0,0,21,21,1,,,,,,,,,,,,,,,,,,,,,,,,,,,,,,,,,,,,,,,,,,,,,,,,,,,,,,,,,,,True,False,False,1.0,0.0,0.0,-0.03,7.1,7.069999999999999,3.5349999999999997,gamble,lose,7.069999999999999,134.99,358.858932350704,None,358.858932350704,None,358.858932350704,None,358.858932350704,None,358.858932350704,None,358.858932350704,None,358.858932350704,None,1,0.7839224151684903,358.858932350704,None,359.675884902681,None,359.675884902681,None,359.675884902681,None,359.675884902681,None,359.675884902681,None,359.675884902681,None,359.675884902681,None,363.6607838482014,None,363.6607838482014,None,363.6607838482014,None,363.6607838482014,None,363.6607838482014,None,363.6607838482014,None,363.6607838482014,None,373.1644700759789,None,364.66118702935637,None,365.66154605257907,None,1.0,7.503014899150003,368.6626861593104,None,None,368.6626861593104,None,,,,,,,,,,,,,,,,,,,22812,2020_Jan_10_1437,Mmi_3levels,3.1.5,60.008256748413196,
,,,1,1,11.9,,,,,,,,,0,0,0,0,0,22,22,23,,,,,,,,,,,,,,,,,,,,,,,,,,,,,,,,,,,,,,,,,,,,,,,,,,,,,,,,,,,True,True,False,1.0,0.0,0.0,0.03,11.9,11.870000000000001,5.9350000000000005,gamble,win,11.9,146.89000000000001,375.18192526046187,None,375.18192526046187,None,375.18192526046187,None,375.18192526046187,None,375.18192526046187,None,375.18192526046187,None,375.18192526046187,None,1,0.533687706105411,375.18192526046187,None,375.7488142953953,None,375.7488142953953,None,375.7488142953953,None,375.7488142953953,None,375.7488142953953,None,375.7488142953953,None,375.7488142953953,None,379.7336934018531,None,379.7336934018531,None,379.7336934018531,None,379.7336934018531,None,379.7336934018531,None,379.7336934018531,None,379.7336934018531,None,380.73406234462163,None,,,,,,,,,,,,,,,,,,,,,,,,,,,,,,22812,2020_Jan_10_1437,Mmi_3levels,3.1.5,60.008256748413196,
,,,1,1,5.3,,,,,,,,,0,0,0,0,0,23,23,3,,,,,,,,,,,,,,,,,,,,,,,,,,,,,,,,,,,,,,,,,,,,,,,,,,,,,,,,,,,True,True,False,1.0,0.0,0.0,0.03,5.3,5.27,2.635,gamble,win,5.3,152.19000000000003,382.75150920951273,None,382.75150920951273,None,382.75150920951273,None,382.75150920951273,None,382.75150920951273,None,382.75150920951273,None,382.75150920951273,None,1,0.9006305625662208,382.75150920951273,None,383.68517854847596,None,383.68517854847596,None,383.68517854847596,None,383.68517854847596,None,383.68517854847596,None,383.68517854847596,None,383.68517854847596,None,387.67008421366336,None,387.67008421366336,None,387.67008421366336,None,387.67008421366336,None,387.67008421366336,None,387.67008421366336,None,387.67008421366336,None,397.17377716113697,None,388.6704729955236,None,389.67090497532627,None,1.0,7.502786429802654,392.67203036276624,None,None,392.67203036276624,None,,,,,,,,,,,,,,,,,,,22812,2020_Jan_10_1437,Mmi_3levels,3.1.5,60.008256748413196,
,,,1,1,4.7,,,,,,,,,0,0,0,0,0,24,24,20,,,,,,,,,,,,,,,,,,,,,,,,,,,,,,,,,,,,,,,,,,,,,,,,,,,,,,,,,,,True,True,False,1.0,0.0,0.0,0.03,4.7,4.67,2.335,gamble,win,4.7,156.89000000000001,399.19121890625684,None,399.19121890625684,None,399.19121890625684,None,399.19121890625684,None,399.19121890625684,None,399.19121890625684,None,399.19121890625684,None,1,0.6838573301793076,399.19121890625684,None,399.9081364518788,None,399.9081364518788,None,399.9081364518788,None,399.9081364518788,None,399.9081364518788,None,399.9081364518788,None,399.9081364518788,None,403.8930040388659,None,403.8930040388659,None,403.8930040388659,None,403.8930040388659,None,403.8930040388659,None,403.8930040388659,None,403.8930040388659,None,404.8934536178713,None,,,,,,,,,,,,,,,,,,,,,,,,,,,,,,22812,2020_Jan_10_1437,Mmi_3levels,3.1.5,60.008256748413196,
,,,1,1,-0.1,,,,,,,,,0,0,0,0,0,25,25,18,,,,,,,,,,,,,,,,,,,,,,,,,,,,,,,,,,,,,,,,,,,,,,,,,,,,,,,,,,,True,True,True,1.0,0.0,0.0,0.03,-0.1,-0.13,-0.115,gamble,win,-0.1,156.79000000000002,406.91089760288014,None,406.91089760288014,None,406.91089760288014,None,406.91089760288014,None,406.91089760288014,None,406.91089760288014,None,406.91089760288014,None,1,2.217738627252402,406.91089760288014,None,409.145081541792,None,409.145081541792,None,409.145081541792,None,409.145081541792,None,409.145081541792,None,409.145081541792,None,409.145081541792,None,413.14665170843364,None,413.14665170843364,None,413.14665170843364,None,413.14665170843364,None,413.14665170843364,None,413.14665170843364,None,413.14665170843364,None,414.1470302507514,None,,,,,,,,,,,,,,,,,,,,,,,,,,,,,,22812,2020_Jan_10_1437,Mmi_3levels,3.1.5,60.008256748413196,
,,,1,1,5.9,,,,,,,,,0,0,0,0,0,26,26,9,,,,,,,,,,,,,,,,,,,,,,,,,,,,,,,,,,,,,,,,,,,,,,,,,,,,,,,,,,,True,True,True,1.0,0.0,0.0,0.03,5.9,5.87,2.935,gamble,win,5.9,162.69000000000003,416.1644921549305,None,416.1644921549305,None,416.1644921549305,None,416.1644921549305,None,416.1644921549305,None,416.1644921549305,None,416.1644921549305,None,1,1.1340849355328828,416.1644921549305,None,417.3316117071081,None,417.3316117071081,None,417.3316117071081,None,417.3316117071081,None,417.3316117071081,None,417.3316117071081,None,417.3316117071081,None,421.33315179514466,None,421.33315179514466,None,421.33315179514466,None,421.33315179514466,None,421.33315179514466,None,421.33315179514466,None,421.33315179514466,None,430.8201322434179,None,422.31684599697473,None,423.3172645374143,None,1.0,7.502753791341092,426.3183745655406,None,None,426.3183745655406,None,,,,,,,,,,,,,,,,,,,22812,2020_Jan_10_1437,Mmi_3levels,3.1.5,60.008256748413196,
,,,2,0,12.5,,,,,,,,,0,1,1,1,0,0,0,7,,,,,,,,,,,,,,,,,,,,,,,,,,,,,,,,,,,,,,,,,,,,,,,,435.7220382663945,None,1.0,7.5016754417156335,438.7399017518037,None,None,438.7399017518037,None,443.22490917224786,None,False,True,False,1.0,1.0,1.0,-15.0,12.5,-2.5,-1.25,certain,certain,-1.25,161.44000000000003,446.2594934764784,None,446.2594934764784,None,446.2594934764784,None,446.2594934764784,None,446.2594934764784,None,446.2594934764784,None,446.2594934764784,None,3,1.3340602327079978,446.2594934764784,None,447.6267003205721,None,447.6267003205721,None,447.6267003205721,None,447.6267003205721,None,447.6267003205721,None,447.6267003205721,None,447.6267003205721,None,451.62828456654097,None,451.62828456654097,None,451.62828456654097,None,451.62828456654097,None,451.62828456654097,None,451.62828456654097,None,451.62828456654097,None,452.61192085107905,None,,,,,,,,,,,,432.82088964805007,None,4,2.884714826126583,432.82088964805007,None,,,,,,,,,,,,,22812,2020_Jan_10_1437,Mmi_3levels,3.1.5,60.008256748413196,
,,,2,0,9.5,,,,,,,,,0,1,1,1,0,1,1,14,,,,,,,,,,,,,,,,,,,,,,,,,,,,,,,,,,,,,,,,,,,,,,,,,,,,,,,,,,,False,True,True,1.0,1.0,2.0,-16.0,9.5,-6.5,1.5,gamble,lose,-6.5,154.94000000000003,454.62939011491835,None,454.62939011491835,None,454.62939011491835,None,454.62939011491835,None,454.62939011491835,None,454.62939011491835,None,454.62939011491835,None,1,2.4345473779540043,454.62939011491835,None,457.09703354659723,None,457.09703354659723,None,457.09703354659723,None,457.09703354659723,None,457.09703354659723,None,457.09703354659723,None,457.09703354659723,None,461.09853267655126,None,461.09853267655126,None,461.09853267655126,None,461.09853267655126,None,461.09853267655126,None,461.09853267655126,None,461.09853267655126,None,470.58563887895434,None,462.0823046347359,None,463.0826850969752,None,1.0,7.502933622949058,466.0839004001755,None,None,466.0839004001755,None,,,,,,,,,,,,,,,,,,,22812,2020_Jan_10_1437,Mmi_3levels,3.1.5,60.008256748413196,
,,,2,0,0.9,,,,,,,,,0,1,1,1,0,2,2,12,,,,,,,,,,,,,,,,,,,,,,,,,,,,,,,,,,,,,,,,,,,,,,,,,,,,,,,,,,,False,True,True,1.0,1.0,3.0,-17.0,0.9,-16.1,-7.6000000000000005,certain,certain,-7.6000000000000005,147.34000000000003,472.6029939081345,None,472.6029939081345,None,472.6029939081345,None,472.6029939081345,None,472.6029939081345,None,472.6029939081345,None,472.6029939081345,None,3,1.8177051568054594,472.6029939081345,None,474.45376120027504,None,474.45376120027504,None,474.45376120027504,None,474.45376120027504,None,474.45376120027504,None,474.45376120027504,None,474.45376120027504,None,478.4552593702974,None,478.4552593702974,None,478.4552593702974,None,478.4552593702974,None,478.4552593702974,None,478.4552593702974,None,478.4552593702974,None,479.4390156492009,None,,,,,,,,,,,,,,,,,,,,,,,,,,,,,,22812,2020_Jan_10_1437,Mmi_3levels,3.1.5,60.008256748413196,
,,,2,0,3.3,,,,,,,,,0,1,1,1,0,3,3,1,,,,,,,,,,,,,,,,,,,,,,,,,,,,,,,,,,,,,,,,,,,,,,,,,,,,,,,,,,,False,False,False,1.0,1.0,4.0,3.8333333333333335,0.825,-3.0083333333333337,-1.0916666666666668,gamble,win,0.825,148.16500000000002,481.4564228359377,None,481.4564228359377,None,481.4564228359377,None,481.4564228359377,None,481.4564228359377,None,481.4564228359377,None,481.4564228359377,None,1,1.984384409559425,481.4564228359377,None,483.47392473823857,None,483.47392473823857,None,483.47392473823857,None,483.47392473823857,None,483.47392473823857,None,483.47392473823857,None,483.47392473823857,None,487.45874848729,None,487.45874848729,None,487.45874848729,None,487.45874848729,None,487.45874848729,None,487.45874848729,None,487.45874848729,None,496.96244431461673,None,488.45919614637387,None,489.4595295707986,None,1.0,7.503023858735105,492.46073207459995,None,None,492.46073207459995,None,,,,,,,,,,,,,,,,,,,22812,2020_Jan_10_1437,Mmi_3levels,3.1.5,60.008256748413196,
,,,2,0,0.5,,,,,,,,,0,1,1,1,0,4,4,22,,,,,,,,,,,,,,,,,,,,,,,,,,,,,,,,,,,,,,,,,,,,,,,,,,,,,,,,,,,False,False,True,1.0,1.0,5.0,3.9166666666666665,0.125,-3.7916666666666665,-1.8333333333333333,gamble,win,0.125,148.29000000000002,498.97989181947196,None,498.97989181947196,None,498.97989181947196,None,498.97989181947196,None,498.97989181947196,None,498.97989181947196,None,498.97989181947196,None,1,1.7509652349108364,498.97989181947196,None,500.7639675074606,None,500.7639675074606,None,500.7639675074606,None,500.7639675074606,None,500.7639675074606,None,500.7639675074606,None,500.7639675074606,None,504.74883829429746,None,504.74883829429746,None,504.74883829429746,None,504.74883829429746,None,504.74883829429746,None,504.74883829429746,None,504.74883829429746,None,505.74923091594246,None,,,,,,,,,,,,,,,,,,,,,,,,,,,,,,22812,2020_Jan_10_1437,Mmi_3levels,3.1.5,60.008256748413196,
,,,2,0,13.3,,,,,,,,,0,1,1,1,0,5,5,26,,,,,,,,,,,,,,,,,,,,,,,,,,,,,,,,,,,,,,,,,,,,,,,,,,,,,,,,,,,False,True,True,1.0,1.0,6.0,-20.0,13.3,-6.699999999999999,-3.3499999999999996,gamble,lose,-6.699999999999999,141.59000000000003,507.76662658320856,None,507.76662658320856,None,507.76662658320856,None,507.76662658320856,None,507.76662658320856,None,507.76662658320856,None,507.76662658320856,None,1,1.7843207965197507,507.76662658320856,None,509.583997035661,None,509.583997035661,None,509.583997035661,None,509.583997035661,None,509.583997035661,None,509.583997035661,None,509.583997035661,None,513.568904620799,None,513.568904620799,None,513.568904620799,None,513.568904620799,None,513.568904620799,None,513.568904620799,None,513.568904620799,None,514.5693180414673,None,,,,,,,,,,,,,,,,,,,,,,,,,,,,,,22812,2020_Jan_10_1437,Mmi_3levels,3.1.5,60.008256748413196,
,,,2,0,7.9,,,,,,,,,0,1,1,1,0,6,6,21,,,,,,,,,,,,,,,,,,,,,,,,,,,,,,,,,,,,,,,,,,,,,,,,,,,,,,,,,,,False,True,False,1.0,1.0,7.0,-21.0,7.9,-13.1,-2.5999999999999996,gamble,lose,-13.1,128.49000000000004,516.5867684261757,None,516.5867684261757,None,516.5867684261757,None,516.5867684261757,None,516.5867684261757,None,516.5867684261757,None,516.5867684261757,None,1,2.85131030678167,516.5867684261757,None,519.471209665091,None,519.471209665091,None,519.471209665091,None,519.471209665091,None,519.471209665091,None,519.471209665091,None,519.471209665091,None,523.4727334339113,None,523.4727334339113,None,523.4727334339113,None,523.4727334339113,None,523.4727334339113,None,523.4727334339113,None,523.4727334339113,None,532.9597596400417,None,524.4564823531546,None,525.4568756147928,None,0.97,7.502746431680862,528.458024041116,None,None,528.458024041116,None,,,,,,,,,,,,,,,,,,,22812,2020_Jan_10_1437,Mmi_3levels,3.1.5,60.008256748413196,
,,,2,0,12.1,,,,,,,,,0,1,1,1,0,7,7,18,,,,,,,,,,,,,,,,,,,,,,,,,,,,,,,,,,,,,,,,,,,,,,,,,,,,,,,,,,,False,True,True,0.97,0.97,7.97,-21.55,12.1,-9.450000000000001,1.3249999999999993,certain,certain,1.3249999999999993,129.81500000000003,534.9772772216238,None,534.9772772216238,None,534.9772772216238,None,534.9772772216238,None,534.9772772216238,None,534.9772772216238,None,534.9772772216238,None,3,1.834190146648325,534.9772772216238,None,536.8445701416931,None,536.8445701416931,None,536.8445701416931,None,536.8445701416931,None,536.8445701416931,None,536.8445701416931,None,536.8445701416931,None,540.8295062054822,None,540.8295062054822,None,540.8295062054822,None,540.8295062054822,None,540.8295062054822,None,540.8295062054822,None,540.8295062054822,None,541.8298885876138,None,,,,,,,,,,,,,,,,,,,,,,,,,,,,,,22812,2020_Jan_10_1437,Mmi_3levels,3.1.5,60.008256748413196,
,,,2,0,10.5,,,,,,,,,0,1,1,1,0,8,8,3,,,,,,,,,,,,,,,,,,,,,,,,,,,,,,,,,,,,,,,,,,,,,,,,,,,,,,,,,,,False,True,True,0.97,0.97,8.94,-22.52,10.5,-12.02,-0.7599999999999998,gamble,lose,-12.02,117.79500000000003,543.847280415066,None,543.847280415066,None,543.847280415066,None,543.847280415066,None,543.847280415066,None,543.847280415066,None,543.847280415066,None,1,1.0173527892911807,543.847280415066,None,544.897709099052,None,544.897709099052,None,544.897709099052,None,544.897709099052,None,544.897709099052,None,544.897709099052,None,544.897709099052,None,548.8993592619372,None,548.8993592619372,None,548.8993592619372,None,548.8993592619372,None,548.8993592619372,None,548.8993592619372,None,548.8993592619372,None,558.4029875724227,None,549.8830141055805,None,550.883408647147,None,0.93,7.519473650172586,553.884602511389,None,None,553.884602511389,None,,,,,,,,,,,,,,,,,,,22812,2020_Jan_10_1437,Mmi_3levels,3.1.5,60.008256748413196,
,,,2,0,13.9,,,,,,,,,0,1,1,1,0,9,9,0,,,,,,,,,,,,,,,,,,,,,,,,,,,,,,,,,,,,,,,,,,,,,,,,,,,,,,,,,,,False,False,True,0.93,0.93,9.87,4.077500000000001,3.475,-0.6025000000000005,1.4362499999999998,gamble,win,3.475,121.27000000000002,560.420381639793,None,560.420381639793,None,560.420381639793,None,560.420381639793,None,560.420381639793,None,560.420381639793,None,560.420381639793,None,1,2.2345244030293543,560.420381639793,None,562.6879720179713,None,562.6879720179713,None,562.6879720179713,None,562.6879720179713,None,562.6879720179713,None,562.6879720179713,None,562.6879720179713,None,566.6728799230477,None,566.6728799230477,None,566.6728799230477,None,566.6728799230477,None,566.6728799230477,None,566.6728799230477,None,566.6728799230477,None,567.6731909485243,None,,,,,,,,,,,,,,,,,,,,,,,,,,,,,,22812,2020_Jan_10_1437,Mmi_3levels,3.1.5,60.008256748413196,
,,,2,0,0.3,,,,,,,,,0,1,1,1,0,10,10,9,,,,,,,,,,,,,,,,,,,,,,,,,,,,,,,,,,,,,,,,,,,,,,,,,,,,,,,,,,,False,True,False,0.93,0.93,10.799999999999999,-23.82,0.3,-23.52,-11.61,certain,certain,-11.61,109.66000000000003,569.6906688519521,None,569.6906688519521,None,569.6906688519521,None,569.6906688519521,None,569.6906688519521,None,569.6906688519521,None,569.6906688519521,None,3,2.6679214347095694,569.6906688519521,None,572.391687620373,None,572.391687620373,None,572.391687620373,None,572.391687620373,None,572.391687620373,None,572.391687620373,None,572.391687620373,None,576.3765686467232,None,576.3765686467232,None,576.3765686467232,None,576.3765686467232,None,576.3765686467232,None,576.3765686467232,None,576.3765686467232,None,577.3769503888907,None,,,,,,,,,,,,,,,,,,,,,,,,,,,,,,22812,2020_Jan_10_1437,Mmi_3levels,3.1.5,60.008256748413196,
,,,2,0,0.1,,,,,,,,,0,1,1,1,0,11,11,2,,,,,,,,,,,,,,,,,,,,,,,,,,,,,,,,,,,,,,,,,,,,,,,,,,,,,,,,,,,False,True,True,0.93,0.93,11.729999999999999,-24.75,0.1,-24.65,-12.274999999999999,certain,certain,-12.274999999999999,97.38500000000002,579.3944500513026,None,579.3944500513026,None,579.3944500513026,None,579.3944500513026,None,579.3944500513026,None,579.3944500513026,None,579.3944500513026,None,3,1.917655367142288,579.3944500513026,None,581.3452104317839,None,581.3452104317839,None,581.3452104317839,None,581.3452104317839,None,581.3452104317839,None,581.3452104317839,None,581.3452104317839,None,585.3467031620385,None,585.3467031620385,None,585.3467031620385,None,585.3467031620385,None,585.3467031620385,None,585.3467031620385,None,585.3467031620385,None,594.8337399276788,None,586.3304783200729,None,587.3308155843115,None,0.9,7.502833787613781,590.331963050703,None,None,590.331963050703,None,,,,,,,,,,,,,,,,,,,22812,2020_Jan_10_1437,Mmi_3levels,3.1.5,60.008256748413196,
,,,2,0,12.7,,,,,,,,,0,1,1,1,0,12,12,15,,,,,,,,,,,,,,,,,,,,,,,,,,,,,,,,,,,,,,,,,,,,,,,,,,,,,,,,,,,False,True,False,0.9,0.9,12.629999999999999,-25.229999999999997,12.7,-12.529999999999998,0.08500000000000085,gamble,lose,-12.529999999999998,84.85500000000002,596.8512466297543,None,596.8512466297543,None,596.8512466297543,None,596.8512466297543,None,596.8512466297543,None,596.8512466297543,None,596.8512466297543,None,1,1.317218779528048,596.8512466297543,None,598.2017524941475,None,598.2017524941475,None,598.2017524941475,None,598.2017524941475,None,598.2017524941475,None,598.2017524941475,None,598.2017524941475,None,602.2033233007533,None,602.2033233007533,None,602.2033233007533,None,602.2033233007533,None,602.2033233007533,None,602.2033233007533,None,602.2033233007533,None,603.1869775044324,None,,,,,,,,,,,,,,,,,,,,,,,,,,,,,,22812,2020_Jan_10_1437,Mmi_3levels,3.1.5,60.008256748413196,
,,,2,0,4.3,,,,,,,,,0,1,1,1,0,13,13,8,,,,,,,,,,,,,,,,,,,,,,,,,,,,,,,,,,,,,,,,,,,,,,,,,,,,,,,,,,,False,False,False,0.9,0.9,13.53,4.2775,1.075,-3.2024999999999997,-1.0637499999999998,gamble,win,1.075,85.93000000000002,605.2044634074846,None,605.2044634074846,None,605.2044634074846,None,605.2044634074846,None,605.2044634074846,None,605.2044634074846,None,605.2044634074846,None,1,2.5345068678434473,605.2044634074846,None,607.7721021673933,None,607.7721021673933,None,607.7721021673933,None,607.7721021673933,None,607.7721021673933,None,607.7721021673933,None,607.7721021673933,None,611.7569495953212,None,611.7569495953212,None,611.7569495953212,None,611.7569495953212,None,611.7569495953212,None,611.7569495953212,None,611.7569495953212,None,621.2606915005017,None,612.757428932935,None,613.7577581975493,None,0.97,7.502788989717374,616.7588730254502,None,None,616.7588730254502,None,,,,,,,,,,,,,,,,,,,22812,2020_Jan_10_1437,Mmi_3levels,3.1.5,60.008256748413196,
,,,2,0,13.5,,,,,,,,,0,1,1,1,0,14,14,4,,,,,,,,,,,,,,,,,,,,,,,,,,,,,,,,,,,,,,,,,,,,,,,,,,,,,,,,,,,False,True,True,0.97,0.97,14.5,-28.08,13.5,-14.579999999999998,-0.5399999999999991,gamble,lose,-14.579999999999998,71.35000000000002,623.2780846079113,None,623.2780846079113,None,623.2780846079113,None,623.2780846079113,None,623.2780846079113,None,623.2780846079113,None,623.2780846079113,None,1,2.5012393021024764,623.2780846079113,None,625.8124132440716,None,625.8124132440716,None,625.8124132440716,None,625.8124132440716,None,625.8124132440716,None,625.8124132440716,None,625.8124132440716,None,629.8140115693968,None,629.8140115693968,None,629.8140115693968,None,629.8140115693968,None,629.8140115693968,None,629.8140115693968,None,629.8140115693968,None,630.7977368097345,None,,,,,,,,,,,,,,,,,,,,,,,,,,,,,,22812,2020_Jan_10_1437,Mmi_3levels,3.1.5,60.008256748413196,
,,,2,0,8.3,,,,,,,,,0,1,1,1,0,15,15,5,,,,,,,,,,,,,,,,,,,,,,,,,,,,,,,,,,,,,,,,,,,,,,,,,,,,,,,,,,,False,True,False,0.97,0.97,15.47,-29.05,8.3,-20.75,-6.225,gamble,lose,-20.75,50.60000000000002,632.8151708752266,None,632.8151708752266,None,632.8151708752266,None,632.8151708752266,None,632.8151708752266,None,632.8151708752266,None,632.8151708752266,None,None,,632.8151708752266,None,635.8163356208242,None,635.8163356208242,None,635.8163356208242,None,635.8163356208242,None,635.8163356208242,None,635.8163356208242,None,635.8163356208242,None,639.8178360307065,None,639.8178360307065,None,639.8178360307065,None,639.8178360307065,None,639.8178360307065,None,639.8178360307065,None,639.8178360307065,None,649.3048983951448,None,640.8015475117136,None,641.8019871711731,None,0.93,7.502784189913655,644.8030863198219,None,None,644.8030863198219,None,,,,,,,,,,,,,,,,,,,22812,2020_Jan_10_1437,Mmi_3levels,3.1.5,60.008256748413196,
,,,2,0,3.9,,,,,,,,,0,1,1,1,0,16,16,24,,,,,,,,,,,,,,,,,,,,,,,,,,,,,,,,,,,,,,,,,,,,,,,,,,,,,,,,,,,False,True,True,0.93,0.93,16.400000000000002,-29.42,3.9,-25.520000000000003,-10.810000000000002,gamble,lose,-25.520000000000003,25.08000000000002,651.322332460637,None,651.322332460637,None,651.322332460637,None,651.322332460637,None,651.322332460637,None,651.322332460637,None,651.322332460637,None,1,2.0177326115372125,651.322332460637,None,653.3731294473982,None,653.3731294473982,None,653.3731294473982,None,653.3731294473982,None,653.3731294473982,None,653.3731294473982,None,653.3731294473982,None,657.3746778550558,None,657.3746778550558,None,657.3746778550558,None,657.3746778550558,None,657.3746778550558,None,657.3746778550558,None,657.3746778550558,None,658.3584040553833,None,,,,,,,,,,,,,,,,,,,,,,,,,,,,,,22812,2020_Jan_10_1437,Mmi_3levels,3.1.5,60.008256748413196,
,,,2,0,3.5,,,,,,,,,0,1,1,1,0,17,17,23,,,,,,,,,,,,,,,,,,,,,,,,,,,,,,,,,,,,,,,,,,,,,,,,,,,,,,,,,,,False,True,False,0.93,0.93,17.330000000000002,-30.35,3.5,-26.85,-11.675,certain,certain,-11.675,13.405000000000019,660.375877479004,None,660.375877479004,None,660.375877479004,None,660.375877479004,None,660.375877479004,None,660.375877479004,None,660.375877479004,None,3,2.5011871445458382,660.375877479004,None,662.9101977955725,None,662.9101977955725,None,662.9101977955725,None,662.9101977955725,None,662.9101977955725,None,662.9101977955725,None,662.9101977955725,None,666.9117254042067,None,666.9117254042067,None,666.9117254042067,None,666.9117254042067,None,666.9117254042067,None,666.9117254042067,None,666.9117254042067,None,667.8954074465728,None,,,,,,,,,,,,,,,,,,,,,,,,,,,,,,22812,2020_Jan_10_1437,Mmi_3levels,3.1.5,60.008256748413196,
,,,2,0,2.9,,,,,,,,,0,1,1,1,0,18,18,25,,,,,,,,,,,,,,,,,,,,,,,,,,,,,,,,,,,,,,,,,,,,,,,,,,,,,,,,,,,False,True,False,0.93,0.93,18.26,-31.28,2.9,-28.380000000000003,-12.740000000000002,gamble,lose,-28.380000000000003,-14.974999999999984,669.9128319125157,None,669.9128319125157,None,669.9128319125157,None,669.9128319125157,None,669.9128319125157,None,669.9128319125157,None,669.9128319125157,None,1,1.384129893471254,669.9128319125157,None,671.3300524199731,None,671.3300524199731,None,671.3300524199731,None,671.3300524199731,None,671.3300524199731,None,671.3300524199731,None,671.3300524199731,None,675.3316545851121,None,675.3316545851121,None,675.3316545851121,None,675.3316545851121,None,675.3316545851121,None,675.3316545851121,None,675.3316545851121,None,684.8186673518794,None,676.3153279878898,None,677.315770847199,None,0.92,7.502872185810702,680.3169154337083,None,None,680.3169154337083,None,,,,,,,,,,,,,,,,,,,22812,2020_Jan_10_1437,Mmi_3levels,3.1.5,60.008256748413196,
,,,2,0,1.9,,,,,,,,,0,1,1,1,0,19,19,20,,,,,,,,,,,,,,,,,,,,,,,,,,,,,,,,,,,,,,,,,,,,,,,,,,,,,,,,,,,False,False,True,0.92,0.92,19.180000000000003,4.818333333333333,0.475,-4.343333333333334,-1.9341666666666668,gamble,win,0.475,-14.499999999999984,686.8361033372639,None,686.8361033372639,None,686.8361033372639,None,686.8361033372639,None,686.8361033372639,None,686.8361033372639,None,686.8361033372639,None,1,1.7842436801292934,686.8361033372639,None,688.6534363514511,None,688.6534363514511,None,688.6534363514511,None,688.6534363514511,None,688.6534363514511,None,688.6534363514511,None,688.6534363514511,None,692.6383125780558,None,692.6383125780558,None,692.6383125780558,None,692.6383125780558,None,692.6383125780558,None,692.6383125780558,None,692.6383125780558,None,693.6387519175187,None,,,,,,,,,,,,,,,,,,,,,,,,,,,,,,22812,2020_Jan_10_1437,Mmi_3levels,3.1.5,60.008256748413196,
,,,2,0,2.3,,,,,,,,,0,1,1,1,0,20,20,6,,,,,,,,,,,,,,,,,,,,,,,,,,,,,,,,,,,,,,,,,,,,,,,,,,,,,,,,,,,False,True,True,0.92,0.92,20.100000000000005,-32.980000000000004,2.3,-30.680000000000003,-14.190000000000001,gamble,lose,-30.680000000000003,-45.179999999999986,695.6561447049316,None,695.6561447049316,None,695.6561447049316,None,695.6561447049316,None,695.6561447049316,None,695.6561447049316,None,695.6561447049316,None,1,1.9843956090626307,695.6561447049316,None,697.6736482071574,None,697.6736482071574,None,697.6736482071574,None,697.6736482071574,None,697.6736482071574,None,697.6736482071574,None,697.6736482071574,None,701.6585276336118,None,701.6585276336118,None,701.6585276336118,None,701.6585276336118,None,701.6585276336118,None,701.6585276336118,None,701.6585276336118,None,711.1621610638394,None,702.6589064958971,None,703.6593071171956,None,0.9,7.502723072801018,706.660400506109,None,None,706.660400506109,None,,,,,,,,,,,,,,,,,,,22812,2020_Jan_10_1437,Mmi_3levels,3.1.5,60.008256748413196,
,,,2,0,1.1,,,,,,,,,0,1,1,1,0,21,21,10,,,,,,,,,,,,,,,,,,,,,,,,,,,,,,,,,,,,,,,,,,,,,,,,,,,,,,,,,,,False,True,False,0.9,0.9,21.000000000000004,-33.6,1.1,-32.5,-15.7,gamble,lose,-32.5,-77.67999999999998,713.1796066487732,None,713.1796066487732,None,713.1796066487732,None,713.1796066487732,None,713.1796066487732,None,713.1796066487732,None,713.1796066487732,None,1,1.8176923574355897,713.1796066487732,None,715.0304001797049,None,715.0304001797049,None,715.0304001797049,None,715.0304001797049,None,715.0304001797049,None,715.0304001797049,None,715.0304001797049,None,719.0319693864149,None,719.0319693864149,None,719.0319693864149,None,719.0319693864149,None,719.0319693864149,None,719.0319693864149,None,719.0319693864149,None,720.0155938314565,None,,,,,,,,,,,,,,,,,,,,,,,,,,,,,,22812,2020_Jan_10_1437,Mmi_3levels,3.1.5,60.008256748413196,
,,,2,0,5.7,,,,,,,,,0,1,1,1,0,22,22,17,,,,,,,,,,,,,,,,,,,,,,,,,,,,,,,,,,,,,,,,,,,,,,,,,,,,,,,,,,,False,True,True,0.9,0.9,21.900000000000002,-34.5,5.7,-28.8,-11.55,gamble,lose,-28.8,-106.47999999999998,722.0330918939435,None,722.0330918939435,None,722.0330918939435,None,722.0330918939435,None,722.0330918939435,None,722.0330918939435,None,722.0330918939435,None,1,0.9839207511977293,722.0330918939435,None,723.0501794156153,None,723.0501794156153,None,723.0501794156153,None,723.0501794156153,None,723.0501794156153,None,723.0501794156153,None,723.0501794156153,None,727.0516974247003,None,727.0516974247003,None,727.0516974247003,None,727.0516974247003,None,727.0516974247003,None,727.0516974247003,None,727.0516974247003,None,736.5387175511278,None,728.0353650677425,None,729.0357749685936,None,0.87,7.502948342269519,732.0369633930677,None,None,732.0369633930677,None,,,,,,,,,,,,,,,,,,,22812,2020_Jan_10_1437,Mmi_3levels,3.1.5,60.008256748413196,
,,,2,0,4.1,,,,,,,,,0,1,1,1,0,23,23,13,,,,,,,,,,,,,,,,,,,,,,,,,,,,,,,,,,,,,,,,,,,,,,,,,,,,,,,,,,,False,True,False,0.87,0.87,22.770000000000003,-34.95,4.1,-30.85,-13.375,gamble,lose,-30.85,-137.32999999999998,738.5561919347092,None,738.5561919347092,None,738.5561919347092,None,738.5561919347092,None,738.5561919347092,None,738.5561919347092,None,738.5561919347092,None,1,1.2173053674923722,738.5561919347092,None,739.8065994356875,None,739.8065994356875,None,739.8065994356875,None,739.8065994356875,None,739.8065994356875,None,739.8065994356875,None,739.8065994356875,None,743.7915271798556,None,743.7915271798556,None,743.7915271798556,None,743.7915271798556,None,743.7915271798556,None,743.7915271798556,None,743.7915271798556,None,744.7918689239013,None,,,,,,,,,,,,,,,,,,,,,,,,,,,,,,22812,2020_Jan_10_1437,Mmi_3levels,3.1.5,60.008256748413196,
,,,2,0,11.5,,,,,,,,,0,1,1,1,0,24,24,19,,,,,,,,,,,,,,,,,,,,,,,,,,,,,,,,,,,,,,,,,,,,,,,,,,,,,,,,,,,False,False,True,0.87,0.87,23.640000000000004,5.015000000000001,2.875,-2.1400000000000006,0.3674999999999997,gamble,win,2.875,-134.45499999999998,746.8093189886131,None,746.8093189886131,None,746.8093189886131,None,746.8093189886131,None,746.8093189886131,None,746.8093189886131,None,746.8093189886131,None,1,1.4675074380647857,746.8093189886131,None,748.3098984815588,None,748.3098984815588,None,748.3098984815588,None,748.3098984815588,None,748.3098984815588,None,748.3098984815588,None,748.3098984815588,None,752.2947756680951,None,752.2947756680951,None,752.2947756680951,None,752.2947756680951,None,752.2947756680951,None,752.2947756680951,None,752.2947756680951,None,753.295165409887,None,,,,,,,,,,,,,,,,,,,,,,,,,,,,,,22812,2020_Jan_10_1437,Mmi_3levels,3.1.5,60.008256748413196,
,,,2,0,11.9,,,,,,,,,0,1,1,1,0,25,25,16,,,,,,,,,,,,,,,,,,,,,,,,,,,,,,,,,,,,,,,,,,,,,,,,,,,,,,,,,,,False,True,True,0.87,0.87,24.510000000000005,-36.690000000000005,11.9,-24.790000000000006,-6.445000000000003,gamble,lose,-24.790000000000006,-159.245,755.3126122747781,None,755.3126122747781,None,755.3126122747781,None,755.3126122747781,None,755.3126122747781,None,755.3126122747781,None,755.3126122747781,None,1,1.6508841506729368,755.3126122747781,None,756.9965988789045,None,756.9965988789045,None,756.9965988789045,None,756.9965988789045,None,756.9965988789045,None,756.9965988789045,None,756.9965988789045,None,760.9982106436219,None,760.9982106436219,None,760.9982106436219,None,760.9982106436219,None,760.9982106436219,None,760.9982106436219,None,760.9982106436219,None,770.4851574934437,None,761.9819189247501,None,762.9822565089853,None,0.78,7.503121454181382,765.9834570928942,None,None,765.9834570928942,None,,,,,,,,,,,,,,,,,,,22812,2020_Jan_10_1437,Mmi_3levels,3.1.5,60.008256748413196,
,,,2,0,-0.9,,,,,,,,,0,1,1,1,0,26,26,11,,,,,,,,,,,,,,,,,,,,,,,,,,,,,,,,,,,,,,,,,,,,,,,,,,,,,,,,,,,False,False,False,0.78,0.78,25.290000000000006,4.8375,-0.225,-5.0625,-2.64375,gamble,win,-0.225,-159.47,772.5026126779558,None,772.5026126779558,None,772.5026126779558,None,772.5026126779558,None,772.5026126779558,None,772.5026126779558,None,772.5026126779558,None,1,2.3845292347832583,772.5026126779558,None,774.9202475660422,None,774.9202475660422,None,774.9202475660422,None,774.9202475660422,None,774.9202475660422,None,774.9202475660422,None,774.9202475660422,None,778.9218270122656,None,778.9218270122656,None,778.9218270122656,None,778.9218270122656,None,778.9218270122656,None,778.9218270122656,None,778.9218270122656,None,779.9054962552327,None,,,,,,,,,,,,,,,,,,,,,,,,,,,,,,22812,2020_Jan_10_1437,Mmi_3levels,3.1.5,60.008256748413196,
,,,3,1,-0.3,,,,,,,,,0,2,2,2,0,0,0,13,,,,,,,,,,,,,,,,,,,,,,,,,,,,,,,,,,,,,,,,,,,,,,,,783.8236722380389,None,0.85,7.501935269567184,786.8414899655909,None,None,786.8414899655909,None,791.3265841020038,None,True,True,True,0.85,-0.15000000000000002,-0.15000000000000002,2.2500000000000004,-0.3,-2.5500000000000003,-1.425,gamble,win,-0.3,-159.77,794.3610852101119,None,794.3610852101119,None,794.3610852101119,None,794.3610852101119,None,794.3610852101119,None,794.3610852101119,None,794.3610852101119,None,1,1.9510413273528684,794.3610852101119,None,796.3452264310326,None,796.3452264310326,None,796.3452264310326,None,796.3452264310326,None,796.3452264310326,None,796.3452264310326,None,796.3452264310326,None,800.3300860183954,None,800.3300860183954,None,800.3300860183954,None,800.3300860183954,None,800.3300860183954,None,800.3300860183954,None,800.3300860183954,None,809.8337559269276,None,801.3305080786813,None,802.3308959005517,None,0.91,7.502714113186812,805.3320091285568,None,None,805.3320091285568,None,781.9062699790811,None,4,1.9011111800791696,781.9062699790811,None,,,,,,,,,,,,,22812,2020_Jan_10_1437,Mmi_3levels,3.1.5,60.008256748413196,
,,,3,1,0.3,,,,,,,,,0,2,2,2,0,1,1,11,,,,,,,,,,,,,,,,,,,,,,,,,,,,,,,,,,,,,,,,,,,,,,,,,,,,,,,,,,,True,True,True,0.91,-0.08999999999999997,-0.24,1.4999999999999996,0.3,-1.1999999999999995,-0.44999999999999973,gamble,win,0.3,-159.47,811.8512181511032,None,811.8512181511032,None,811.8512181511032,None,811.8512181511032,None,811.8512181511032,None,811.8512181511032,None,811.8512181511032,None,1,1.7175834344816394,811.8512181511032,None,813.6018985992996,None,813.6018985992996,None,813.6018985992996,None,813.6018985992996,None,813.6018985992996,None,813.6018985992996,None,813.6018985992996,None,817.5867591466231,None,817.5867591466231,None,817.5867591466231,None,817.5867591466231,None,817.5867591466231,None,817.5867591466231,None,817.5867591466231,None,818.5871994460467,None,,,,,,,,,,,,,,,,,,,,,,,,,,,,,,22812,2020_Jan_10_1437,Mmi_3levels,3.1.5,60.008256748413196,
,,,3,1,0.7,,,,,,,,,0,2,2,2,0,2,2,8,,,,,,,,,,,,,,,,,,,,,,,,,,,,,,,,,,,,,,,,,,,,,,,,,,,,,,,,,,,True,True,False,0.91,-0.08999999999999997,-0.32999999999999996,1.5899999999999994,0.7,-0.8899999999999995,-0.09499999999999975,gamble,win,0.7,-158.77,820.6046047128912,None,820.6046047128912,None,820.6046047128912,None,820.6046047128912,None,820.6046047128912,None,820.6046047128912,None,820.6046047128912,None,1,1.700953811436193,820.6046047128912,None,822.3386264193978,None,822.3386264193978,None,822.3386264193978,None,822.3386264193978,None,822.3386264193978,None,822.3386264193978,None,822.3386264193978,None,826.3234783271037,None,826.3234783271037,None,826.3234783271037,None,826.3234783271037,None,826.3234783271037,None,826.3234783271037,None,826.3234783271037,None,827.3239183065598,None,,,,,,,,,,,,,,,,,,,,,,,,,,,,,,22812,2020_Jan_10_1437,Mmi_3levels,3.1.5,60.008256748413196,
,,,3,1,13.5,,,,,,,,,0,2,2,2,0,3,3,3,,,,,,,,,,,,,,,,,,,,,,,,,,,,,,,,,,,,,,,,,,,,,,,,,,,,,,,,,,,True,False,True,0.91,-0.08999999999999997,-0.41999999999999993,-0.34999999999999987,13.5,13.15,6.575,gamble,lose,13.15,-145.62,829.3413174936431,None,829.3413174936431,None,829.3413174936431,None,829.3413174936431,None,829.3413174936431,None,829.3413174936431,None,829.3413174936431,None,1,0.967342965741409,829.3413174936431,None,830.3417011557322,None,830.3417011557322,None,830.3417011557322,None,830.3417011557322,None,830.3417011557322,None,830.3417011557322,None,830.3417011557322,None,834.3266209002759,None,834.3266209002759,None,834.3266209002759,None,834.3266209002759,None,834.3266209002759,None,834.3266209002759,None,834.3266209002759,None,843.8302831291803,None,835.3269693639886,None,836.3274413419422,None,0.95,7.5028744256997015,839.3285616096109,None,None,839.3285616096109,None,,,,,,,,,,,,,,,,,,,22812,2020_Jan_10_1437,Mmi_3levels,3.1.5,60.008256748413196,
,,,3,1,8.1,,,,,,,,,0,2,2,2,0,4,4,17,,,,,,,,,,,,,,,,,,,,,,,,,,,,,,,,,,,,,,,,,,,,,,,,,,,,,,,,,,,True,True,False,0.95,-0.050000000000000044,-0.47,1.1700000000000006,8.1,6.929999999999999,3.4649999999999994,gamble,win,8.1,-137.52,845.8477667923435,None,845.8477667923435,None,845.8477667923435,None,845.8477667923435,None,845.8477667923435,None,845.8477667923435,None,845.8477667923435,None,1,1.2007147826079745,845.8477667923435,None,847.0815792286303,None,847.0815792286303,None,847.0815792286303,None,847.0815792286303,None,847.0815792286303,None,847.0815792286303,None,847.0815792286303,None,851.0664592950197,None,851.0664592950197,None,851.0664592950197,None,851.0664592950197,None,851.0664592950197,None,851.0664592950197,None,851.0664592950197,None,852.0667971992516,None,,,,,,,,,,,,,,,,,,,,,,,,,,,,,,22812,2020_Jan_10_1437,Mmi_3levels,3.1.5,60.008256748413196,
,,,3,1,-0.1,,,,,,,,,0,2,2,2,0,5,5,14,,,,,,,,,,,,,,,,,,,,,,,,,,,,,,,,,,,,,,,,,,,,,,,,,,,,,,,,,,,True,True,False,0.95,-0.050000000000000044,-0.52,1.2200000000000006,-0.1,-1.3200000000000007,-0.7100000000000004,gamble,win,-0.1,-137.62,854.0842978216242,None,854.0842978216242,None,854.0842978216242,None,854.0842978216242,None,854.0842978216242,None,854.0842978216242,None,854.0842978216242,None,1,0.9839303507760633,854.0842978216242,None,855.1013066269516,None,855.1013066269516,None,855.1013066269516,None,855.1013066269516,None,855.1013066269516,None,855.1013066269516,None,855.1013066269516,None,859.0862391709234,None,859.0862391709234,None,859.0862391709234,None,859.0862391709234,None,859.0862391709234,None,859.0862391709234,None,859.0862391709234,None,868.589865881484,None,860.086621553055,None,861.0870135347359,None,0.92,7.5028645061538555,864.0881622810557,None,None,864.0881622810557,None,,,,,,,,,,,,,,,,,,,22812,2020_Jan_10_1437,Mmi_3levels,3.1.5,60.008256748413196,
,,,3,1,3.5,,,,,,,,,0,2,2,2,0,6,6,21,,,,,,,,,,,,,,,,,,,,,,,,,,,,,,,,,,,,,,,,,,,,,,,,,,,,,,,,,,,True,True,False,0.92,-0.07999999999999996,-0.6,1.7199999999999993,3.5,1.7800000000000007,0.8900000000000003,gamble,win,3.5,-134.12,870.6073575442715,None,870.6073575442715,None,870.6073575442715,None,870.6073575442715,None,870.6073575442715,None,870.6073575442715,None,870.6073575442715,None,1,1.3173928514006548,870.6073575442715,None,871.9578390897659,None,871.9578390897659,None,871.9578390897659,None,871.9578390897659,None,871.9578390897659,None,871.9578390897659,None,871.9578390897659,None,875.9427124364884,None,875.9427124364884,None,875.9427124364884,None,875.9427124364884,None,875.9427124364884,None,875.9427124364884,None,875.9427124364884,None,876.9431028182444,None,,,,,,,,,,,,,,,,,,,,,,,,,,,,,,22812,2020_Jan_10_1437,Mmi_3levels,3.1.5,60.008256748413196,
,,,3,1,9.7,,,,,,,,,0,2,2,2,0,7,7,22,,,,,,,,,,,,,,,,,,,,,,,,,,,,,,,,,,,,,,,,,,,,,,,,,,,,,,,,,,,True,True,False,0.92,-0.07999999999999996,-0.6799999999999999,1.7999999999999994,9.7,7.9,3.95,gamble,win,9.7,-124.42,878.9606018406921,None,878.9606018406921,None,878.9606018406921,None,878.9606018406921,None,878.9606018406921,None,878.9606018406921,None,878.9606018406921,None,1,1.26741950615542,878.9606018406921,None,880.2611212404154,None,880.2611212404154,None,880.2611212404154,None,880.2611212404154,None,880.2611212404154,None,880.2611212404154,None,880.2611212404154,None,884.2459437095094,None,884.2459437095094,None,884.2459437095094,None,884.2459437095094,None,884.2459437095094,None,884.2459437095094,None,884.2459437095094,None,893.7662992385158,None,885.246327691566,None,886.2467699109111,None,0.95,7.519402613514103,889.247914817417,None,None,889.247914817417,None,,,,,,,,,,,,,,,,,,,22812,2020_Jan_10_1437,Mmi_3levels,3.1.5,60.008256748413196,
,,,3,1,9.3,,,,,,,,,0,2,2,2,0,8,8,4,,,,,,,,,,,,,,,,,,,,,,,,,,,,,,,,,,,,,,,,,,,,,,,,,,,,,,,,,,,True,False,True,0.95,-0.050000000000000044,-0.73,-0.23583333333333348,9.3,9.064166666666667,4.5320833333333335,gamble,lose,9.064166666666667,-115.35583333333334,895.7837976209994,None,895.7837976209994,None,895.7837976209994,None,895.7837976209994,None,895.7837976209994,None,895.7837976209994,None,895.7837976209994,None,1,1.0006335704238154,895.7837976209994,None,896.8175438843609,None,896.8175438843609,None,896.8175438843609,None,896.8175438843609,None,896.8175438843609,None,896.8175438843609,None,896.8175438843609,None,900.8024082714983,None,900.8024082714983,None,900.8024082714983,None,900.8024082714983,None,900.8024082714983,None,900.8024082714983,None,900.8024082714983,None,901.8028216921666,None,,,,,,,,,,,,,,,,,,,,,,,,,,,,,,22812,2020_Jan_10_1437,Mmi_3levels,3.1.5,60.008256748413196,
,,,3,1,12.3,,,,,,,,,0,2,2,2,0,9,9,18,,,,,,,,,,,,,,,,,,,,,,,,,,,,,,,,,,,,,,,,,,,,,,,,,,,,,,,,,,,True,True,False,0.95,-0.050000000000000044,-0.78,1.4800000000000006,12.3,10.82,5.41,gamble,win,12.3,-103.05583333333334,903.820252557809,None,903.820252557809,None,903.820252557809,None,903.820252557809,None,903.820252557809,None,903.820252557809,None,903.820252557809,None,1,0.8506095395132434,903.820252557809,None,904.7038973539311,None,904.7038973539311,None,904.7038973539311,None,904.7038973539311,None,904.7038973539311,None,904.7038973539311,None,904.7038973539311,None,908.7054768001253,None,908.7054768001253,None,908.7054768001253,None,908.7054768001253,None,908.7054768001253,None,908.7054768001253,None,908.7054768001253,None,909.6891358035791,None,,,,,,,,,,,,,,,,,,,,,,,,,,,,,,22812,2020_Jan_10_1437,Mmi_3levels,3.1.5,60.008256748413196,
,,,3,1,10.5,,,,,,,,,0,2,2,2,0,10,10,10,,,,,,,,,,,,,,,,,,,,,,,,,,,,,,,,,,,,,,,,,,,,,,,,,,,,,,,,,,,True,True,False,0.95,-0.050000000000000044,-0.8300000000000001,1.5300000000000007,10.5,8.969999999999999,4.484999999999999,gamble,win,10.5,-92.55583333333334,911.706641545723,None,911.706641545723,None,911.706641545723,None,911.706641545723,None,911.706641545723,None,911.706641545723,None,911.706641545723,None,1,1.050650433608098,911.706641545723,None,912.7903918728989,None,912.7903918728989,None,912.7903918728989,None,912.7903918728989,None,912.7903918728989,None,912.7903918728989,None,912.7903918728989,None,916.7752354610129,None,916.7752354610129,None,916.7752354610129,None,916.7752354610129,None,916.7752354610129,None,916.7752354610129,None,916.7752354610129,None,926.2789559271769,None,917.7756501616386,None,918.775990625727,None,0.97,7.502833787584677,921.777200169221,None,None,921.777200169221,None,,,,,,,,,,,,,,,,,,,22812,2020_Jan_10_1437,Mmi_3levels,3.1.5,60.008256748413196,
,,,3,1,6.7,,,,,,,,,0,2,2,2,0,11,11,1,,,,,,,,,,,,,,,,,,,,,,,,,,,,,,,,,,,,,,,,,,,,,,,,,,,,,,,,,,,True,True,False,0.97,-0.030000000000000027,-0.8600000000000001,1.2800000000000005,6.7,5.42,2.71,gamble,win,6.7,-85.85583333333334,928.2963519144396,None,928.2963519144396,None,928.2963519144396,None,928.2963519144396,None,928.2963519144396,None,928.2963519144396,None,928.2963519144396,None,1,2.484668556280667,928.2963519144396,None,930.8140493276296,None,930.8140493276296,None,930.8140493276296,None,930.8140493276296,None,930.8140493276296,None,930.8140493276296,None,930.8140493276296,None,934.8155548572831,None,934.8155548572831,None,934.8155548572831,None,934.8155548572831,None,934.8155548572831,None,934.8155548572831,None,934.8155548572831,None,935.7992602585582,None,,,,,,,,,,,,,,,,,,,,,,,,,,,,,,22812,2020_Jan_10_1437,Mmi_3levels,3.1.5,60.008256748413196,
,,,3,1,0.9,,,,,,,,,0,2,2,2,0,12,12,6,,,,,,,,,,,,,,,,,,,,,,,,,,,,,,,,,,,,,,,,,,,,,,,,,,,,,,,,,,,True,True,True,0.97,-0.030000000000000027,-0.8900000000000001,1.3100000000000005,0.9,-0.4100000000000005,0.24499999999999977,gamble,win,0.9,-84.95583333333333,937.816731442319,None,937.816731442319,None,937.816731442319,None,937.816731442319,None,937.816731442319,None,937.816731442319,None,937.816731442319,None,1,0.6504905690962914,937.816731442319,None,938.5003382241994,None,938.5003382241994,None,938.5003382241994,None,938.5003382241994,None,938.5003382241994,None,938.5003382241994,None,938.5003382241994,None,942.4851910918951,None,942.4851910918951,None,942.4851910918951,None,942.4851910918951,None,942.4851910918951,None,942.4851910918951,None,942.4851910918951,None,951.9889281972719,None,943.4856310713221,None,944.4860150533787,None,1.0,7.502824188035447,947.4871158019523,None,None,947.4871158019523,None,,,,,,,,,,,,,,,,,,,22812,2020_Jan_10_1437,Mmi_3levels,3.1.5,60.008256748413196,
,,,3,1,7.3,,,,,,,,,0,2,2,2,0,13,13,15,,,,,,,,,,,,,,,,,,,,,,,,,,,,,,,,,,,,,,,,,,,,,,,,,,,,,,,,,,,True,False,False,1.0,0.0,-0.8900000000000001,-0.07416666666666667,7.3,7.225833333333333,3.6129166666666666,gamble,lose,7.225833333333333,-77.73,954.0063341040805,None,954.0063341040805,None,954.0063341040805,None,954.0063341040805,None,954.0063341040805,None,954.0063341040805,None,954.0063341040805,None,1,0.8339008801558521,954.0063341040805,None,954.8733239983267,None,954.8733239983267,None,954.8733239983267,None,954.8733239983267,None,954.8733239983267,None,954.8733239983267,None,954.8733239983267,None,958.8582472626877,None,958.8582472626877,None,958.8582472626877,None,958.8582472626877,None,958.8582472626877,None,958.8582472626877,None,958.8582472626877,None,959.8585918865865,None,,,,,,,,,,,,,,,,,,,,,,,,,,,,,,22812,2020_Jan_10_1437,Mmi_3levels,3.1.5,60.008256748413196,
,,,3,1,0.5,,,,,,,,,0,2,2,2,0,14,14,23,,,,,,,,,,,,,,,,,,,,,,,,,,,,,,,,,,,,,,,,,,,,,,,,,,,,,,,,,,,True,True,False,1.0,0.0,-0.8900000000000001,0.8900000000000001,0.5,-0.3900000000000001,0.05499999999999994,gamble,win,0.5,-77.23,961.8760406713991,None,961.8760406713991,None,961.8760406713991,None,961.8760406713991,None,961.8760406713991,None,961.8760406713991,None,961.8760406713991,None,1,2.768041557079414,961.8760406713991,None,964.6771274046041,None,964.6771274046041,None,964.6771274046041,None,964.6771274046041,None,964.6771274046041,None,964.6771274046041,None,964.6771274046041,None,968.6620746678673,None,968.6620746678673,None,968.6620746678673,None,968.6620746678673,None,968.6620746678673,None,968.6620746678673,None,968.6620746678673,None,969.6623927330074,None,,,,,,,,,,,,,,,,,,,,,,,,,,,,,,22812,2020_Jan_10_1437,Mmi_3levels,3.1.5,60.008256748413196,
,,,3,1,7.9,,,,,,,,,0,2,2,2,0,15,15,25,,,,,,,,,,,,,,,,,,,,,,,,,,,,,,,,,,,,,,,,,,,,,,,,,,,,,,,,,,,True,False,True,1.0,0.0,-0.8900000000000001,-0.07416666666666667,7.9,7.825833333333334,3.912916666666667,gamble,lose,7.825833333333334,-69.40416666666667,971.6798424777808,None,971.6798424777808,None,971.6798424777808,None,971.6798424777808,None,971.6798424777808,None,971.6798424777808,None,971.6798424777808,None,1,0.6838957284053322,971.6798424777808,None,972.3968310600612,None,972.3968310600612,None,972.3968310600612,None,972.3968310600612,None,972.3968310600612,None,972.3968310600612,None,972.3968310600612,None,976.3983948270034,None,976.3983948270034,None,976.3983948270034,None,976.3983948270034,None,976.3983948270034,None,976.3983948270034,None,976.3983948270034,None,985.8853653557308,None,977.3821056680463,None,978.3824915699952,None,0.98,7.502810108708218,981.3835852789052,None,None,981.3835852789052,None,,,,,,,,,,,,,,,,,,,22812,2020_Jan_10_1437,Mmi_3levels,3.1.5,60.008256748413196,
,,,3,1,2.9,,,,,,,,,0,2,2,2,0,16,16,26,,,,,,,,,,,,,,,,,,,,,,,,,,,,,,,,,,,,,,,,,,,,,,,,,,,,,,,,,,,True,True,False,0.98,-0.020000000000000018,-0.9100000000000001,1.1900000000000004,2.9,1.7099999999999995,0.8549999999999998,gamble,win,2.9,-66.50416666666666,987.9028586184431,None,987.9028586184431,None,987.9028586184431,None,987.9028586184431,None,987.9028586184431,None,987.9028586184431,None,987.9028586184431,None,1,1.6507119987218175,987.9028586184431,None,989.5868567420694,None,989.5868567420694,None,989.5868567420694,None,989.5868567420694,None,989.5868567420694,None,989.5868567420694,None,989.5868567420694,None,993.5716852908663,None,993.5716852908663,None,993.5716852908663,None,993.5716852908663,None,993.5716852908663,None,993.5716852908663,None,993.5716852908663,None,994.5720807923935,None,,,,,,,,,,,,,,,,,,,,,,,,,,,,,,22812,2020_Jan_10_1437,Mmi_3levels,3.1.5,60.008256748413196,
,,,3,1,6.3,,,,,,,,,0,2,2,2,0,17,17,24,,,,,,,,,,,,,,,,,,,,,,,,,,,,,,,,,,,,,,,,,,,,,,,,,,,,,,,,,,,True,True,True,0.98,-0.020000000000000018,-0.9300000000000002,1.2100000000000004,6.3,5.09,2.545,gamble,win,6.3,-60.204166666666666,996.5895074982254,None,996.5895074982254,None,996.5895074982254,None,996.5895074982254,None,996.5895074982254,None,996.5895074982254,None,996.5895074982254,None,1,0.8172274191456381,996.5895074982254,None,997.4398293711711,None,997.4398293711711,None,997.4398293711711,None,997.4398293711711,None,997.4398293711711,None,997.4398293711711,None,997.4398293711711,None,1001.4247078376648,None,1001.4247078376648,None,1001.4247078376648,None,1001.4247078376648,None,1001.4247078376648,None,1001.4247078376648,None,1001.4247078376648,None,1010.9451196840091,None,1002.4251468571601,None,1003.425483161438,None,1.0,7.5196474020776805,1006.4266344676435,None,None,1006.4266344676435,None,,,,,,,,,,,,,,,,,,,22812,2020_Jan_10_1437,Mmi_3levels,3.1.5,60.008256748413196,
,,,3,1,8.7,,,,,,,,,0,2,2,2,0,18,18,12,,,,,,,,,,,,,,,,,,,,,,,,,,,,,,,,,,,,,,,,,,,,,,,,,,,,,,,,,,,True,False,False,1.0,0.0,-0.9300000000000002,-0.07750000000000001,8.7,8.622499999999999,4.311249999999999,gamble,lose,8.622499999999999,-51.58166666666666,1012.9625166312326,None,1012.9625166312326,None,1012.9625166312326,None,1012.9625166312326,None,1012.9625166312326,None,1012.9625166312326,None,1012.9625166312326,None,1,0.8506460178177804,1012.9625166312326,None,1013.8461703869398,None,1013.8461703869398,None,1013.8461703869398,None,1013.8461703869398,None,1013.8461703869398,None,1013.8461703869398,None,1013.8461703869398,None,1017.831083731784,None,1017.831083731784,None,1017.831083731784,None,1017.831083731784,None,1017.831083731784,None,1017.831083731784,None,1017.831083731784,None,1018.8314744335366,None,,,,,,,,,,,,,,,,,,,,,,,,,,,,,,22812,2020_Jan_10_1437,Mmi_3levels,3.1.5,60.008256748413196,
,,,3,1,4.7,,,,,,,,,0,2,2,2,0,19,19,0,,,,,,,,,,,,,,,,,,,,,,,,,,,,,,,,,,,,,,,,,,,,,,,,,,,,,,,,,,,True,True,False,1.0,0.0,-0.9300000000000002,0.9300000000000002,4.7,3.77,1.885,gamble,win,4.7,-46.88166666666666,1020.8489280180947,None,1020.8489280180947,None,1020.8489280180947,None,1020.8489280180947,None,1020.8489280180947,None,1020.8489280180947,None,1020.8489280180947,None,1,0.8839811003999785,1020.8489280180947,None,1021.7659082167665,None,1021.7659082167665,None,1021.7659082167665,None,1021.7659082167665,None,1021.7659082167665,None,1021.7659082167665,None,1021.7659082167665,None,1025.750824441493,None,1025.750824441493,None,1025.750824441493,None,1025.750824441493,None,1025.750824441493,None,1025.750824441493,None,1025.750824441493,None,1035.2544933900936,None,1026.751195304154,None,1027.7516279239499,None,1.0,7.502867066068575,1030.752811868646,None,None,1030.752811868646,None,,,,,,,,,,,,,,,,,,,22812,2020_Jan_10_1437,Mmi_3levels,3.1.5,60.008256748413196,
,,,3,1,-1.3,,,,,,,,,0,2,2,2,0,20,20,19,,,,,,,,,,,,,,,,,,,,,,,,,,,,,,,,,,,,,,,,,,,,,,,,,,,,,,,,,,,True,True,False,1.0,0.0,-0.9300000000000002,0.9300000000000002,-1.3,-2.2300000000000004,-1.7650000000000001,certain,certain,-1.7650000000000001,-48.64666666666666,1037.2719412149163,None,1037.2719412149163,None,1037.2719412149163,None,1037.2719412149163,None,1037.2719412149163,None,1037.2719412149163,None,1037.2719412149163,None,3,1.9176569670671597,1037.2719412149163,None,1039.222700635437,None,1039.222700635437,None,1039.222700635437,None,1039.222700635437,None,1039.222700635437,None,1039.222700635437,None,1039.222700635437,None,1043.2076526984747,None,1043.2076526984747,None,1043.2076526984747,None,1043.2076526984747,None,1043.2076526984747,None,1043.2076526984747,None,1043.2076526984747,None,1044.2079650038795,None,,,,,,,,,,,,,,,,,,,,,,,,,,,,,,22812,2020_Jan_10_1437,Mmi_3levels,3.1.5,60.008256748413196,
,,,3,1,6.5,,,,,,,,,0,2,2,2,0,21,21,9,,,,,,,,,,,,,,,,,,,,,,,,,,,,,,,,,,,,,,,,,,,,,,,,,,,,,,,,,,,True,True,False,1.0,0.0,-0.9300000000000002,0.9300000000000002,6.5,5.57,2.785,gamble,win,6.5,-42.14666666666666,1046.225409308885,None,1046.225409308885,None,1046.225409308885,None,1046.225409308885,None,1046.225409308885,None,1046.225409308885,None,1046.225409308885,None,1,2.0011020285310224,1046.225409308885,None,1048.2595939517778,None,1048.2595939517778,None,1048.2595939517778,None,1048.2595939517778,None,1048.2595939517778,None,1048.2595939517778,None,1048.2595939517778,None,1052.2611407595105,None,1052.2611407595105,None,1052.2611407595105,None,1052.2611407595105,None,1052.2611407595105,None,1052.2611407595105,None,1052.2611407595105,None,1053.2447850436438,None,,,,,,,,,,,,,,,,,,,,,,,,,,,,,,22812,2020_Jan_10_1437,Mmi_3levels,3.1.5,60.008256748413196,
,,,3,1,13.9,,,,,,,,,0,2,2,2,0,22,22,2,,,,,,,,,,,,,,,,,,,,,,,,,,,,,,,,,,,,,,,,,,,,,,,,,,,,,,,,,,,True,False,True,1.0,0.0,-0.9300000000000002,-0.07750000000000001,13.9,13.8225,6.91125,gamble,lose,13.8225,-28.324166666666663,1055.2622562274046,None,1055.2622562274046,None,1055.2622562274046,None,1055.2622562274046,None,1055.2622562274046,None,1055.2622562274046,None,1055.2622562274046,None,1,2.117593546048738,1055.2622562274046,None,1057.4131384581851,None,1057.4131384581851,None,1057.4131384581851,None,1057.4131384581851,None,1057.4131384581851,None,1057.4131384581851,None,1057.4131384581851,None,1061.3979644471256,None,1061.3979644471256,None,1061.3979644471256,None,1061.3979644471256,None,1061.3979644471256,None,1061.3979644471256,None,1061.3979644471256,None,1070.9183398151654,None,1062.3983561088098,None,1063.3987951283052,None,0.75,7.51957444549771,1066.3999406747753,None,None,1066.3999406747753,None,,,,,,,,,,,,,,,,,,,22812,2020_Jan_10_1437,Mmi_3levels,3.1.5,60.008256748413196,
,,,3,1,1.1,,,,,,,,,0,2,2,2,0,23,23,16,,,,,,,,,,,,,,,,,,,,,,,,,,,,,,,,,,,,,,,,,,,,,,,,,,,,,,,,,,,True,True,True,0.75,-0.25,-1.1800000000000002,4.68,1.1,-3.5799999999999996,-1.2399999999999998,gamble,win,1.1,-27.22416666666666,1072.9358244382893,None,1072.9358244382893,None,1072.9358244382893,None,1072.9358244382893,None,1072.9358244382893,None,1072.9358244382893,None,1072.9358244382893,None,1,0.8508082502521574,1072.9358244382893,None,1073.8194465154666,None,1073.8194465154666,None,1073.8194465154666,None,1073.8194465154666,None,1073.8194465154666,None,1073.8194465154666,None,1073.8194465154666,None,1077.8043301017024,None,1077.8043301017024,None,1077.8043301017024,None,1077.8043301017024,None,1077.8043301017024,None,1077.8043301017024,None,1077.8043301017024,None,1078.8047217634157,None,,,,,,,,,,,,,,,,,,,,,,,,,,,,,,22812,2020_Jan_10_1437,Mmi_3levels,3.1.5,60.008256748413196,
,,,3,1,5.1,,,,,,,,,0,2,2,2,0,24,24,20,,,,,,,,,,,,,,,,,,,,,,,,,,,,,,,,,,,,,,,,,,,,,,,,,,,,,,,,,,,True,True,False,0.75,-0.25,-1.4300000000000002,4.93,5.1,0.16999999999999993,0.08499999999999996,gamble,win,5.1,-22.12416666666666,1080.8221612686466,None,1080.8221612686466,None,1080.8221612686466,None,1080.8221612686466,None,1080.8221612686466,None,1080.8221612686466,None,1080.8221612686466,None,1,1.584279262489872,1080.8221612686466,None,1082.4395103460993,None,1082.4395103460993,None,1082.4395103460993,None,1082.4395103460993,None,1082.4395103460993,None,1082.4395103460993,None,1082.4395103460993,None,1086.424338254932,None,1086.424338254932,None,1086.424338254932,None,1086.424338254932,None,1086.424338254932,None,1086.424338254932,None,1086.424338254932,None,1095.9280731204199,None,1087.4247231969493,None,1088.4251215783297,None,1.0,7.502946102351416,1091.4262741644925,None,None,1091.4262741644925,None,,,,,,,,,,,,,,,,,,,22812,2020_Jan_10_1437,Mmi_3levels,3.1.5,60.008256748413196,
,,,3,1,8.9,,,,,,,,,0,2,2,2,0,25,25,7,,,,,,,,,,,,,,,,,,,,,,,,,,,,,,,,,,,,,,,,,,,,,,,,,,,,,,,,,,,True,True,True,1.0,0.0,-1.4300000000000002,1.4300000000000002,8.9,7.470000000000001,3.7350000000000003,gamble,win,8.9,-13.22416666666666,1097.9455270249746,None,1097.9455270249746,None,1097.9455270249746,None,1097.9455270249746,None,1097.9455270249746,None,1097.9455270249746,None,1097.9455270249746,None,1,0.7338761133141816,1097.9455270249746,None,1098.7124985520786,None,1098.7124985520786,None,1098.7124985520786,None,1098.7124985520786,None,1098.7124985520786,None,1098.7124985520786,None,1098.7124985520786,None,1102.6973107816593,None,1102.6973107816593,None,1102.6973107816593,None,1102.6973107816593,None,1102.6973107816593,None,1102.6973107816593,None,1102.6973107816593,None,1103.6977466012759,None,,,,,,,,,,,,,,,,,,,,,,,,,,,,,,22812,2020_Jan_10_1437,Mmi_3levels,3.1.5,60.008256748413196,
,,,3,1,-1.5,,,,,,,,,0,2,2,2,0,26,26,5,,,,,,,,,,,,,,,,,,,,,,,,,,,,,,,,,,,,,,,,,,,,,,,,,,,,,,,,,,,True,True,True,1.0,0.0,-1.4300000000000002,1.4300000000000002,-1.5,-2.93,-2.215,certain,certain,-2.215,-15.43916666666666,1105.7152043456736,None,1105.7152043456736,None,1105.7152043456736,None,1105.7152043456736,None,1105.7152043456736,None,1105.7152043456736,None,1105.7152043456736,None,3,1.5508488243212923,1105.7152043456736,None,1107.29914378401,None,1107.29914378401,None,1107.29914378401,None,1107.29914378401,None,1107.29914378401,None,1107.29914378401,None,1107.29914378401,None,1111.3006477137387,None,1111.3006477137387,None,1111.3006477137387,None,1111.3006477137387,None,1111.3006477137387,None,1111.3006477137387,None,1111.3006477137387,None,1120.8043336215487,None,1112.2843630345596,None,1113.284750216466,None,0.76,7.519472370273434,1116.2859543202212,None,None,1116.2859543202212,None,,,,,,,,,,,,,,,,,,,22812,2020_Jan_10_1437,Mmi_3levels,3.1.5,60.008256748413196,
,,,,,,,,,,,,,,,,,,,,,,,,,,,,,,0,0,0,0,,,,,,,,,,,,,,,,,,,,,,,,,,,,,,,,,,,,,,,,,,,,,,,,,,,,,,,,,,,,,,,,,,,,,,,,,,,,,,,,,,,,,,,,,,,,,,,,,,,,,,,,,,,,,,,,,,,,,,,,1122.8051063854364,None,4,1.3507452131889295,1122.8051063854364,None,-15.43916666666666,1,1124.1889783709485,None,1124.1889783709485,None,1124.1889783709485,None,4,3.7518263146921527,1124.1889783709485,None,22812,2020_Jan_10_1437,Mmi_3levels,3.1.5,60.008256748413196,
