currSlide,currImage,currText,blockNum,targetHappiness,highAmount,instructionLoop1.thisRepN,instructionLoop1.thisTrialN,instructionLoop1.thisN,instructionLoop1.thisIndex,instructionLoop2.thisRepN,instructionLoop2.thisTrialN,instructionLoop2.thisN,instructionLoop2.thisIndex,blockLoop.thisRepN,blockLoop.thisTrialN,blockLoop.thisN,blockLoop.thisIndex,trialLoop.thisRepN,trialLoop.thisTrialN,trialLoop.thisN,trialLoop.thisIndex,doRatingLoop.thisRepN,doRatingLoop.thisTrialN,doRatingLoop.thisN,doRatingLoop.thisIndex,trialHappyLoop.thisRepN,trialHappyLoop.thisTrialN,trialHappyLoop.thisN,trialHappyLoop.thisIndex,logWinningsLoop.thisRepN,logWinningsLoop.thisTrialN,logWinningsLoop.thisN,logWinningsLoop.thisIndex,instrImage.started,instrImage.stopped,instrText.started,instrText.stopped,instrContinueText.started,instrContinueText.stopped,instrKeyResp.keys,instrKeyResp.rt,instrKeyResp.started,instrKeyResp.stopped,lifeHappyText.started,lifeHappyText.stopped,lifeHappySlider.response,lifeHappySlider.rt,lifeHappySlider.started,lifeHappySlider.stopped,lifeHappyResp.keys,lifeHappyResp.started,lifeHappyResp.stopped,instrImage_2.started,instrImage_2.stopped,instrText_2.started,instrText_2.stopped,instrContinueText_2.started,instrContinueText_2.stopped,instrKeyResp_2.keys,instrKeyResp_2.rt,instrKeyResp_2.started,instrKeyResp_2.stopped,localizing.started,localizing.stopped,start_exp.keys,start_exp.rt,start_exp.started,start_exp.stopped,blockHappyText.started,blockHappyText.stopped,blockHappySlider.response,blockHappySlider.rt,blockHappySlider.started,blockHappySlider.stopped,blockHappyResp.keys,blockHappyResp.started,blockHappyResp.stopped,blankText.started,blankText.stopped,isHappyBlock,isCongruent,isWinOnTop,lastHappyRating,diff,sumDiff,RPE,winAmount,loseAmount,certainAmount,choice,outcome,outcomeAmount,currentWinnings,fixCross.started,fixCross.stopped,certainBox.started,certainBox.stopped,outcome1Box.started,outcome1Box.stopped,outcome2Box.started,outcome2Box.stopped,certainText.started,certainText.stopped,outcome1Text.started,outcome1Text.stopped,outcome2Text.started,outcome2Text.stopped,choiceKey.keys,choiceKey.started,choiceKey.stopped,fixCross_2.started,fixCross_2.stopped,certainBox_2.started,certainBox_2.stopped,outcome1Box_2.started,outcome1Box_2.stopped,outcome2Box_2.started,outcome2Box_2.stopped,certainText_2.started,certainText_2.stopped,outcome1Text_2.started,outcome1Text_2.stopped,outcome2Text_2.started,outcome2Text_2.stopped,fixCross_3.started,fixCross_3.stopped,certainBox_3.started,certainBox_3.stopped,outcome1Box_3.started,outcome1Box_3.stopped,outcome2Box_3.started,outcome2Box_3.stopped,certainText_3.started,certainText_3.stopped,outcome1Text_3.started,outcome1Text_3.stopped,outcome2Text_3.started,outcome2Text_3.stopped,fixCross_ITI.started,fixCross_ITI.stopped,choiceKey.rt,fixCross_ISI.started,fixCross_ISI.stopped,happyText.started,happyText.stopped,happySlider.response,happySlider.rt,happySlider.started,happySlider.stopped,happyResp.keys,happyResp.started,happyResp.stopped,endOfBlockText.started,endOfBlockText.stopped,restKeyResp.keys,restKeyResp.rt,restKeyResp.started,restKeyResp.stopped,blockHappyResp.rt,finalWinnings,cashBonus,goodbyeText.started,goodbyeText.stopped,finalWinningsText.started,finalWinningsText.stopped,spaceToContinue.started,spaceToContinue.stopped,goodbyeKeyResp_2.keys,goodbyeKeyResp_2.rt,goodbyeKeyResp_2.started,goodbyeKeyResp_2.stopped,participant,date,expName,psychopyVersion,frameRate,
1,black.png,"Welcome! You are about to play our gambling task.
This task has 3 blocks and takes about 15 minutes.",,,,0,0,0,0,,,,,,,,,,,,,,,,,,,,,,,,,12.355854696997994,None,12.355854696997994,None,12.355854696997994,None,4,51.304321114461345,12.355854696997994,None,,,,,,,,,,,,,,,,,,,,,,,,,,,,,,,,,,,,,,,,,,,,,,,,,,,,,,,,,,,,,,,,,,,,,,,,,,,,,,,,,,,,,,,,,,,,,,,,,,,,,,,,,,,,,,,,,,,,,,,,,,,,,,,,,24259,2020_Jan_21_1528,Mmi_3levels,3.1.5,60.0695424194711,
2,black.png,"In this game, you may win or lose points. Your goal is to get as many points as possible. These points will be converted to a cash bonus at the end.
Sometimes we will ask you to rate your mood.",,,,0,1,1,1,,,,,,,,,,,,,,,,,,,,,,,,,63.69326365383313,None,63.69326365383313,None,63.69326365383313,None,4,9.270509470534307,63.69326365383313,None,,,,,,,,,,,,,,,,,,,,,,,,,,,,,,,,,,,,,,,,,,,,,,,,,,,,,,,,,,,,,,,,,,,,,,,,,,,,,,,,,,,,,,,,,,,,,,,,,,,,,,,,,,,,,,,,,,,,,,,,,,,,,,,,,24259,2020_Jan_21_1528,Mmi_3levels,3.1.5,60.0695424194711,
3,black.png,"On the next screen, please rate how you feel about your life these days. Use the LEFT (green) and RIGHT (blue) buttons to move the slider (you can press and hold them to slide gradually) and the TOP (red) button to lock in your response.
Make your rating as accurately and quickly as you can!",,,,0,2,2,2,,,,,,,,,,,,,,,,,,,,,,,,,73.01350424265183,None,73.01350424265183,None,73.01350424265183,None,4,11.954731364668987,73.01350424265183,None,,,,,,,,,,,,,,,,,,,,,,,,,,,,,,,,,,,,,,,,,,,,,,,,,,,,,,,,,,,,,,,,,,,,,,,,,,,,,,,,,,,,,,,,,,,,,,,,,,,,,,,,,,,,,,,,,,,,,,,,,,,,,,,,,24259,2020_Jan_21_1528,Mmi_3levels,3.1.5,60.0695424194711,
,,,,,,,,,,,,,,,,,,,,,,,,,,,,,,,,,,,,,,,,,,,,84.9847451303358,None,0.29,10.502937123979791,88.98625065036322,None,None,88.98625065036322,None,,,,,,,,,,,,,,,,,,,,,,,,,,,,,,,,,,,,,,,,,,,,,,,,,,,,,,,,,,,,,,,,,,,,,,,,,,,,,,,,,,,,,,,,,,,,,,,,,,,,,,,,,,,,,,,,,,,,,,,,24259,2020_Jan_21_1528,Mmi_3levels,3.1.5,60.0695424194711,
4,black.png,"In this game you can win money by earning points according to your choices. You will decide whether to gamble a number of points or stick with a guaranteed number of points. 
Make your choice by pressing the left or right arrow key once. An example of one trial is shown on the next screen.",,,,,,,,0,0,0,0,,,,,,,,,,,,,,,,,,,,,,,,,,,,,,,,,,,,,,,,95.52209610625141,None,95.52209610625141,None,95.52209610625141,None,4,5.2189198909727565,95.52209610625141,None,,,,,,,,,,,,,,,,,,,,,,,,,,,,,,,,,,,,,,,,,,,,,,,,,,,,,,,,,,,,,,,,,,,,,,,,,,,,,,,,,,,,,,,,,,,,,,,,,,,,,,,,,,,,,,24259,2020_Jan_21_1528,Mmi_3levels,3.1.5,60.0695424194711,
5,example_start.png,"The GAMBLING OPTION will be shown on the RIGHT SIDE. 
Select this option using the RIGHT (blue) button on your keypad.",,,,,,,,0,1,1,1,,,,,,,,,,,,,,,,,,,,,,,,,,,,,,,,,,,,,,,,100.80743134924342,None,100.80743134924342,None,100.80743134924342,None,4,3.601544365963491,100.80743134924342,None,,,,,,,,,,,,,,,,,,,,,,,,,,,,,,,,,,,,,,,,,,,,,,,,,,,,,,,,,,,,,,,,,,,,,,,,,,,,,,,,,,,,,,,,,,,,,,,,,,,,,,,,,,,,,,24259,2020_Jan_21_1528,Mmi_3levels,3.1.5,60.0695424194711,
6,example_gamble.png,"Once you select the gambling choice, the choice you made will remain on the screen.",,,,,,,,0,2,2,2,,,,,,,,,,,,,,,,,,,,,,,,,,,,,,,,,,,,,,,,104.4421819512936,None,104.4421819512936,None,104.4421819512936,None,4,2.934718987729866,104.4421819512936,None,,,,,,,,,,,,,,,,,,,,,,,,,,,,,,,,,,,,,,,,,,,,,,,,,,,,,,,,,,,,,,,,,,,,,,,,,,,,,,,,,,,,,,,,,,,,,,,,,,,,,,,,,,,,,,24259,2020_Jan_21_1528,Mmi_3levels,3.1.5,60.0695424194711,
7,example_win.png,"The outcome you received will then be shown on the screen. In this example , you WON 10 points.",,,,,,,,0,3,3,3,,,,,,,,,,,,,,,,,,,,,,,,,,,,,,,,,,,,,,,,107.40991486532221,None,107.40991486532221,None,107.40991486532221,None,4,2.384546612884151,107.40991486532221,None,,,,,,,,,,,,,,,,,,,,,,,,,,,,,,,,,,,,,,,,,,,,,,,,,,,,,,,,,,,,,,,,,,,,,,,,,,,,,,,,,,,,,,,,,,,,,,,,,,,,,,,,,,,,,,24259,2020_Jan_21_1528,Mmi_3levels,3.1.5,60.0695424194711,
8,example_start.png,"The GUARANTEED OPTION will be shown on the LEFT SIDE. You are 100% guaranteed to gain or lose this amount. In this example, you have a 100% chance of winning 1 point. Select this option using the LEFT (green) button on your keyboard.",,,,,,,,0,4,4,4,,,,,,,,,,,,,,,,,,,,,,,,,,,,,,,,,,,,,,,,109.84423547421102,None,109.84423547421102,None,109.84423547421102,None,4,3.3515416461086716,109.84423547421102,None,,,,,,,,,,,,,,,,,,,,,,,,,,,,,,,,,,,,,,,,,,,,,,,,,,,,,,,,,,,,,,,,,,,,,,,,,,,,,,,,,,,,,,,,,,,,,,,,,,,,,,,,,,,,,,24259,2020_Jan_21_1528,Mmi_3levels,3.1.5,60.0695424194711,
9,example_certain.png,"Once you select the guaranteed choice, your selection will remain on the screen.",,,,,,,,0,5,5,5,,,,,,,,,,,,,,,,,,,,,,,,,,,,,,,,,,,,,,,,113.2288326444068,None,113.2288326444068,None,113.2288326444068,None,4,1.7008552505685657,113.2288326444068,None,,,,,,,,,,,,,,,,,,,,,,,,,,,,,,,,,,,,,,,,,,,,,,,,,,,,,,,,,,,,,,,,,,,,,,,,,,,,,,,,,,,,,,,,,,,,,,,,,,,,,,,,,,,,,,24259,2020_Jan_21_1528,Mmi_3levels,3.1.5,60.0695424194711,
10,black.png,"Please make your choices as fast as possible.
You will be given a break at the end of each block.
Let's play!",,,,,,,,0,6,6,6,,,,,,,,,,,,,,,,,,,,,,,,,,,,,,,,,,,,,,,,114.96280229594049,None,114.96280229594049,None,114.96280229594049,None,4,1.9843758699535101,114.96280229594049,None,,,,,,,,,,,,,,,,,,,,,,,,,,,,,,,,,,,,,,,,,,,,,,,,,,,,,,,,,,,,,,,,,,,,,,,,,,,,,,,,,,,,,,,,,,,,,,,,,,,,,,,,,,,,,,24259,2020_Jan_21_1528,Mmi_3levels,3.1.5,60.0695424194711,
,,,,,,,,,,,,,,,,,,,,,,,,,,,,,,,,,,,,,,,,,,,,,,,,,,,,,,,,,,,,,,,116.96359873363326,None,space,43.06668861750222,116.96359873363326,None,,,,,,,,,,,,,,,,,,,,,,,,,,,,,,,,,,,,,,,,,,,,,,,,,,,,,,,,,,,,,,,,,,,,,,,,,,,,,,,,,,,,,,,,,,,,,,,,,,,,,,,,24259,2020_Jan_21_1528,Mmi_3levels,3.1.5,60.0695424194711,
,,,1,1,10.5,,,,,,,,,0,0,0,0,0,0,0,22,,,,,,,,,,,,,,,,,,,,,,,,,,,,,,,,,,,,,,,,,,,,,,,,160.04670599897509,None,0.54,7.4962152410444105,163.06450889328698,None,None,163.06450889328698,None,167.54954488817384,None,True,True,True,0.54,-0.45999999999999996,-0.45999999999999996,6.8999999999999995,10.5,3.6000000000000005,1.8000000000000003,gamble,win,10.5,10.5,170.584009617407,None,170.584009617407,None,170.584009617407,None,170.584009617407,None,170.584009617407,None,170.584009617407,None,170.584009617407,None,None,170.584009617407,None,173.58524603172918,None,173.58524603172918,None,173.58524603172918,None,173.58524603172918,None,173.58524603172918,None,173.58524603172918,None,173.58524603172918,None,177.57003115994303,None,177.57003115994303,None,177.57003115994303,None,177.57003115994303,None,177.57003115994303,None,177.57003115994303,None,177.57003115994303,None,178.57044041820336,None,,,,,,,,,,,,,,,,,,,,,,,,,,,,,,,,24259,2020_Jan_21_1528,Mmi_3levels,3.1.5,60.0695424194711,
,,,1,1,3.9,,,,,,,,,0,0,0,0,0,1,1,10,,,,,,,,,,,,,,,,,,,,,,,,,,,,,,,,,,,,,,,,,,,,,,,,,,,,,,,,,,,True,True,False,0.54,-0.45999999999999996,-0.9199999999999999,7.359999999999999,3.9,-3.4599999999999995,0.2200000000000002,gamble,win,3.9,14.4,180.58787117227985,None,180.58787117227985,None,180.58787117227985,None,180.58787117227985,None,180.58787117227985,None,180.58787117227985,None,180.58787117227985,None,None,180.58787117227985,None,183.5889411954413,None,183.5889411954413,None,183.5889411954413,None,183.5889411954413,None,183.5889411954413,None,183.5889411954413,None,183.5889411954413,None,187.590565109178,None,187.590565109178,None,187.590565109178,None,187.590565109178,None,187.590565109178,None,187.590565109178,None,187.590565109178,None,188.57425045581476,None,,,,,,,,,,,,,,,,,,,,,,,,,,,,,,,,24259,2020_Jan_21_1528,Mmi_3levels,3.1.5,60.0695424194711,
,,,1,1,7.1,,,,,,,,,0,0,0,0,0,2,2,14,,,,,,,,,,,,,,,,,,,,,,,,,,,,,,,,,,,,,,,,,,,,,,,,,,,,,,,,,,,True,True,True,0.54,-0.45999999999999996,-1.38,7.819999999999999,7.1,-0.7199999999999998,-0.3599999999999999,gamble,win,7.1,21.5,190.59173208718857,None,190.59173208718857,None,190.59173208718857,None,190.59173208718857,None,190.59173208718857,None,190.59173208718857,None,190.59173208718857,None,1,190.59173208718857,None,192.37573076118133,None,192.37573076118133,None,192.37573076118133,None,192.37573076118133,None,192.37573076118133,None,192.37573076118133,None,192.37573076118133,None,196.36053348845962,None,196.36053348845962,None,196.36053348845962,None,196.36053348845962,None,196.36053348845962,None,196.36053348845962,None,196.36053348845962,None,205.8641864144156,None,1.7509697084897198,197.3609161881286,None,198.36127680897334,None,0.55,7.502864807818696,201.36243066768293,None,None,201.36243066768293,None,,,,,,,,,,,,,,,,,,,,24259,2020_Jan_21_1528,Mmi_3levels,3.1.5,60.0695424194711,
,,,1,1,10.1,,,,,,,,,0,0,0,0,0,3,3,21,,,,,,,,,,,,,,,,,,,,,,,,,,,,,,,,,,,,,,,,,,,,,,,,,,,,,,,,,,,True,True,False,0.55,-0.44999999999999996,-1.8299999999999998,8.129999999999999,10.1,1.9700000000000006,0.9850000000000003,gamble,win,10.1,31.6,207.88165300658875,None,207.88165300658875,None,207.88165300658875,None,207.88165300658875,None,207.88165300658875,None,207.88165300658875,None,207.88165300658875,None,None,207.88165300658875,None,210.866006797718,None,210.866006797718,None,210.866006797718,None,210.866006797718,None,210.866006797718,None,210.866006797718,None,210.866006797718,None,214.86761631221816,None,214.86761631221816,None,214.86761631221816,None,214.86761631221816,None,214.86761631221816,None,214.86761631221816,None,214.86761631221816,None,215.86794845457553,None,,,,,,,,,,,,,,,,,,,,,,,,,,,,,,,,24259,2020_Jan_21_1528,Mmi_3levels,3.1.5,60.0695424194711,
,,,1,1,3.5,,,,,,,,,0,0,0,0,0,4,4,20,,,,,,,,,,,,,,,,,,,,,,,,,,,,,,,,,,,,,,,,,,,,,,,,,,,,,,,,,,,True,True,False,0.55,-0.44999999999999996,-2.28,8.579999999999998,3.5,-5.079999999999998,-0.7899999999999991,gamble,win,3.5,35.1,217.88537536885997,None,217.88537536885997,None,217.88537536885997,None,217.88537536885997,None,217.88537536885997,None,217.88537536885997,None,217.88537536885997,None,1,217.88537536885997,None,219.41932844527037,None,219.41932844527037,None,219.41932844527037,None,219.41932844527037,None,219.41932844527037,None,219.41932844527037,None,219.41932844527037,None,223.42082468579247,None,223.42082468579247,None,223.42082468579247,None,223.42082468579247,None,223.42082468579247,None,223.42082468579247,None,223.42082468579247,None,232.90778153864449,None,1.5008450751120108,224.40456826933223,None,225.404972407865,None,0.55,7.50269297694831,228.40607986903706,None,None,228.40607986903706,None,,,,,,,,,,,,,,,,,,,,24259,2020_Jan_21_1528,Mmi_3levels,3.1.5,60.0695424194711,
,,,1,1,6.5,,,,,,,,,0,0,0,0,0,5,5,16,,,,,,,,,,,,,,,,,,,,,,,,,,,,,,,,,,,,,,,,,,,,,,,,,,,,,,,,,,,True,True,True,0.55,-0.44999999999999996,-2.7299999999999995,9.029999999999998,6.5,-2.5299999999999976,1.9850000000000012,gamble,win,6.5,41.6,234.92522029229804,None,234.92522029229804,None,234.92522029229804,None,234.92522029229804,None,234.92522029229804,None,234.92522029229804,None,234.92522029229804,None,None,234.92522029229804,None,237.9263690312764,None,237.9263690312764,None,237.9263690312764,None,237.9263690312764,None,237.9263690312764,None,237.9263690312764,None,237.9263690312764,None,241.91121207641118,None,241.91121207641118,None,241.91121207641118,None,241.91121207641118,None,241.91121207641118,None,241.91121207641118,None,241.91121207641118,None,242.91164693331302,None,,,,,,,,,,,,,,,,,,,,,,,,,,,,,,,,24259,2020_Jan_21_1528,Mmi_3levels,3.1.5,60.0695424194711,
,,,1,1,10.3,,,,,,,,,0,0,0,0,0,6,6,7,,,,,,,,,,,,,,,,,,,,,,,,,,,,,,,,,,,,,,,,,,,,,,,,,,,,,,,,,,,True,True,False,0.55,-0.44999999999999996,-3.1799999999999997,9.479999999999999,10.3,0.8200000000000021,0.41000000000000103,gamble,win,10.3,51.900000000000006,244.9290280900277,None,244.9290280900277,None,244.9290280900277,None,244.9290280900277,None,244.9290280900277,None,244.9290280900277,None,244.9290280900277,None,1,244.9290280900277,None,247.4634336224044,None,247.4634336224044,None,247.4634336224044,None,247.4634336224044,None,247.4634336224044,None,247.4634336224044,None,247.4634336224044,None,251.44818963216312,None,251.44818963216312,None,251.44818963216312,None,251.44818963216312,None,251.44818963216312,None,251.44818963216312,None,251.44818963216312,None,252.44857361176764,None,2.5012252149172127,,,,,,,,,,,,,,,,,,,,,,,,,,,,,,,24259,2020_Jan_21_1528,Mmi_3levels,3.1.5,60.0695424194711,
,,,1,1,5.9,,,,,,,,,0,0,0,0,0,7,7,8,,,,,,,,,,,,,,,,,,,,,,,,,,,,,,,,,,,,,,,,,,,,,,,,,,,,,,,,,,,True,True,False,0.55,-0.44999999999999996,-3.63,9.93,5.9,-4.029999999999999,0.9350000000000005,certain,certain,0.9350000000000005,52.83500000000001,254.46605908294077,None,254.46605908294077,None,254.46605908294077,None,254.46605908294077,None,254.46605908294077,None,254.46605908294077,None,254.46605908294077,None,3,254.46605908294077,None,256.7001951256316,None,256.7001951256316,None,256.7001951256316,None,256.7001951256316,None,256.7001951256316,None,256.7001951256316,None,256.7001951256316,None,260.68503881073775,None,260.68503881073775,None,260.68503881073775,None,260.68503881073775,None,260.68503881073775,None,260.68503881073775,None,260.68503881073775,None,270.18867061781566,None,2.2010514001522097,261.68542311032434,None,262.68580197019764,None,0.56,7.502811690639646,265.686939189789,None,None,265.686939189789,None,,,,,,,,,,,,,,,,,,,,24259,2020_Jan_21_1528,Mmi_3levels,3.1.5,60.0695424194711,
,,,1,1,12.1,,,,,,,,,0,0,0,0,0,8,8,2,,,,,,,,,,,,,,,,,,,,,,,,,,,,,,,,,,,,,,,,,,,,,,,,,,,,,,,,,,,True,True,False,0.56,-0.43999999999999995,-4.07,10.23,12.1,1.8699999999999992,0.9349999999999996,gamble,win,12.1,64.935,272.2061045717237,None,272.2061045717237,None,272.2061045717237,None,272.2061045717237,None,272.2061045717237,None,272.2061045717237,None,272.2061045717237,None,1,272.2061045717237,None,274.27355730863565,None,274.27355730863565,None,274.27355730863565,None,274.27355730863565,None,274.27355730863565,None,274.27355730863565,None,274.27355730863565,None,278.2584141130392,None,278.2584141130392,None,278.2584141130392,None,278.2584141130392,None,278.2584141130392,None,278.2584141130392,None,278.2584141130392,None,279.25883425072243,None,2.0343594548248802,,,,,,,,,,,,,,,,,,,,,,,,,,,,,,,24259,2020_Jan_21_1528,Mmi_3levels,3.1.5,60.0695424194711,
,,,1,1,12.3,,,,,,,,,0,0,0,0,0,9,9,12,,,,,,,,,,,,,,,,,,,,,,,,,,,,,,,,,,,,,,,,,,,,,,,,,,,,,,,,,,,True,False,True,0.56,-0.43999999999999995,-4.51,-1.915833333333333,12.3,10.384166666666667,5.192083333333334,gamble,lose,10.384166666666667,75.31916666666667,281.2762310866019,None,281.2762310866019,None,281.2762310866019,None,281.2762310866019,None,281.2762310866019,None,281.2762310866019,None,281.2762310866019,None,1,281.2762310866019,None,283.81057550222613,None,283.81057550222613,None,283.81057550222613,None,283.81057550222613,None,283.81057550222613,None,283.81057550222613,None,283.81057550222613,None,287.8121034210635,None,287.8121034210635,None,287.8121034210635,None,287.8121034210635,None,287.8121034210635,None,287.8121034210635,None,287.8121034210635,None,297.299110191263,None,2.501196096462081,288.7958140463561,None,289.79616954747326,None,0.57,7.502780332310067,292.79728244835496,None,None,292.79728244835496,None,,,,,,,,,,,,,,,,,,,,24259,2020_Jan_21_1528,Mmi_3levels,3.1.5,60.0695424194711,
,,,1,1,4.1,,,,,,,,,0,0,0,0,0,10,10,25,,,,,,,,,,,,,,,,,,,,,,,,,,,,,,,,,,,,,,,,,,,,,,,,,,,,,,,,,,,True,True,False,0.57,-0.43000000000000005,-4.9399999999999995,10.96,4.1,-6.860000000000001,-1.3800000000000008,gamble,win,4.1,79.41916666666667,299.31643951073056,None,299.31643951073056,None,299.31643951073056,None,299.31643951073056,None,299.31643951073056,None,299.31643951073056,None,299.31643951073056,None,1,299.31643951073056,None,301.2338387784839,None,301.2338387784839,None,301.2338387784839,None,301.2338387784839,None,301.2338387784839,None,301.2338387784839,None,301.2338387784839,None,305.21869558288745,None,305.21869558288745,None,305.21869558288745,None,305.21869558288745,None,305.21869558288745,None,305.21869558288745,None,305.21869558288745,None,306.2190830823056,None,1.8843245446805668,,,,,,,,,,,,,,,,,,,,,,,,,,,,,,,24259,2020_Jan_21_1528,Mmi_3levels,3.1.5,60.0695424194711,
,,,1,1,10.7,,,,,,,,,0,0,0,0,0,11,11,0,,,,,,,,,,,,,,,,,,,,,,,,,,,,,,,,,,,,,,,,,,,,,,,,,,,,,,,,,,,True,True,False,0.57,-0.43000000000000005,-5.369999999999999,11.39,10.7,-0.6900000000000013,-0.34500000000000064,gamble,win,10.7,90.11916666666667,308.2365183161455,None,308.2365183161455,None,308.2365183161455,None,308.2365183161455,None,308.2365183161455,None,308.2365183161455,None,308.2365183161455,None,1,308.2365183161455,None,311.00423465505446,None,311.00423465505446,None,311.00423465505446,None,311.00423465505446,None,311.00423465505446,None,311.00423465505446,None,311.00423465505446,None,315.0058102513576,None,315.0058102513576,None,315.0058102513576,None,315.0058102513576,None,315.0058102513576,None,315.0058102513576,None,315.0058102513576,None,324.49271110718473,None,2.73444290639236,315.9894635996934,None,316.9899074161149,None,0.57,7.502745454163232,319.9909863987996,None,None,319.9909863987996,None,,,,,,,,,,,,,,,,,,,,24259,2020_Jan_21_1528,Mmi_3levels,3.1.5,60.0695424194711,
,,,1,1,6.1,,,,,,,,,0,0,0,0,0,12,12,13,,,,,,,,,,,,,,,,,,,,,,,,,,,,,,,,,,,,,,,,,,,,,,,,,,,,,,,,,,,True,True,True,0.57,-0.43000000000000005,-5.799999999999999,11.82,6.1,-5.720000000000001,0.1899999999999995,certain,certain,0.1899999999999995,90.30916666666667,326.5101495408562,None,326.5101495408562,None,326.5101495408562,None,326.5101495408562,None,326.5101495408562,None,326.5101495408562,None,326.5101495408562,None,3,326.5101495408562,None,328.610952506202,None,328.610952506202,None,328.610952506202,None,328.610952506202,None,328.610952506202,None,328.610952506202,None,328.610952506202,None,332.595800671068,None,332.595800671068,None,332.595800671068,None,332.595800671068,None,332.595800671068,None,332.595800671068,None,332.595800671068,None,333.596300484518,None,2.067702003671002,,,,,,,,,,,,,,,,,,,,,,,,,,,,,,,24259,2020_Jan_21_1528,Mmi_3levels,3.1.5,60.0695424194711,
,,,1,1,4.5,,,,,,,,,0,0,0,0,0,13,13,23,,,,,,,,,,,,,,,,,,,,,,,,,,,,,,,,,,,,,,,,,,,,,,,,,,,,,,,,,,,True,True,False,0.57,-0.43000000000000005,-6.229999999999999,12.25,4.5,-7.75,-1.625,gamble,win,4.5,94.80916666666667,335.66364794701803,None,335.66364794701803,None,335.66364794701803,None,335.66364794701803,None,335.66364794701803,None,335.66364794701803,None,335.66364794701803,None,1,335.66364794701803,None,337.014152208234,None,337.014152208234,None,337.014152208234,None,337.014152208234,None,337.014152208234,None,337.014152208234,None,337.014152208234,None,341.0156772472219,None,341.0156772472219,None,341.0156772472219,None,341.0156772472219,None,341.0156772472219,None,341.0156772472219,None,341.0156772472219,None,341.99939267226,None,1.317406179383397,,,,,,,,,,,,,,,,,,,,,,,,,,,,,,,24259,2020_Jan_21_1528,Mmi_3levels,3.1.5,60.0695424194711,
,,,1,1,-0.3,,,,,,,,,0,0,0,0,0,14,14,9,,,,,,,,,,,,,,,,,,,,,,,,,,,,,,,,,,,,,,,,,,,,,,,,,,,,,,,,,,,True,True,False,0.57,-0.43000000000000005,-6.659999999999998,12.68,-0.3,-12.98,-6.640000000000001,certain,certain,-6.640000000000001,88.16916666666667,344.01690566197067,None,344.01690566197067,None,344.01690566197067,None,344.01690566197067,None,344.01690566197067,None,344.01690566197067,None,344.01690566197067,None,3,344.01690566197067,None,346.85123958215263,None,346.85123958215263,None,346.85123958215263,None,346.85123958215263,None,346.85123958215263,None,346.85123958215263,None,346.85123958215263,None,350.85280461901857,None,350.85280461901857,None,350.85280461901857,None,350.85280461901857,None,350.85280461901857,None,350.85280461901857,None,350.85280461901857,None,360.33972243394237,None,2.8012489576540247,351.8364739665012,None,352.8369062635393,None,0.54,7.502721775421378,355.83798748610207,None,None,355.83798748610207,None,,,,,,,,,,,,,,,,,,,,24259,2020_Jan_21_1528,Mmi_3levels,3.1.5,60.0695424194711,
,,,1,1,11.9,,,,,,,,,0,0,0,0,0,15,15,19,,,,,,,,,,,,,,,,,,,,,,,,,,,,,,,,,,,,,,,,,,,,,,,,,,,,,,,,,,,True,True,True,0.54,-0.45999999999999996,-7.119999999999998,13.559999999999999,11.9,-1.6599999999999984,-0.8299999999999992,gamble,win,11.9,100.06916666666667,362.3571541479687,None,362.3571541479687,None,362.3571541479687,None,362.3571541479687,None,362.3571541479687,None,362.3571541479687,None,362.3571541479687,None,1,362.3571541479687,None,364.7414454144164,None,364.7414454144164,None,364.7414454144164,None,364.7414454144164,None,364.7414454144164,None,364.7414454144164,None,364.7414454144164,None,368.7429266157378,None,368.7429266157378,None,368.7429266157378,None,368.7429266157378,None,368.7429266157378,None,368.7429266157378,None,368.7429266157378,None,369.7266845985141,None,2.3511631062137894,,,,,,,,,,,,,,,,,,,,,,,,,,,,,,,24259,2020_Jan_21_1528,Mmi_3levels,3.1.5,60.0695424194711,
,,,1,1,7.5,,,,,,,,,0,0,0,0,0,16,16,11,,,,,,,,,,,,,,,,,,,,,,,,,,,,,,,,,,,,,,,,,,,,,,,,,,,,,,,,,,,True,False,False,0.54,-0.45999999999999996,-7.579999999999998,-2.2416666666666663,7.5,5.258333333333334,2.629166666666667,gamble,lose,5.258333333333334,105.32750000000001,371.74411247274475,None,371.74411247274475,None,371.74411247274475,None,371.74411247274475,None,371.74411247274475,None,371.74411247274475,None,371.74411247274475,None,1,371.74411247274475,None,374.47844626493315,None,374.47844626493315,None,374.47844626493315,None,374.47844626493315,None,374.47844626493315,None,374.47844626493315,None,374.47844626493315,None,378.46330114944067,None,378.46330114944067,None,378.46330114944067,None,378.46330114944067,None,378.46330114944067,None,378.46330114944067,None,378.46330114944067,None,387.96692879674083,None,2.701257789187366,379.4636787293857,None,380.46405598934507,None,0.56,7.502764973127341,383.4651970487321,None,None,383.4651970487321,None,,,,,,,,,,,,,,,,,,,,24259,2020_Jan_21_1528,Mmi_3levels,3.1.5,60.0695424194711,
,,,1,1,9.9,,,,,,,,,0,0,0,0,0,17,17,5,,,,,,,,,,,,,,,,,,,,,,,,,,,,,,,,,,,,,,,,,,,,,,,,,,,,,,,,,,,True,True,False,0.56,-0.43999999999999995,-8.019999999999998,14.179999999999996,9.9,-4.279999999999996,-2.139999999999998,gamble,win,9.9,115.22750000000002,389.98436467054853,None,389.98436467054853,None,389.98436467054853,None,389.98436467054853,None,389.98436467054853,None,389.98436467054853,None,389.98436467054853,None,None,389.98436467054853,None,392.98549357058073,None,392.98549357058073,None,392.98549357058073,None,392.98549357058073,None,392.98549357058073,None,392.98549357058073,None,392.98549357058073,None,396.98702436926396,None,396.98702436926396,None,396.98702436926396,None,396.98702436926396,None,396.98702436926396,None,396.98702436926396,None,396.98702436926396,None,397.97073851436653,None,,,,,,,,,,,,,,,,,,,,,,,,,,,,,,,,24259,2020_Jan_21_1528,Mmi_3levels,3.1.5,60.0695424194711,
,,,1,1,3.1,,,,,,,,,0,0,0,0,0,18,18,6,,,,,,,,,,,,,,,,,,,,,,,,,,,,,,,,,,,,,,,,,,,,,,,,,,,,,,,,,,,True,True,False,0.56,-0.43999999999999995,-8.459999999999997,14.619999999999997,3.1,-11.519999999999998,-4.209999999999999,certain,certain,-4.209999999999999,111.01750000000003,399.98816926844665,None,399.98816926844665,None,399.98816926844665,None,399.98816926844665,None,399.98816926844665,None,399.98816926844665,None,399.98816926844665,None,3,399.98816926844665,None,402.8559350127289,None,402.8559350127289,None,402.8559350127289,None,402.8559350127289,None,402.8559350127289,None,402.8559350127289,None,402.8559350127289,None,406.85746837127954,None,406.85746837127954,None,406.85746837127954,None,406.85746837127954,None,406.85746837127954,None,406.85746837127954,None,406.85746837127954,None,407.8412145146831,None,2.834685581503436,,,,,,,,,,,,,,,,,,,,,,,,,,,,,,,24259,2020_Jan_21_1528,Mmi_3levels,3.1.5,60.0695424194711,
,,,1,1,13.9,,,,,,,,,0,0,0,0,0,19,19,26,,,,,,,,,,,,,,,,,,,,,,,,,,,,,,,,,,,,,,,,,,,,,,,,,,,,,,,,,,,True,True,False,0.56,-0.43999999999999995,-8.899999999999997,15.059999999999995,13.9,-1.1599999999999948,-0.5799999999999974,gamble,win,13.9,124.91750000000003,409.85859823126157,None,409.85859823126157,None,409.85859823126157,None,409.85859823126157,None,409.85859823126157,None,409.85859823126157,None,409.85859823126157,None,1,409.85859823126157,None,412.42625703722297,None,412.42625703722297,None,412.42625703722297,None,412.42625703722297,None,412.42625703722297,None,412.42625703722297,None,412.42625703722297,None,416.4277526377773,None,416.4277526377773,None,416.4277526377773,None,416.4277526377773,None,416.4277526377773,None,416.4277526377773,None,416.4277526377773,None,425.9147082106974,None,2.5345796031324426,417.41154037897286,None,418.4118456427568,None,0.54,7.502795051525027,421.4129966216169,None,None,421.4129966216169,None,,,,,,,,,,,,,,,,,,,,24259,2020_Jan_21_1528,Mmi_3levels,3.1.5,60.0695424194711,
,,,1,1,1.5,,,,,,,,,0,0,0,0,0,20,20,1,,,,,,,,,,,,,,,,,,,,,,,,,,,,,,,,,,,,,,,,,,,,,,,,,,,,,,,,,,,True,True,True,0.54,-0.45999999999999996,-9.359999999999996,15.799999999999995,1.5,-14.299999999999995,-6.399999999999998,certain,certain,-6.399999999999998,118.51750000000004,427.9321588037237,None,427.9321588037237,None,427.9321588037237,None,427.9321588037237,None,427.9321588037237,None,427.9321588037237,None,427.9321588037237,None,3,427.9321588037237,None,430.64987715852476,None,430.64987715852476,None,430.64987715852476,None,430.64987715852476,None,430.64987715852476,None,430.64987715852476,None,430.64987715852476,None,434.65141435686746,None,434.65141435686746,None,434.65141435686746,None,434.65141435686746,None,434.65141435686746,None,434.65141435686746,None,434.65141435686746,None,435.6351009834325,None,2.6848321017205308,,,,,,,,,,,,,,,,,,,,,,,,,,,,,,,24259,2020_Jan_21_1528,Mmi_3levels,3.1.5,60.0695424194711,
,,,1,1,12.7,,,,,,,,,0,0,0,0,0,21,21,3,,,,,,,,,,,,,,,,,,,,,,,,,,,,,,,,,,,,,,,,,,,,,,,,,,,,,,,,,,,True,False,True,0.54,-0.45999999999999996,-9.819999999999997,-2.428333333333333,12.7,10.271666666666667,5.135833333333333,gamble,lose,10.271666666666667,128.78916666666672,437.652539417104,None,437.652539417104,None,437.652539417104,None,437.652539417104,None,437.652539417104,None,437.652539417104,None,437.652539417104,None,1,437.652539417104,None,439.20317768719906,None,439.20317768719906,None,439.20317768719906,None,439.20317768719906,None,439.20317768719906,None,439.20317768719906,None,439.20317768719906,None,443.2046550487212,None,443.2046550487212,None,443.2046550487212,None,443.2046550487212,None,443.2046550487212,None,443.2046550487212,None,443.2046550487212,None,452.6916067818456,None,1.5175376283987134,444.18846710862636,None,445.18878997147476,None,0.54,7.5027643331595755,448.1898817534784,None,None,448.1898817534784,None,,,,,,,,,,,,,,,,,,,,24259,2020_Jan_21_1528,Mmi_3levels,3.1.5,60.0695424194711,
,,,1,1,8.7,,,,,,,,,0,0,0,0,0,22,22,15,,,,,,,,,,,,,,,,,,,,,,,,,,,,,,,,,,,,,,,,,,,,,,,,,,,,,,,,,,,True,True,True,0.54,-0.45999999999999996,-10.279999999999998,16.72,8.7,-8.02,0.33999999999999986,gamble,win,8.7,137.4891666666667,454.70904201568555,None,454.70904201568555,None,454.70904201568555,None,454.70904201568555,None,454.70904201568555,None,454.70904201568555,None,454.70904201568555,None,None,454.70904201568555,None,457.7101888347679,None,457.7101888347679,None,457.7101888347679,None,457.7101888347679,None,457.7101888347679,None,457.7101888347679,None,457.7101888347679,None,461.6950453191894,None,461.6950453191894,None,461.6950453191894,None,461.6950453191894,None,461.6950453191894,None,461.6950453191894,None,461.6950453191894,None,462.6954241790663,None,,,,,,,,,,,,,,,,,,,,,,,,,,,,,,,,24259,2020_Jan_21_1528,Mmi_3levels,3.1.5,60.0695424194711,
,,,1,1,8.1,,,,,,,,,0,0,0,0,0,23,23,17,,,,,,,,,,,,,,,,,,,,,,,,,,,,,,,,,,,,,,,,,,,,,,,,,,,,,,,,,,,True,False,True,0.54,-0.45999999999999996,-10.739999999999998,-2.505,8.1,5.595,2.7975,gamble,lose,5.595,143.0841666666667,464.712907090372,None,464.712907090372,None,464.712907090372,None,464.712907090372,None,464.712907090372,None,464.712907090372,None,464.712907090372,None,1,464.712907090372,None,465.9800113017991,None,465.9800113017991,None,465.9800113017991,None,465.9800113017991,None,465.9800113017991,None,465.9800113017991,None,465.9800113017991,None,469.9815913778657,None,469.9815913778657,None,469.9815913778657,None,469.9815913778657,None,469.9815913778657,None,469.9815913778657,None,469.9815913778657,None,479.4851569484599,None,1.250516932541359,470.9819193604417,None,471.9822934205731,None,0.52,7.502767532991129,474.9834239205193,None,None,474.9834239205193,None,,,,,,,,,,,,,,,,,,,,24259,2020_Jan_21_1528,Mmi_3levels,3.1.5,60.0695424194711,
,,,1,1,8.3,,,,,,,,,0,0,0,0,0,24,24,24,,,,,,,,,,,,,,,,,,,,,,,,,,,,,,,,,,,,,,,,,,,,,,,,,,,,,,,,,,,True,True,False,0.52,-0.48,-11.219999999999999,17.939999999999998,8.3,-9.639999999999997,-0.6699999999999982,gamble,win,8.3,151.38416666666672,481.50264497949684,None,481.50264497949684,None,481.50264497949684,None,481.50264497949684,None,481.50264497949684,None,481.50264497949684,None,481.50264497949684,None,1,481.50264497949684,None,484.120235213104,None,484.120235213104,None,484.120235213104,None,484.120235213104,None,484.120235213104,None,484.120235213104,None,484.120235213104,None,488.12179193041084,None,488.12179193041084,None,488.12179193041084,None,488.12179193041084,None,488.12179193041084,None,488.12179193041084,None,488.12179193041084,None,489.1054894363988,None,2.5844780725237797,,,,,,,,,,,,,,,,,,,,,,,,,,,,,,,24259,2020_Jan_21_1528,Mmi_3levels,3.1.5,60.0695424194711,
,,,1,1,11.5,,,,,,,,,0,0,0,0,0,25,25,18,,,,,,,,,,,,,,,,,,,,,,,,,,,,,,,,,,,,,,,,,,,,,,,,,,,,,,,,,,,True,True,False,0.52,-0.48,-11.7,18.419999999999998,11.5,-6.919999999999998,-3.459999999999999,gamble,win,11.5,162.88416666666672,491.1229774674357,None,491.1229774674357,None,491.1229774674357,None,491.1229774674357,None,491.1229774674357,None,491.1229774674357,None,491.1229774674357,None,1,491.1229774674357,None,493.77391056986744,None,493.77391056986744,None,493.77391056986744,None,493.77391056986744,None,493.77391056986744,None,493.77391056986744,None,493.77391056986744,None,497.77546856710615,None,497.77546856710615,None,497.77546856710615,None,497.77546856710615,None,497.77546856710615,None,497.77546856710615,None,497.77546856710615,None,498.7591830321944,None,2.6178660589539504,,,,,,,,,,,,,,,,,,,,,,,,,,,,,,,24259,2020_Jan_21_1528,Mmi_3levels,3.1.5,60.0695424194711,
,,,1,1,6.9,,,,,,,,,0,0,0,0,0,26,26,4,,,,,,,,,,,,,,,,,,,,,,,,,,,,,,,,,,,,,,,,,,,,,,,,,,,,,,,,,,,True,True,False,0.52,-0.48,-12.18,18.9,6.9,-11.999999999999998,-2.549999999999999,gamble,win,6.9,169.78416666666672,500.7765824279413,None,500.7765824279413,None,500.7765824279413,None,500.7765824279413,None,500.7765824279413,None,500.7765824279413,None,500.7765824279413,None,None,500.7765824279413,None,503.77775836547517,None,503.77775836547517,None,503.77775836547517,None,503.77775836547517,None,503.77775836547517,None,503.77775836547517,None,503.77775836547517,None,507.7793931586348,None,507.7793931586348,None,507.7793931586348,None,507.7793931586348,None,507.7793931586348,None,507.7793931586348,None,507.7793931586348,None,517.2662386574011,None,,508.7629898699779,None,509.76337704941034,None,0.53,7.50277681249645,512.7645030695967,None,None,512.7645030695967,None,,,,,,,,,,,,,,,,,,,,24259,2020_Jan_21_1528,Mmi_3levels,3.1.5,60.0695424194711,
,,,2,0,13.1,,,,,,,,,0,1,1,1,0,0,0,25,,,,,,,,,,,,,,,,,,,,,,,,,,,,,,,,,,,,,,,,,,,,,,,,521.9013367609878,None,0.5,5.433046436570294,524.9191399752817,None,4,524.9191399752817,None,527.3368179482277,None,False,False,True,0.5,0.5,0.5,1.7916666666666667,3.275,1.4833333333333332,0.7416666666666666,gamble,win,3.275,173.05916666666673,530.3712372398768,None,530.3712372398768,None,530.3712372398768,None,530.3712372398768,None,530.3712372398768,None,530.3712372398768,None,530.3712372398768,None,1,530.3712372398768,None,533.3223659159194,None,533.3223659159194,None,533.3223659159194,None,533.3223659159194,None,533.3223659159194,None,533.3223659159194,None,533.3223659159194,None,537.3073113556202,None,537.3073113556202,None,537.3073113556202,None,537.3073113556202,None,537.3073113556202,None,537.3073113556202,None,537.3073113556202,None,538.3075939006085,None,2.91803603392691,,,,,,,,,,,,519.2669950972195,None,4,2.61788205810808,519.2669950972195,None,2.401188288880803,,,,,,,,,,,,,24259,2020_Jan_21_1528,Mmi_3levels,3.1.5,60.0695424194711,
,,,2,0,-0.3,,,,,,,,,0,1,1,1,0,1,1,0,,,,,,,,,,,,,,,,,,,,,,,,,,,,,,,,,,,,,,,,,,,,,,,,,,,,,,,,,,,False,True,False,0.5,0.5,1.0,-8.0,-0.3,-8.3,-4.300000000000001,certain,certain,-4.300000000000001,168.75916666666672,540.3250342541796,None,540.3250342541796,None,540.3250342541796,None,540.3250342541796,None,540.3250342541796,None,540.3250342541796,None,540.3250342541796,None,3,540.3250342541796,None,542.4258384994573,None,542.4258384994573,None,542.4258384994573,None,542.4258384994573,None,542.4258384994573,None,542.4258384994573,None,542.4258384994573,None,546.4273600186352,None,546.4273600186352,None,546.4273600186352,None,546.4273600186352,None,546.4273600186352,None,546.4273600186352,None,546.4273600186352,None,555.9143239111108,None,2.0677170428716636,547.4111224811713,None,548.4114488638334,None,0.49,7.502724015303102,551.4125752040018,None,None,551.4125752040018,None,,,,,,,,,,,,,,,,,,,,24259,2020_Jan_21_1528,Mmi_3levels,3.1.5,60.0695424194711,
,,,2,0,8.7,,,,,,,,,0,1,1,1,0,2,2,16,,,,,,,,,,,,,,,,,,,,,,,,,,,,,,,,,,,,,,,,,,,,,,,,,,,,,,,,,,,False,True,True,0.49,0.49,1.49,-8.35,8.7,0.34999999999999964,0.17499999999999982,gamble,lose,0.34999999999999964,169.1091666666667,557.9317450656999,None,557.9317450656999,None,557.9317450656999,None,557.9317450656999,None,557.9317450656999,None,557.9317450656999,None,557.9317450656999,None,1,557.9317450656999,None,559.5491298702182,None,559.5491298702182,None,559.5491298702182,None,559.5491298702182,None,559.5491298702182,None,559.5491298702182,None,559.5491298702182,None,563.5338778804035,None,563.5338778804035,None,563.5338778804035,None,563.5338778804035,None,563.5338778804035,None,563.5338778804035,None,563.5338778804035,None,564.5343684143481,None,1.584351679237443,,,,,,,,,,,,,,,,,,,,,,,,,,,,,,,24259,2020_Jan_21_1528,Mmi_3levels,3.1.5,60.0695424194711,
,,,2,0,4.9,,,,,,,,,0,1,1,1,0,3,3,4,,,,,,,,,,,,,,,,,,,,,,,,,,,,,,,,,,,,,,,,,,,,,,,,,,,,,,,,,,,False,True,True,0.49,0.49,1.98,-8.84,4.9,-3.9399999999999995,0.4800000000000004,certain,certain,0.4800000000000004,169.5891666666667,566.5517028535432,None,566.5517028535432,None,566.5517028535432,None,566.5517028535432,None,566.5517028535432,None,566.5517028535432,None,566.5517028535432,None,3,566.5517028535432,None,568.4857754756049,None,568.4857754756049,None,568.4857754756049,None,568.4857754756049,None,568.4857754756049,None,568.4857754756049,None,568.4857754756049,None,572.4873440322845,None,572.4873440322845,None,572.4873440322845,None,572.4873440322845,None,572.4873440322845,None,572.4873440322845,None,572.4873440322845,None,581.9742490478893,None,1.9009447818134504,573.4710332187133,None,574.4713768804577,None,0.48,7.5027902517795155,577.4725160199487,None,None,577.4725160199487,None,,,,,,,,,,,,,,,,,,,,24259,2020_Jan_21_1528,Mmi_3levels,3.1.5,60.0695424194711,
,,,2,0,2.7,,,,,,,,,0,1,1,1,0,4,4,13,,,,,,,,,,,,,,,,,,,,,,,,,,,,,,,,,,,,,,,,,,,,,,,,,,,,,,,,,,,False,True,True,0.48,0.48,2.46,-9.18,2.7,-6.4799999999999995,-1.8899999999999997,gamble,lose,-6.4799999999999995,163.1091666666667,583.9916855616611,None,583.9916855616611,None,583.9916855616611,None,583.9916855616611,None,583.9916855616611,None,583.9916855616611,None,583.9916855616611,None,None,583.9916855616611,None,586.9928339806575,None,586.9928339806575,None,586.9928339806575,None,586.9928339806575,None,586.9928339806575,None,586.9928339806575,None,586.9928339806575,None,590.9943545398855,None,590.9943545398855,None,590.9943545398855,None,590.9943545398855,None,590.9943545398855,None,590.9943545398855,None,590.9943545398855,None,591.9780600454469,None,,,,,,,,,,,,,,,,,,,,,,,,,,,,,,,,24259,2020_Jan_21_1528,Mmi_3levels,3.1.5,60.0695424194711,
,,,2,0,1.5,,,,,,,,,0,1,1,1,0,5,5,12,,,,,,,,,,,,,,,,,,,,,,,,,,,,,,,,,,,,,,,,,,,,,,,,,,,,,,,,,,,False,True,True,0.48,0.48,2.94,-9.66,1.5,-8.16,-3.33,certain,certain,-3.33,159.7791666666667,593.9954955992725,None,593.9954955992725,None,593.9954955992725,None,593.9954955992725,None,593.9954955992725,None,593.9954955992725,None,593.9954955992725,None,3,593.9954955992725,None,596.1296203145685,None,596.1296203145685,None,596.1296203145685,None,596.1296203145685,None,596.1296203145685,None,596.1296203145685,None,596.1296203145685,None,600.1144969579182,None,600.1144969579182,None,600.1144969579182,None,600.1144969579182,None,600.1144969579182,None,600.1144969579182,None,600.1144969579182,None,601.1148802975586,None,2.1008746415391215,,,,,,,,,,,,,,,,,,,,,,,,,,,,,,,24259,2020_Jan_21_1528,Mmi_3levels,3.1.5,60.0695424194711,
,,,2,0,7.7,,,,,,,,,0,1,1,1,0,6,6,15,,,,,,,,,,,,,,,,,,,,,,,,,,,,,,,,,,,,,,,,,,,,,,,,,,,,,,,,,,,False,True,False,0.48,0.48,3.42,-10.14,7.7,-2.4400000000000004,-1.2200000000000002,gamble,lose,-2.4400000000000004,157.3391666666667,603.1323177712766,None,603.1323177712766,None,603.1323177712766,None,603.1323177712766,None,603.1323177712766,None,603.1323177712766,None,603.1323177712766,None,None,603.1323177712766,None,606.1334716299862,None,606.1334716299862,None,606.1334716299862,None,606.1334716299862,None,606.1334716299862,None,606.1334716299862,None,606.1334716299862,None,610.1350024286694,None,610.1350024286694,None,610.1350024286694,None,610.1350024286694,None,610.1350024286694,None,610.1350024286694,None,610.1350024286694,None,619.6219698409586,None,,611.1186957748796,None,612.1190819943622,None,0.5,7.502828329757904,615.1202883302831,None,None,615.1202883302831,None,,,,,,,,,,,,,,,,,,,,24259,2020_Jan_21_1528,Mmi_3levels,3.1.5,60.0695424194711,
,,,2,0,1.3,,,,,,,,,0,1,1,1,0,7,7,19,,,,,,,,,,,,,,,,,,,,,,,,,,,,,,,,,,,,,,,,,,,,,,,,,,,,,,,,,,,False,True,False,0.5,0.5,3.92,-10.92,1.3,-9.62,-4.159999999999999,gamble,lose,-9.62,147.7191666666667,621.6394313134078,None,621.6394313134078,None,621.6394313134078,None,621.6394313134078,None,621.6394313134078,None,621.6394313134078,None,621.6394313134078,None,1,621.6394313134078,None,623.8902368706149,None,623.8902368706149,None,623.8902368706149,None,623.8902368706149,None,623.8902368706149,None,623.8902368706149,None,623.8902368706149,None,627.8917590297569,None,627.8917590297569,None,627.8917590297569,None,627.8917590297569,None,627.8917590297569,None,627.8917590297569,None,627.8917590297569,None,628.875464535322,None,2.217698515854863,,,,,,,,,,,,,,,,,,,,,,,,,,,,,,,24259,2020_Jan_21_1528,Mmi_3levels,3.1.5,60.0695424194711,
,,,2,0,0.1,,,,,,,,,0,1,1,1,0,8,8,21,,,,,,,,,,,,,,,,,,,,,,,,,,,,,,,,,,,,,,,,,,,,,,,,,,,,,,,,,,,False,False,True,0.5,0.5,4.42,2.118333333333333,0.025,-2.0933333333333333,-1.0341666666666667,gamble,win,0.025,147.7441666666667,630.8929058488393,None,630.8929058488393,None,630.8929058488393,None,630.8929058488393,None,630.8929058488393,None,630.8929058488393,None,630.8929058488393,None,None,630.8929058488393,None,633.8940520279539,None,633.8940520279539,None,633.8940520279539,None,633.8940520279539,None,633.8940520279539,None,633.8940520279539,None,633.8940520279539,None,637.8789024327016,None,637.8789024327016,None,637.8789024327016,None,637.8789024327016,None,637.8789024327016,None,637.8789024327016,None,637.8789024327016,None,647.3825707178403,None,,638.8793020914709,None,639.8796639922475,None,0.5,7.502622900668939,642.8808415296953,None,None,642.8808415296953,None,,,,,,,,,,,,,,,,,,,,24259,2020_Jan_21_1528,Mmi_3levels,3.1.5,60.0695424194711,
,,,2,0,12.1,,,,,,,,,0,1,1,1,0,9,9,24,,,,,,,,,,,,,,,,,,,,,,,,,,,,,,,,,,,,,,,,,,,,,,,,,,,,,,,,,,,False,True,True,0.5,0.5,4.92,-11.92,12.1,0.17999999999999972,0.08999999999999986,gamble,lose,0.17999999999999972,147.9241666666667,649.3999624339922,None,649.3999624339922,None,649.3999624339922,None,649.3999624339922,None,649.3999624339922,None,649.3999624339922,None,649.3999624339922,None,1,649.3999624339922,None,650.5504414805473,None,650.5504414805473,None,650.5504414805473,None,650.5504414805473,None,650.5504414805473,None,650.5504414805473,None,650.5504414805473,None,654.5353043646319,None,654.5353043646319,None,654.5353043646319,None,654.5353043646319,None,654.5353043646319,None,654.5353043646319,None,654.5353043646319,None,655.5357225824155,None,1.1173617657441355,,,,,,,,,,,,,,,,,,,,,,,,,,,,,,,24259,2020_Jan_21_1528,Mmi_3levels,3.1.5,60.0695424194711,
,,,2,0,4.1,,,,,,,,,0,1,1,1,0,10,10,17,,,,,,,,,,,,,,,,,,,,,,,,,,,,,,,,,,,,,,,,,,,,,,,,,,,,,,,,,,,False,True,True,0.5,0.5,5.42,-12.42,4.1,-8.32,-2.1100000000000003,certain,certain,-2.1100000000000003,145.8141666666667,657.5530768605568,None,657.5530768605568,None,657.5530768605568,None,657.5530768605568,None,657.5530768605568,None,657.5530768605568,None,657.5530768605568,None,3,657.5530768605568,None,659.5204926714287,None,659.5204926714287,None,659.5204926714287,None,659.5204926714287,None,659.5204926714287,None,659.5204926714287,None,659.5204926714287,None,663.5053421162265,None,663.5053421162265,None,663.5053421162265,None,663.5053421162265,None,663.5053421162265,None,663.5053421162265,None,663.5053421162265,None,664.5057280157271,None,1.934326688566216,,,,,,,,,,,,,,,,,,,,,,,,,,,,,,,24259,2020_Jan_21_1528,Mmi_3levels,3.1.5,60.0695424194711,
,,,2,0,12.5,,,,,,,,,0,1,1,1,0,11,11,11,,,,,,,,,,,,,,,,,,,,,,,,,,,,,,,,,,,,,,,,,,,,,,,,,,,,,,,,,,,False,True,False,0.5,0.5,5.92,-12.92,12.5,-0.41999999999999993,-0.20999999999999996,gamble,lose,-0.41999999999999993,145.3941666666667,666.5231581298394,None,666.5231581298394,None,666.5231581298394,None,666.5231581298394,None,666.5231581298394,None,666.5231581298394,None,666.5231581298394,None,1,666.5231581298394,None,668.8740626897888,None,668.8740626897888,None,668.8740626897888,None,668.8740626897888,None,668.8740626897888,None,668.8740626897888,None,668.8740626897888,None,672.8755973282678,None,672.8755973282678,None,672.8755973282678,None,672.8755973282678,None,672.8755973282678,None,672.8755973282678,None,672.8755973282678,None,682.3625442616467,None,2.3178167175756244,673.8593415517753,None,674.8596762539964,None,0.48,7.502929444388428,677.8608489916987,None,None,677.8608489916987,None,,,,,,,,,,,,,,,,,,,,24259,2020_Jan_21_1528,Mmi_3levels,3.1.5,60.0695424194711,
,,,2,0,10.5,,,,,,,,,0,1,1,1,0,12,12,2,,,,,,,,,,,,,,,,,,,,,,,,,,,,,,,,,,,,,,,,,,,,,,,,,,,,,,,,,,,False,False,True,0.48,0.48,6.4,2.2133333333333334,2.625,0.4116666666666666,1.5183333333333333,gamble,win,2.625,148.0191666666667,684.3799718158953,None,684.3799718158953,None,684.3799718158953,None,684.3799718158953,None,684.3799718158953,None,684.3799718158953,None,684.3799718158953,None,1,684.3799718158953,None,685.5304105445903,None,685.5304105445903,None,685.5304105445903,None,685.5304105445903,None,685.5304105445903,None,685.5304105445903,None,685.5304105445903,None,689.5152615893021,None,689.5152615893021,None,689.5152615893021,None,689.5152615893021,None,689.5152615893021,None,689.5152615893021,None,689.5152615893021,None,690.5156990060677,None,1.1174324819876347,,,,,,,,,,,,,,,,,,,,,,,,,,,,,,,24259,2020_Jan_21_1528,Mmi_3levels,3.1.5,60.0695424194711,
,,,2,0,-1.1,,,,,,,,,0,1,1,1,0,13,13,14,,,,,,,,,,,,,,,,,,,,,,,,,,,,,,,,,,,,,,,,,,,,,,,,,,,,,,,,,,,False,False,True,0.48,0.48,6.880000000000001,2.2533333333333334,-0.275,-2.5283333333333333,-1.4016666666666666,certain,certain,-1.4016666666666666,146.61750000000004,692.5330836825924,None,692.5330836825924,None,692.5330836825924,None,692.5330836825924,None,692.5330836825924,None,692.5330836825924,None,692.5330836825924,None,3,692.5330836825924,None,694.3671132989402,None,694.3671132989402,None,694.3671132989402,None,694.3671132989402,None,694.3671132989402,None,694.3671132989402,None,694.3671132989402,None,698.368637697964,None,698.368637697964,None,698.368637697964,None,698.368637697964,None,698.368637697964,None,698.368637697964,None,698.368637697964,None,707.8555926309164,None,1.8009664126657299,699.3523512031024,None,700.3527348627213,None,0.47,7.5027870519516,703.3538644027212,None,None,703.3538644027212,None,,,,,,,,,,,,,,,,,,,,24259,2020_Jan_21_1528,Mmi_3levels,3.1.5,60.0695424194711,
,,,2,0,13.9,,,,,,,,,0,1,1,1,0,14,14,5,,,,,,,,,,,,,,,,,,,,,,,,,,,,,,,,,,,,,,,,,,,,,,,,,,,,,,,,,,,False,False,False,0.47,0.47,7.3500000000000005,2.2575000000000003,3.475,1.2174999999999998,0.6087499999999999,gamble,win,3.475,150.09250000000003,709.8730275447742,None,709.8730275447742,None,709.8730275447742,None,709.8730275447742,None,709.8730275447742,None,709.8730275447742,None,709.8730275447742,None,1,709.8730275447742,None,711.1902026964308,None,711.1902026964308,None,711.1902026964308,None,711.1902026964308,None,711.1902026964308,None,711.1902026964308,None,711.1902026964308,None,715.1750198229456,None,715.1750198229456,None,715.1750198229456,None,715.1750198229456,None,715.1750198229456,None,715.1750198229456,None,715.1750198229456,None,716.1754668391986,None,1.2840809096196608,,,,,,,,,,,,,,,,,,,,,,,,,,,,,,,24259,2020_Jan_21_1528,Mmi_3levels,3.1.5,60.0695424194711,
,,,2,0,6.5,,,,,,,,,0,1,1,1,0,15,15,20,,,,,,,,,,,,,,,,,,,,,,,,,,,,,,,,,,,,,,,,,,,,,,,,,,,,,,,,,,,False,True,True,0.47,0.47,7.82,-14.4,6.5,-7.9,-0.7000000000000002,certain,certain,-0.7000000000000002,149.39250000000004,718.1929126324794,None,718.1929126324794,None,718.1929126324794,None,718.1929126324794,None,718.1929126324794,None,718.1929126324794,None,718.1929126324794,None,3,718.1929126324794,None,719.5934523158103,None,719.5934523158103,None,719.5934523158103,None,719.5934523158103,None,719.5934523158103,None,719.5934523158103,None,719.5934523158103,None,723.5949335171281,None,723.5949335171281,None,723.5949335171281,None,723.5949335171281,None,723.5949335171281,None,723.5949335171281,None,723.5949335171281,None,733.0818826903887,None,1.3674352018424543,724.578640622607,None,725.5790191625019,None,0.44,7.502778732396109,728.5801538222258,None,None,728.5801538222258,None,,,,,,,,,,,,,,,,,,,,24259,2020_Jan_21_1528,Mmi_3levels,3.1.5,60.0695424194711,
,,,2,0,13.7,,,,,,,,,0,1,1,1,0,16,16,22,,,,,,,,,,,,,,,,,,,,,,,,,,,,,,,,,,,,,,,,,,,,,,,,,,,,,,,,,,,False,True,False,0.44,0.44,8.26,-14.42,13.7,-0.7200000000000006,-0.3600000000000003,gamble,lose,-0.7200000000000006,148.67250000000004,735.0993176042466,None,735.0993176042466,None,735.0993176042466,None,735.0993176042466,None,735.0993176042466,None,735.0993176042466,None,735.0993176042466,None,1,735.0993176042466,None,737.5502546104726,None,737.5502546104726,None,737.5502546104726,None,737.5502546104726,None,737.5502546104726,None,737.5502546104726,None,737.5502546104726,None,741.5517745297366,None,741.5517745297366,None,741.5517745297366,None,741.5517745297366,None,741.5517745297366,None,741.5517745297366,None,741.5517745297366,None,742.5355837097923,None,2.417846923970501,,,,,,,,,,,,,,,,,,,,,,,,,,,,,,,24259,2020_Jan_21_1528,Mmi_3levels,3.1.5,60.0695424194711,
,,,2,0,11.3,,,,,,,,,0,1,1,1,0,17,17,9,,,,,,,,,,,,,,,,,,,,,,,,,,,,,,,,,,,,,,,,,,,,,,,,,,,,,,,,,,,False,False,True,0.44,0.44,8.7,2.265,2.825,0.56,1.6925000000000001,gamble,win,2.825,151.49750000000003,744.5529181489874,None,744.5529181489874,None,744.5529181489874,None,744.5529181489874,None,744.5529181489874,None,744.5529181489874,None,744.5529181489874,None,1,744.5529181489874,None,745.6867392004133,None,745.6867392004133,None,745.6867392004133,None,745.6867392004133,None,745.6867392004133,None,745.6867392004133,None,745.6867392004133,None,749.6715339281145,None,749.6715339281145,None,749.6715339281145,None,749.6715339281145,None,749.6715339281145,None,749.6715339281145,None,749.6715339281145,None,750.6719249473463,None,1.1006698524179228,,,,,,,,,,,,,,,,,,,,,,,,,,,,,,,24259,2020_Jan_21_1528,Mmi_3levels,3.1.5,60.0695424194711,
,,,2,0,2.1,,,,,,,,,0,1,1,1,0,18,18,18,,,,,,,,,,,,,,,,,,,,,,,,,,,,,,,,,,,,,,,,,,,,,,,,,,,,,,,,,,,False,False,True,0.44,0.44,9.139999999999999,2.3016666666666667,0.525,-1.7766666666666668,-0.6258333333333335,gamble,win,0.525,152.02250000000004,752.6893905795696,None,752.6893905795696,None,752.6893905795696,None,752.6893905795696,None,752.6893905795696,None,752.6893905795696,None,752.6893905795696,None,1,752.6893905795696,None,755.156963822079,None,755.156963822079,None,755.156963822079,None,755.156963822079,None,755.156963822079,None,755.156963822079,None,755.156963822079,None,759.14186350421,None,759.14186350421,None,759.14186350421,None,759.14186350421,None,759.14186350421,None,759.14186350421,None,759.14186350421,None,768.6454412341591,None,2.434502999200049,760.1422004463093,None,761.1425924254872,None,0.47,7.502824809947924,764.1437155658277,None,None,764.1437155658277,None,,,,,,,,,,,,,,,,,,,,24259,2020_Jan_21_1528,Mmi_3levels,3.1.5,60.0695424194711,
,,,2,0,11.5,,,,,,,,,0,1,1,1,0,19,19,3,,,,,,,,,,,,,,,,,,,,,,,,,,,,,,,,,,,,,,,,,,,,,,,,,,,,,,,,,,,False,True,False,0.47,0.47,9.61,-16.189999999999998,11.5,-4.689999999999998,-2.344999999999999,gamble,lose,-4.689999999999998,147.33250000000004,770.6628582289704,None,770.6628582289704,None,770.6628582289704,None,770.6628582289704,None,770.6628582289704,None,770.6628582289704,None,770.6628582289704,None,1,770.6628582289704,None,773.0971465195762,None,773.0971465195762,None,773.0971465195762,None,773.0971465195762,None,773.0971465195762,None,773.0971465195762,None,773.0971465195762,None,777.0986677187684,None,777.0986677187684,None,777.0986677187684,None,777.0986677187684,None,777.0986677187684,None,777.0986677187684,None,777.0986677187684,None,778.0823754642151,None,2.4011876489130373,,,,,,,,,,,,,,,,,,,,,,,,,,,,,,,24259,2020_Jan_21_1528,Mmi_3levels,3.1.5,60.0695424194711,
,,,2,0,1.7,,,,,,,,,0,1,1,1,0,20,20,26,,,,,,,,,,,,,,,,,,,,,,,,,,,,,,,,,,,,,,,,,,,,,,,,,,,,,,,,,,,False,False,True,0.47,0.47,10.08,2.485,0.425,-2.06,-0.8175,gamble,win,0.425,147.75750000000005,780.0998314969474,None,780.0998314969474,None,780.0998314969474,None,780.0998314969474,None,780.0998314969474,None,780.0998314969474,None,780.0998314969474,None,None,780.0998314969474,None,783.1010013548075,None,783.1010013548075,None,783.1010013548075,None,783.1010013548075,None,783.1010013548075,None,783.1010013548075,None,783.1010013548075,None,787.0858079218815,None,787.0858079218815,None,787.0858079218815,None,787.0858079218815,None,787.0858079218815,None,787.0858079218815,None,787.0858079218815,None,796.5894822866976,None,,788.0861915815003,None,789.086617798861,None,0.47,7.502725615213421,792.087706061051,None,None,792.087706061051,None,,,,,,,,,,,,,,,,,,,,24259,2020_Jan_21_1528,Mmi_3levels,3.1.5,60.0695424194711,
,,,2,0,5.7,,,,,,,,,0,1,1,1,0,21,21,23,,,,,,,,,,,,,,,,,,,,,,,,,,,,,,,,,,,,,,,,,,,,,,,,,,,,,,,,,,,False,True,False,0.47,0.47,10.55,-17.130000000000003,5.7,-11.430000000000003,-2.8650000000000015,certain,certain,-2.8650000000000015,144.89250000000004,798.6068685631399,None,798.6068685631399,None,798.6068685631399,None,798.6068685631399,None,798.6068685631399,None,798.6068685631399,None,798.6068685631399,None,3,798.6068685631399,None,800.1908049044432,None,800.1908049044432,None,800.1908049044432,None,800.1908049044432,None,800.1908049044432,None,800.1908049044432,None,800.1908049044432,None,804.1923309033809,None,804.1923309033809,None,804.1923309033809,None,804.1923309033809,None,804.1923309033809,None,804.1923309033809,None,804.1923309033809,None,805.1760546479745,None,1.550861618230556,,,,,,,,,,,,,,,,,,,,,,,,,,,,,,,24259,2020_Jan_21_1528,Mmi_3levels,3.1.5,60.0695424194711,
,,,2,0,3.5,,,,,,,,,0,1,1,1,0,22,22,10,,,,,,,,,,,,,,,,,,,,,,,,,,,,,,,,,,,,,,,,,,,,,,,,,,,,,,,,,,,False,False,False,0.47,0.47,11.020000000000001,2.5633333333333335,0.875,-1.6883333333333335,-0.40666666666666673,gamble,win,0.875,145.76750000000004,807.1934825222052,None,807.1934825222052,None,807.1934825222052,None,807.1934825222052,None,807.1934825222052,None,807.1934825222052,None,807.1934825222052,None,1,807.1934825222052,None,809.9945490895516,None,809.9945490895516,None,809.9945490895516,None,809.9945490895516,None,809.9945490895516,None,809.9945490895516,None,809.9945490895516,None,813.9794570912381,None,813.9794570912381,None,813.9794570912381,None,813.9794570912381,None,813.9794570912381,None,813.9794570912381,None,813.9794570912381,None,823.4830229818181,None,2.767964645718166,814.9797725944773,None,815.9802231305439,None,0.46,7.502660018697497,818.981338591293,None,None,818.981338591293,None,,,,,,,,,,,,,,,,,,,,24259,2020_Jan_21_1528,Mmi_3levels,3.1.5,60.0695424194711,
,,,2,0,-0.9,,,,,,,,,0,1,1,1,0,23,23,8,,,,,,,,,,,,,,,,,,,,,,,,,,,,,,,,,,,,,,,,,,,,,,,,,,,,,,,,,,,False,True,False,0.46,0.46,11.480000000000002,-17.92,-0.9,-18.82,-9.86,certain,certain,-9.86,135.90750000000003,825.5004607755218,None,825.5004607755218,None,825.5004607755218,None,825.5004607755218,None,825.5004607755218,None,825.5004607755218,None,825.5004607755218,None,3,825.5004607755218,None,828.2348371254484,None,828.2348371254484,None,828.2348371254484,None,828.2348371254484,None,828.2348371254484,None,828.2348371254484,None,828.2348371254484,None,832.2363628044077,None,832.2363628044077,None,832.2363628044077,None,832.2363628044077,None,832.2363628044077,None,832.2363628044077,None,832.2363628044077,None,833.220069909883,None,2.7012805079793907,,,,,,,,,,,,,,,,,,,,,,,,,,,,,,,24259,2020_Jan_21_1528,Mmi_3levels,3.1.5,60.0695424194711,
,,,2,0,5.1,,,,,,,,,0,1,1,1,0,24,24,6,,,,,,,,,,,,,,,,,,,,,,,,,,,,,,,,,,,,,,,,,,,,,,,,,,,,,,,,,,,False,False,False,0.46,0.46,11.940000000000003,2.6050000000000004,1.275,-1.3300000000000005,-0.027500000000000302,gamble,win,1.275,137.18250000000003,835.2375109034183,None,835.2375109034183,None,835.2375109034183,None,835.2375109034183,None,835.2375109034183,None,835.2375109034183,None,835.2375109034183,None,None,835.2375109034183,None,838.2386513228412,None,838.2386513228412,None,838.2386513228412,None,838.2386513228412,None,838.2386513228412,None,838.2386513228412,None,838.2386513228412,None,842.223502367553,None,842.223502367553,None,842.223502367553,None,842.223502367553,None,842.223502367553,None,842.223502367553,None,842.223502367553,None,843.2238882670536,None,,,,,,,,,,,,,,,,,,,,,,,,,,,,,,,,24259,2020_Jan_21_1528,Mmi_3levels,3.1.5,60.0695424194711,
,,,2,0,7.3,,,,,,,,,0,1,1,1,0,25,25,1,,,,,,,,,,,,,,,,,,,,,,,,,,,,,,,,,,,,,,,,,,,,,,,,,,,,,,,,,,,False,True,True,0.46,0.46,12.400000000000004,-18.840000000000003,7.3,-11.540000000000003,-2.1200000000000014,certain,certain,-2.1200000000000014,135.06250000000003,845.2413231809114,None,845.2413231809114,None,845.2413231809114,None,845.2413231809114,None,845.2413231809114,None,845.2413231809114,None,845.2413231809114,None,3,845.2413231809114,None,846.6918541287087,None,846.6918541287087,None,846.6918541287087,None,846.6918541287087,None,846.6918541287087,None,846.6918541287087,None,846.6918541287087,None,850.6934002865746,None,850.6934002865746,None,850.6934002865746,None,850.6934002865746,None,850.6934002865746,None,850.6934002865746,None,850.6934002865746,None,860.1804051368781,None,1.4174386256599973,851.6771102718994,None,852.6774878518445,None,0.47,7.502792491661239,855.6786237915039,None,None,855.6786237915039,None,,,,,,,,,,,,,,,,,,,,24259,2020_Jan_21_1528,Mmi_3levels,3.1.5,60.0695424194711,
,,,2,0,7.5,,,,,,,,,0,1,1,1,0,26,26,7,,,,,,,,,,,,,,,,,,,,,,,,,,,,,,,,,,,,,,,,,,,,,,,,,,,,,,,,,,,False,True,True,0.47,0.47,12.870000000000005,-19.450000000000003,7.5,-11.950000000000003,-2.2250000000000014,certain,certain,-2.2250000000000014,132.83750000000003,862.1977866135749,None,862.1977866135749,None,862.1977866135749,None,862.1977866135749,None,862.1977866135749,None,862.1977866135749,None,862.1977866135749,None,3,862.1977866135749,None,863.6983616230282,None,863.6983616230282,None,863.6983616230282,None,863.6983616230282,None,863.6983616230282,None,863.6983616230282,None,863.6983616230282,None,867.6998681030054,None,867.6998681030054,None,867.6998681030054,None,867.6998681030054,None,867.6998681030054,None,867.6998681030054,None,867.6998681030054,None,868.6835928075488,None,1.4674730878286937,,,,,,,,,,,,,,,,,,,,,,,,,,,,,,,24259,2020_Jan_21_1528,Mmi_3levels,3.1.5,60.0695424194711,
,,,3,1,6.5,,,,,,,,,0,2,2,2,0,0,0,9,,,,,,,,,,,,,,,,,,,,,,,,,,,,,,,,,,,,,,,,,,,,,,,,879.1209126171198,None,0.47,4.267625463737204,882.1220863147719,None,4,882.1220863147719,None,883.3892721218617,None,True,True,True,0.47,-0.53,-0.53,7.95,6.5,-1.4500000000000002,-0.7250000000000001,gamble,win,6.5,139.33750000000003,886.4237067726935,None,886.4237067726935,None,886.4237067726935,None,886.4237067726935,None,886.4237067726935,None,886.4237067726935,None,886.4237067726935,None,None,886.4237067726935,None,889.4248049543603,None,889.4248049543603,None,889.4248049543603,None,889.4248049543603,None,889.4248049543603,None,889.4248049543603,None,889.4248049543603,None,893.426385350409,None,893.426385350409,None,893.426385350409,None,893.426385350409,None,893.426385350409,None,893.426385350409,None,893.426385350409,None,902.9133146847234,None,,894.4100706970421,None,895.410505873926,None,0.46,7.50247218867662,898.4115819767649,None,None,898.4115819767649,None,870.6843511672632,None,4,8.420102164171112,870.6843511672632,None,1.2506983629027673,,,,,,,,,,,,,24259,2020_Jan_21_1528,Mmi_3levels,3.1.5,60.0695424194711,
,,,3,1,0.9,,,,,,,,,0,2,2,2,0,1,1,5,,,,,,,,,,,,,,,,,,,,,,,,,,,,,,,,,,,,,,,,,,,,,,,,,,,,,,,,,,,True,False,True,0.46,-0.54,-1.07,-1.9791666666666667,0.9,-1.0791666666666666,-0.08958333333333329,certain,certain,-0.08958333333333329,139.2479166666667,904.9307492785956,None,904.9307492785956,None,904.9307492785956,None,904.9307492785956,None,904.9307492785956,None,904.9307492785956,None,904.9307492785956,None,3,904.9307492785956,None,906.8314780718829,None,906.8314780718829,None,906.8314780718829,None,906.8314780718829,None,906.8314780718829,None,906.8314780718829,None,906.8314780718829,None,910.8163342363223,None,910.8163342363223,None,910.8163342363223,None,910.8163342363223,None,910.8163342363223,None,910.8163342363223,None,910.8163342363223,None,911.816715336081,None,1.8676911882430431,,,,,,,,,,,,,,,,,,,,,,,,,,,,,,,24259,2020_Jan_21_1528,Mmi_3levels,3.1.5,60.0695424194711,
,,,3,1,-0.3,,,,,,,,,0,2,2,2,0,2,2,21,,,,,,,,,,,,,,,,,,,,,,,,,,,,,,,,,,,,,,,,,,,,,,,,,,,,,,,,,,,True,True,False,0.46,-0.54,-1.61,9.17,-0.3,-9.47,-4.885000000000001,gamble,win,-0.3,138.94791666666669,913.8341518498528,None,913.8341518498528,None,913.8341518498528,None,913.8341518498528,None,913.8341518498528,None,913.8341518498528,None,913.8341518498528,None,None,913.8341518498528,None,916.8352663506485,None,916.8352663506485,None,916.8352663506485,None,916.8352663506485,None,916.8352663506485,None,916.8352663506485,None,916.8352663506485,None,920.8368147483998,None,920.8368147483998,None,920.8368147483998,None,920.8368147483998,None,920.8368147483998,None,920.8368147483998,None,920.8368147483998,None,921.8205269736063,None,,,,,,,,,,,,,,,,,,,,,,,,,,,,,,,,24259,2020_Jan_21_1528,Mmi_3levels,3.1.5,60.0695424194711,
,,,3,1,1.5,,,,,,,,,0,2,2,2,0,3,3,1,,,,,,,,,,,,,,,,,,,,,,,,,,,,,,,,,,,,,,,,,,,,,,,,,,,,,,,,,,,True,True,True,0.46,-0.54,-2.1500000000000004,9.71,1.5,-8.21,-3.3550000000000004,certain,certain,-3.3550000000000004,135.5929166666667,923.8379650872921,None,923.8379650872921,None,923.8379650872921,None,923.8379650872921,None,923.8379650872921,None,923.8379650872921,None,923.8379650872921,None,3,923.8379650872921,None,925.5387041840331,None,925.5387041840331,None,925.5387041840331,None,925.5387041840331,None,925.5387041840331,None,925.5387041840331,None,925.5387041840331,None,929.5402410623938,None,929.5402410623938,None,929.5402410623938,None,929.5402410623938,None,929.5402410623938,None,929.5402410623938,None,929.5402410623938,None,939.0270868811422,None,1.6675507797008322,930.5238531329196,None,931.5242915096314,None,0.42,7.502889766496082,934.5253496934238,None,None,934.5253496934238,None,,,,,,,,,,,,,,,,,,,,24259,2020_Jan_21_1528,Mmi_3levels,3.1.5,60.0695424194711,
,,,3,1,6.1,,,,,,,,,0,2,2,2,0,4,4,18,,,,,,,,,,,,,,,,,,,,,,,,,,,,,,,,,,,,,,,,,,,,,,,,,,,,,,,,,,,True,True,True,0.42,-0.5800000000000001,-2.7300000000000004,10.850000000000001,6.1,-4.750000000000002,0.6749999999999989,gamble,win,6.1,141.6929166666667,941.0445294745914,None,941.0445294745914,None,941.0445294745914,None,941.0445294745914,None,941.0445294745914,None,941.0445294745914,None,941.0445294745914,None,1,941.0445294745914,None,943.0119388858038,None,943.0119388858038,None,943.0119388858038,None,943.0119388858038,None,943.0119388858038,None,943.0119388858038,None,943.0119388858038,None,946.9967969701429,None,946.9967969701429,None,946.9967969701429,None,946.9967969701429,None,946.9967969701429,None,946.9967969701429,None,946.9967969701429,None,947.997176469984,None,1.9343167690931296,,,,,,,,,,,,,,,,,,,,,,,,,,,,,,,24259,2020_Jan_21_1528,Mmi_3levels,3.1.5,60.0695424194711,
,,,3,1,7.7,,,,,,,,,0,2,2,2,0,5,5,22,,,,,,,,,,,,,,,,,,,,,,,,,,,,,,,,,,,,,,,,,,,,,,,,,,,,,,,,,,,True,False,False,0.42,-0.5800000000000001,-3.3100000000000005,-2.3058333333333336,7.7,5.394166666666667,2.6970833333333335,gamble,lose,5.394166666666667,147.08708333333337,950.0146184234691,None,950.0146184234691,None,950.0146184234691,None,950.0146184234691,None,950.0146184234691,None,950.0146184234691,None,950.0146184234691,None,1,950.0146184234691,None,951.5652093360768,None,951.5652093360768,None,951.5652093360768,None,951.5652093360768,None,951.5652093360768,None,951.5652093360768,None,951.5652093360768,None,955.5667311752368,None,955.5667311752368,None,955.5667311752368,None,955.5667311752368,None,955.5667311752368,None,955.5667311752368,None,955.5667311752368,None,965.0536813084473,None,1.5176893003445002,956.5504446803752,None,957.5508689778399,None,0.44,7.502818730266881,960.5519313214063,None,None,960.5519313214063,None,,,,,,,,,,,,,,,,,,,,24259,2020_Jan_21_1528,Mmi_3levels,3.1.5,60.0695424194711,
,,,3,1,3.7,,,,,,,,,0,2,2,2,0,6,6,4,,,,,,,,,,,,,,,,,,,,,,,,,,,,,,,,,,,,,,,,,,,,,,,,,,,,,,,,,,,True,True,False,0.44,-0.56,-3.8700000000000006,11.71,3.7,-8.010000000000002,-2.1550000000000007,certain,certain,-2.1550000000000007,144.93208333333337,967.0711712593802,None,967.0711712593802,None,967.0711712593802,None,967.0711712593802,None,967.0711712593802,None,967.0711712593802,None,967.0711712593802,None,3,967.0711712593802,None,969.788824337651,None,969.788824337651,None,969.788824337651,None,969.788824337651,None,969.788824337651,None,969.788824337651,None,969.788824337651,None,973.7903740153306,None,973.7903740153306,None,973.7903740153306,None,973.7903740153306,None,973.7903740153306,None,973.7903740153306,None,973.7903740153306,None,974.7740603219136,None,2.684595314298349,,,,,,,,,,,,,,,,,,,,,,,,,,,,,,,24259,2020_Jan_21_1528,Mmi_3levels,3.1.5,60.0695424194711,
,,,3,1,8.1,,,,,,,,,0,2,2,2,0,7,7,2,,,,,,,,,,,,,,,,,,,,,,,,,,,,,,,,,,,,,,,,,,,,,,,,,,,,,,,,,,,True,True,False,0.44,-0.56,-4.430000000000001,12.270000000000001,8.1,-4.170000000000002,1.964999999999999,gamble,win,8.1,153.03208333333336,976.7914929958897,None,976.7914929958897,None,976.7914929958897,None,976.7914929958897,None,976.7914929958897,None,976.7914929958897,None,976.7914929958897,None,None,976.7914929958897,None,979.7759619808967,None,979.7759619808967,None,979.7759619808967,None,979.7759619808967,None,979.7759619808967,None,979.7759619808967,None,979.7759619808967,None,983.7774994992251,None,983.7774994992251,None,983.7774994992251,None,983.7774994992251,None,983.7774994992251,None,983.7774994992251,None,983.7774994992251,None,993.2811143472027,None,,984.777870679507,None,985.7782604188033,None,0.42,7.502742894295807,988.77938099928,None,None,988.77938099928,None,,,,,,,,,,,,,,,,,,,,24259,2020_Jan_21_1528,Mmi_3levels,3.1.5,60.0695424194711,
,,,3,1,4.7,,,,,,,,,0,2,2,2,0,8,8,10,,,,,,,,,,,,,,,,,,,,,,,,,,,,,,,,,,,,,,,,,,,,,,,,,,,,,,,,,,,True,False,False,0.42,-0.5800000000000001,-5.010000000000001,-2.4475000000000002,4.7,2.2525,1.12625,gamble,lose,2.2525,155.28458333333336,995.298554060806,None,995.298554060806,None,995.298554060806,None,995.298554060806,None,995.298554060806,None,995.298554060806,None,995.298554060806,None,1,995.298554060806,None,996.3323247469089,None,996.3323247469089,None,996.3323247469089,None,996.3323247469089,None,996.3323247469089,None,996.3323247469089,None,996.3323247469089,None,1000.3171425133878,None,1000.3171425133878,None,1000.3171425133878,None,1000.3171425133878,None,1000.3171425133878,None,1000.3171425133878,None,1000.3171425133878,None,1001.3175149736016,None,1.0006908433024364,,,,,,,,,,,,,,,,,,,,,,,,,,,,,,,24259,2020_Jan_21_1528,Mmi_3levels,3.1.5,60.0695424194711,
,,,3,1,7.5,,,,,,,,,0,2,2,2,0,9,9,24,,,,,,,,,,,,,,,,,,,,,,,,,,,,,,,,,,,,,,,,,,,,,,,,,,,,,,,,,,,True,True,False,0.42,-0.5800000000000001,-5.590000000000001,13.71,7.5,-6.210000000000001,0.6449999999999996,certain,certain,0.6449999999999996,155.92958333333337,1003.3349902053196,None,1003.3349902053196,None,1003.3349902053196,None,1003.3349902053196,None,1003.3349902053196,None,1003.3349902053196,None,1003.3349902053196,None,3,1003.3349902053196,None,1005.3357114470055,None,1005.3357114470055,None,1005.3357114470055,None,1005.3357114470055,None,1005.3357114470055,None,1005.3357114470055,None,1005.3357114470055,None,1009.3372544050435,None,1009.3372544050435,None,1009.3372544050435,None,1009.3372544050435,None,1009.3372544050435,None,1009.3372544050435,None,1009.3372544050435,None,1010.3209599106085,None,1.9678321087594668,,,,,,,,,,,,,,,,,,,,,,,,,,,,,,,24259,2020_Jan_21_1528,Mmi_3levels,3.1.5,60.0695424194711,
,,,3,1,5.1,,,,,,,,,0,2,2,2,0,10,10,13,,,,,,,,,,,,,,,,,,,,,,,,,,,,,,,,,,,,,,,,,,,,,,,,,,,,,,,,,,,True,True,False,0.42,-0.5800000000000001,-6.170000000000001,14.290000000000003,5.1,-9.190000000000003,-2.0450000000000017,gamble,win,5.1,161.02958333333336,1012.3383589863697,None,1012.3383589863697,None,1012.3383589863697,None,1012.3383589863697,None,1012.3383589863697,None,1012.3383589863697,None,1012.3383589863697,None,None,1012.3383589863697,None,1015.3395762017099,None,1015.3395762017099,None,1015.3395762017099,None,1015.3395762017099,None,1015.3395762017099,None,1015.3395762017099,None,1015.3395762017099,None,1019.3243827687838,None,1019.3243827687838,None,1019.3243827687838,None,1019.3243827687838,None,1019.3243827687838,None,1019.3243827687838,None,1019.3243827687838,None,1028.8280126559657,None,,1020.3247619486428,None,1021.3251388886201,None,0.46,7.502780972274195,1024.3262767481756,None,None,1024.3262767481756,None,,,,,,,,,,,,,,,,,,,,24259,2020_Jan_21_1528,Mmi_3levels,3.1.5,60.0695424194711,
,,,3,1,11.1,,,,,,,,,0,2,2,2,0,11,11,3,,,,,,,,,,,,,,,,,,,,,,,,,,,,,,,,,,,,,,,,,,,,,,,,,,,,,,,,,,,True,False,True,0.46,-0.54,-6.710000000000001,-2.4491666666666667,11.1,8.650833333333333,4.3254166666666665,gamble,lose,8.650833333333333,169.6804166666667,1030.8454450099598,None,1030.8454450099598,None,1030.8454450099598,None,1030.8454450099598,None,1030.8454450099598,None,1030.8454450099598,None,1030.8454450099598,None,1,1030.8454450099598,None,1032.2126296651113,None,1032.2126296651113,None,1032.2126296651113,None,1032.2126296651113,None,1032.2126296651113,None,1032.2126296651113,None,1032.2126296651113,None,1036.1974880694324,None,1036.1974880694324,None,1036.1974880694324,None,1036.1974880694324,None,1036.1974880694324,None,1036.1974880694324,None,1036.1974880694324,None,1037.1978656493739,None,1.3340756938996492,,,,,,,,,,,,,,,,,,,,,,,,,,,,,,,24259,2020_Jan_21_1528,Mmi_3levels,3.1.5,60.0695424194711,
,,,3,1,7.1,,,,,,,,,0,2,2,2,0,12,12,20,,,,,,,,,,,,,,,,,,,,,,,,,,,,,,,,,,,,,,,,,,,,,,,,,,,,,,,,,,,True,True,False,0.46,-0.54,-7.250000000000001,14.810000000000002,7.1,-7.710000000000003,-0.3050000000000015,certain,certain,-0.3050000000000015,169.3754166666667,1039.2152999232676,None,1039.2152999232676,None,1039.2152999232676,None,1039.2152999232676,None,1039.2152999232676,None,1039.2152999232676,None,1039.2152999232676,None,3,1039.2152999232676,None,1040.9826406021311,None,1040.9826406021311,None,1040.9826406021311,None,1040.9826406021311,None,1040.9826406021311,None,1040.9826406021311,None,1040.9826406021311,None,1044.9841678810008,None,1044.9841678810008,None,1044.9841678810008,None,1044.9841678810008,None,1044.9841678810008,None,1044.9841678810008,None,1044.9841678810008,None,1054.471122493971,None,1.7342633959306113,1045.9678778663256,None,1046.9682583261165,None,0.42,7.502910565392085,1049.9693801865214,None,None,1049.9693801865214,None,,,,,,,,,,,,,,,,,,,,24259,2020_Jan_21_1528,Mmi_3levels,3.1.5,60.0695424194711,
,,,3,1,-0.1,,,,,,,,,0,2,2,2,0,13,13,26,,,,,,,,,,,,,,,,,,,,,,,,,,,,,,,,,,,,,,,,,,,,,,,,,,,,,,,,,,,True,False,True,0.42,-0.5800000000000001,-7.830000000000001,-2.6825,-0.1,-2.7825,-1.4412500000000001,gamble,lose,-2.7825,166.5929166666667,1056.4886063652266,None,1056.4886063652266,None,1056.4886063652266,None,1056.4886063652266,None,1056.4886063652266,None,1056.4886063652266,None,1056.4886063652266,None,1,1056.4886063652266,None,1058.5059942415828,None,1058.5059942415828,None,1058.5059942415828,None,1058.5059942415828,None,1058.5059942415828,None,1058.5059942415828,None,1058.5059942415828,None,1062.5075743176494,None,1062.5075743176494,None,1062.5075743176494,None,1062.5075743176494,None,1062.5075743176494,None,1062.5075743176494,None,1062.5075743176494,None,1063.4912267060354,None,1.984297794100712,,,,,,,,,,,,,,,,,,,,,,,,,,,,,,,24259,2020_Jan_21_1528,Mmi_3levels,3.1.5,60.0695424194711,
,,,3,1,6.9,,,,,,,,,0,2,2,2,0,14,14,17,,,,,,,,,,,,,,,,,,,,,,,,,,,,,,,,,,,,,,,,,,,,,,,,,,,,,,,,,,,True,True,True,0.42,-0.5800000000000001,-8.41,16.53,6.9,-9.63,-1.3650000000000002,certain,certain,-1.3650000000000002,165.2279166666667,1065.5087544149646,None,1065.5087544149646,None,1065.5087544149646,None,1065.5087544149646,None,1065.5087544149646,None,1065.5087544149646,None,1065.5087544149646,None,3,1065.5087544149646,None,1067.2260007948353,None,1067.2260007948353,None,1067.2260007948353,None,1067.2260007948353,None,1067.2260007948353,None,1067.2260007948353,None,1067.2260007948353,None,1071.2275104746404,None,1071.2275104746404,None,1071.2275104746404,None,1071.2275104746404,None,1071.2275104746404,None,1071.2275104746404,None,1071.2275104746404,None,1072.211221099933,None,1.6841268591815606,,,,,,,,,,,,,,,,,,,,,,,,,,,,,,,24259,2020_Jan_21_1528,Mmi_3levels,3.1.5,60.0695424194711,
,,,3,1,4.3,,,,,,,,,0,2,2,2,0,15,15,14,,,,,,,,,,,,,,,,,,,,,,,,,,,,,,,,,,,,,,,,,,,,,,,,,,,,,,,,,,,True,False,True,0.42,-0.5800000000000001,-8.99,-2.779166666666667,4.3,1.520833333333333,0.7604166666666665,gamble,lose,1.520833333333333,166.74875000000003,1074.228653453927,None,1074.228653453927,None,1074.228653453927,None,1074.228653453927,None,1074.228653453927,None,1074.228653453927,None,1074.228653453927,None,1,1074.228653453927,None,1075.8293095470763,None,1075.8293095470763,None,1075.8293095470763,None,1075.8293095470763,None,1075.8293095470763,None,1075.8293095470763,None,1075.8293095470763,None,1079.8141148342183,None,1079.8141148342183,None,1079.8141148342183,None,1079.8141148342183,None,1079.8141148342183,None,1079.8141148342183,None,1079.8141148342183,None,1089.3177405616188,None,1.5675330526464677,1080.8145016936687,None,1081.8148866332194,None,0.44,7.5027905717652175,1084.8160145733054,None,None,1084.8160145733054,None,,,,,,,,,,,,,,,,,,,,24259,2020_Jan_21_1528,Mmi_3levels,3.1.5,60.0695424194711,
,,,3,1,10.1,,,,,,,,,0,2,2,2,0,16,16,12,,,,,,,,,,,,,,,,,,,,,,,,,,,,,,,,,,,,,,,,,,,,,,,,,,,,,,,,,,,True,True,False,0.44,-0.56,-9.55,17.39,10.1,-7.290000000000001,1.4049999999999994,certain,certain,1.4049999999999994,168.15375000000003,1091.335271470376,None,1091.335271470376,None,1091.335271470376,None,1091.335271470376,None,1091.335271470376,None,1091.335271470376,None,1091.335271470376,None,3,1091.335271470376,None,1092.7690641073132,None,1092.7690641073132,None,1092.7690641073132,None,1092.7690641073132,None,1092.7690641073132,None,1092.7690641073132,None,1092.7690641073132,None,1096.753958349731,None,1096.753958349731,None,1096.753958349731,None,1096.753958349731,None,1096.753958349731,None,1096.753958349731,None,1096.753958349731,None,1097.7542965717657,None,1.400698714885948,,,,,,,,,,,,,,,,,,,,,,,,,,,,,,,24259,2020_Jan_21_1528,Mmi_3levels,3.1.5,60.0695424194711,
,,,3,1,2.1,,,,,,,,,0,2,2,2,0,17,17,19,,,,,,,,,,,,,,,,,,,,,,,,,,,,,,,,,,,,,,,,,,,,,,,,,,,,,,,,,,,True,True,True,0.44,-0.56,-10.110000000000001,17.950000000000003,2.1,-15.850000000000003,-6.875000000000002,gamble,win,2.1,170.25375000000003,1099.7717330855376,None,1099.7717330855376,None,1099.7717330855376,None,1099.7717330855376,None,1099.7717330855376,None,1099.7717330855376,None,1099.7717330855376,None,None,1099.7717330855376,None,1102.7728767047884,None,1102.7728767047884,None,1102.7728767047884,None,1102.7728767047884,None,1102.7728767047884,None,1102.7728767047884,None,1102.7728767047884,None,1106.7743966240487,None,1106.7743966240487,None,1106.7743966240487,None,1106.7743966240487,None,1106.7743966240487,None,1106.7743966240487,None,1106.7743966240487,None,1116.261349637105,None,,1107.7581152489147,None,1108.7584880291142,None,0.44,7.502782572191791,1111.759621728892,None,None,1111.759621728892,None,,,,,,,,,,,,,,,,,,,,24259,2020_Jan_21_1528,Mmi_3levels,3.1.5,60.0695424194711,
,,,3,1,-1.1,,,,,,,,,0,2,2,2,0,18,18,8,,,,,,,,,,,,,,,,,,,,,,,,,,,,,,,,,,,,,,,,,,,,,,,,,,,,,,,,,,,True,True,True,0.44,-0.56,-10.670000000000002,18.51,-1.1,-19.610000000000003,-10.355000000000002,certain,certain,-10.355000000000002,159.89875000000004,1118.2787903106582,None,1118.2787903106582,None,1118.2787903106582,None,1118.2787903106582,None,1118.2787903106582,None,1118.2787903106582,None,1118.2787903106582,None,3,1118.2787903106582,None,1120.0628033838839,None,1120.0628033838839,None,1120.0628033838839,None,1120.0628033838839,None,1120.0628033838839,None,1120.0628033838839,None,1120.0628033838839,None,1124.0643293828216,None,1124.0643293828216,None,1124.0643293828216,None,1124.0643293828216,None,1124.0643293828216,None,1124.0643293828216,None,1124.0643293828216,None,1125.0481276834544,None,1.7510890621488215,,,,,,,,,,,,,,,,,,,,,,,,,,,,,,,24259,2020_Jan_21_1528,Mmi_3levels,3.1.5,60.0695424194711,
,,,3,1,1.9,,,,,,,,,0,2,2,2,0,19,19,16,,,,,,,,,,,,,,,,,,,,,,,,,,,,,,,,,,,,,,,,,,,,,,,,,,,,,,,,,,,True,True,True,0.44,-0.56,-11.230000000000002,19.070000000000004,1.9,-17.170000000000005,-7.6350000000000025,gamble,win,1.9,161.79875000000004,1127.0654739620222,None,1127.0654739620222,None,1127.0654739620222,None,1127.0654739620222,None,1127.0654739620222,None,1127.0654739620222,None,1127.0654739620222,None,None,1127.0654739620222,None,1130.0666422199647,None,1130.0666422199647,None,1130.0666422199647,None,1130.0666422199647,None,1130.0666422199647,None,1130.0666422199647,None,1130.0666422199647,None,1134.0682354153323,None,1134.0682354153323,None,1134.0682354153323,None,1134.0682354153323,None,1134.0682354153323,None,1134.0682354153323,None,1134.0682354153323,None,1143.5551177121451,None,,1135.051856445385,None,1136.0522314654627,None,0.39,7.50274609412736,1139.053359085563,None,None,1139.053359085563,None,,,,,,,,,,,,,,,,,,,,24259,2020_Jan_21_1528,Mmi_3levels,3.1.5,60.0695424194711,
,,,3,1,10.9,,,,,,,,,0,2,2,2,0,20,20,11,,,,,,,,,,,,,,,,,,,,,,,,,,,,,,,,,,,,,,,,,,,,,,,,,,,,,,,,,,,True,True,True,0.39,-0.61,-11.840000000000002,20.380000000000003,10.9,-9.480000000000002,0.7099999999999991,certain,certain,0.7099999999999991,162.50875000000005,1145.5725324670748,None,1145.5725324670748,None,1145.5725324670748,None,1145.5725324670748,None,1145.5725324670748,None,1145.5725324670748,None,1145.5725324670748,None,3,1145.5725324670748,None,1147.423300074297,None,1147.423300074297,None,1147.423300074297,None,1147.423300074297,None,1147.423300074297,None,1147.423300074297,None,1147.423300074297,None,1151.4247607967045,None,1151.4247607967045,None,1151.4247607967045,None,1151.4247607967045,None,1151.4247607967045,None,1151.4247607967045,None,1151.4247607967045,None,1152.4085085400257,None,1.8175975292178919,,,,,,,,,,,,,,,,,,,,,,,,,,,,,,,24259,2020_Jan_21_1528,Mmi_3levels,3.1.5,60.0695424194711,
,,,3,1,10.7,,,,,,,,,0,2,2,2,0,21,21,15,,,,,,,,,,,,,,,,,,,,,,,,,,,,,,,,,,,,,,,,,,,,,,,,,,,,,,,,,,,True,True,False,0.39,-0.61,-12.450000000000001,20.990000000000002,10.7,-10.290000000000003,0.2049999999999983,certain,certain,0.2049999999999983,162.71375000000006,1154.4259108156148,None,1154.4259108156148,None,1154.4259108156148,None,1154.4259108156148,None,1154.4259108156148,None,1154.4259108156148,None,1154.4259108156148,None,3,1154.4259108156148,None,1156.1266051147359,None,1156.1266051147359,None,1156.1266051147359,None,1156.1266051147359,None,1156.1266051147359,None,1156.1266051147359,None,1156.1266051147359,None,1160.1280866360357,None,1160.1280866360357,None,1160.1280866360357,None,1160.1280866360357,None,1160.1280866360357,None,1160.1280866360357,None,1160.1280866360357,None,1161.111789901719,None,1.6675488598048105,,,,,,,,,,,,,,,,,,,,,,,,,,,,,,,24259,2020_Jan_21_1528,Mmi_3levels,3.1.5,60.0695424194711,
,,,3,1,2.9,,,,,,,,,0,2,2,2,0,22,22,0,,,,,,,,,,,,,,,,,,,,,,,,,,,,,,,,,,,,,,,,,,,,,,,,,,,,,,,,,,,True,True,True,0.39,-0.61,-13.06,21.6,2.9,-18.700000000000003,-7.900000000000001,gamble,win,2.9,165.61375000000007,1163.129226735473,None,1163.129226735473,None,1163.129226735473,None,1163.129226735473,None,1163.129226735473,None,1163.129226735473,None,1163.129226735473,None,None,1163.129226735473,None,1166.1303940334656,None,1166.1303940334656,None,1166.1303940334656,None,1166.1303940334656,None,1166.1303940334656,None,1166.1303940334656,None,1166.1303940334656,None,1170.1318966736471,None,1170.1318966736471,None,1170.1318966736471,None,1170.1318966736471,None,1170.1318966736471,None,1170.1318966736471,None,1170.1318966736471,None,1179.6188522465673,None,,1171.1156287377999,None,1172.1160351162143,None,0.44,7.5029211248292995,1175.1171249783183,None,None,1175.1171249783183,None,,,,,,,,,,,,,,,,,,,,24259,2020_Jan_21_1528,Mmi_3levels,3.1.5,60.0695424194711,
,,,3,1,5.3,,,,,,,,,0,2,2,2,0,23,23,7,,,,,,,,,,,,,,,,,,,,,,,,,,,,,,,,,,,,,,,,,,,,,,,,,,,,,,,,,,,True,True,True,0.44,-0.56,-13.620000000000001,21.46,5.3,-16.16,-5.43,certain,certain,-5.43,160.18375000000006,1181.636309239253,None,1181.636309239253,None,1181.636309239253,None,1181.636309239253,None,1181.636309239253,None,1181.636309239253,None,1181.636309239253,None,3,1181.636309239253,None,1183.753794198452,None,1183.753794198452,None,1183.753794198452,None,1183.753794198452,None,1183.753794198452,None,1183.753794198452,None,1183.753794198452,None,1187.755283079361,None,1187.755283079361,None,1187.755283079361,None,1187.755283079361,None,1187.755283079361,None,1187.755283079361,None,1187.755283079361,None,1188.7389975444494,None,2.08438591742015,,,,,,,,,,,,,,,,,,,,,,,,,,,,,,,24259,2020_Jan_21_1528,Mmi_3levels,3.1.5,60.0695424194711,
,,,3,1,9.5,,,,,,,,,0,2,2,2,0,24,24,25,,,,,,,,,,,,,,,,,,,,,,,,,,,,,,,,,,,,,,,,,,,,,,,,,,,,,,,,,,,True,True,True,0.44,-0.56,-14.180000000000001,22.020000000000003,9.5,-12.520000000000003,-1.5100000000000016,certain,certain,-1.5100000000000016,158.67375000000007,1190.7564311783754,None,1190.7564311783754,None,1190.7564311783754,None,1190.7564311783754,None,1190.7564311783754,None,1190.7564311783754,None,1190.7564311783754,None,3,1190.7564311783754,None,1192.7238572287024,None,1192.7238572287024,None,1192.7238572287024,None,1192.7238572287024,None,1192.7238572287024,None,1192.7238572287024,None,1192.7238572287024,None,1196.725372668203,None,1196.725372668203,None,1196.725372668203,None,1196.725372668203,None,1196.725372668203,None,1196.725372668203,None,1196.725372668203,None,1206.212328561105,None,1.9343222088064067,1197.7090935329506,None,1198.709459593505,None,0.42,7.502784492087812,1201.7105920133508,None,None,1201.7105920133508,None,,,,,,,,,,,,,,,,,,,,24259,2020_Jan_21_1528,Mmi_3levels,3.1.5,60.0695424194711,
,,,3,1,0.3,,,,,,,,,0,2,2,2,0,25,25,6,,,,,,,,,,,,,,,,,,,,,,,,,,,,,,,,,,,,,,,,,,,,,,,,,,,,,,,,,,,True,False,False,0.42,-0.5800000000000001,-14.760000000000002,-3.2600000000000007,0.3,-2.960000000000001,-1.3300000000000005,gamble,lose,-2.960000000000001,155.71375000000006,1208.2297609150992,None,1208.2297609150992,None,1208.2297609150992,None,1208.2297609150992,None,1208.2297609150992,None,1208.2297609150992,None,1208.2297609150992,None,1,1208.2297609150992,None,1211.0975247394854,None,1211.0975247394854,None,1211.0975247394854,None,1211.0975247394854,None,1211.0975247394854,None,1211.0975247394854,None,1211.0975247394854,None,1215.0990539382547,None,1215.0990539382547,None,1215.0990539382547,None,1215.0990539382547,None,1215.0990539382547,None,1215.0990539382547,None,1215.0990539382547,None,1216.08275752392,None,2.8346635026755393,,,,,,,,,,,,,,,,,,,,,,,,,,,,,,,24259,2020_Jan_21_1528,Mmi_3levels,3.1.5,60.0695424194711,
,,,3,1,7.9,,,,,,,,,0,2,2,2,0,26,26,23,,,,,,,,,,,,,,,,,,,,,,,,,,,,,,,,,,,,,,,,,,,,,,,,,,,,,,,,,,,True,True,False,0.42,-0.5800000000000001,-15.340000000000002,23.46,7.9,-15.56,-3.83,certain,certain,-3.83,151.88375000000005,1218.1002519546128,None,1218.1002519546128,None,1218.1002519546128,None,1218.1002519546128,None,1218.1002519546128,None,1218.1002519546128,None,1218.1002519546128,None,3,1218.1002519546128,None,1220.017588185714,None,1220.017588185714,None,1220.017588185714,None,1220.017588185714,None,1220.017588185714,None,1220.017588185714,None,1220.017588185714,None,1224.0191628220673,None,1224.0191628220673,None,1224.0191628220673,None,1224.0191628220673,None,1224.0191628220673,None,1224.0191628220673,None,1224.0191628220673,None,1233.5060662377582,None,1.8840797576813202,1225.002827049826,None,1226.003206229685,None,0.41,7.5027707328190445,1229.0043546486777,None,None,1229.0043546486777,None,,,,,,,,,,,,,,,,,,,,24259,2020_Jan_21_1528,Mmi_3levels,3.1.5,60.0695424194711,
,,,,,,,,,,,,,,,,,,,,,,,,,,,,,,0,0,0,0,,,,,,,,,,,,,,,,,,,,,,,,,,,,,,,,,,,,,,,,,,,,,,,,,,,,,,,,,,,,,,,,,,,,,,,,,,,,,,,,,,,,,,,,,,,,,,,,,,,,,,,,,,,,,,,,,,,,,,,,1235.5068306771536,None,4,7.636442992145021,1235.5068306771536,None,,151.88375000000005,4,1243.1764261482422,None,1243.1764261482422,None,1243.1764261482422,None,4,4.0350842163243215,1243.1764261482422,None,24259,2020_Jan_21_1528,Mmi_3levels,3.1.5,60.0695424194711,
