currSlide,currImage,currText,blockNum,targetHappiness,highAmount,instructionLoop1.thisRepN,instructionLoop1.thisTrialN,instructionLoop1.thisN,instructionLoop1.thisIndex,instructionLoop2.thisRepN,instructionLoop2.thisTrialN,instructionLoop2.thisN,instructionLoop2.thisIndex,blockLoop.thisRepN,blockLoop.thisTrialN,blockLoop.thisN,blockLoop.thisIndex,trialLoop.thisRepN,trialLoop.thisTrialN,trialLoop.thisN,trialLoop.thisIndex,doRatingLoop.thisRepN,doRatingLoop.thisTrialN,doRatingLoop.thisN,doRatingLoop.thisIndex,trialHappyLoop.thisRepN,trialHappyLoop.thisTrialN,trialHappyLoop.thisN,trialHappyLoop.thisIndex,logWinningsLoop.thisRepN,logWinningsLoop.thisTrialN,logWinningsLoop.thisN,logWinningsLoop.thisIndex,instrImage.started,instrImage.stopped,instrText.started,instrText.stopped,instrContinueText.started,instrContinueText.stopped,instrKeyResp.keys,instrKeyResp.rt,instrKeyResp.started,instrKeyResp.stopped,lifeHappyText.started,lifeHappyText.stopped,lifeHappySlider.response,lifeHappySlider.rt,lifeHappySlider.started,lifeHappySlider.stopped,lifeHappyResp.keys,lifeHappyResp.rt,lifeHappyResp.started,lifeHappyResp.stopped,instrImage_2.started,instrImage_2.stopped,instrText_2.started,instrText_2.stopped,instrContinueText_2.started,instrContinueText_2.stopped,instrKeyResp_2.keys,instrKeyResp_2.rt,instrKeyResp_2.started,instrKeyResp_2.stopped,localizing.started,localizing.stopped,start_exp.keys,start_exp.rt,start_exp.started,start_exp.stopped,blockHappyText.started,blockHappyText.stopped,blockHappySlider.response,blockHappySlider.rt,blockHappySlider.started,blockHappySlider.stopped,blockHappyResp.keys,blockHappyResp.rt,blockHappyResp.started,blockHappyResp.stopped,blankText.started,blankText.stopped,isHappyBlock,isCongruent,isWinOnTop,lastHappyRating,diff,sumDiff,RPE,winAmount,loseAmount,certainAmount,choice,outcome,outcomeAmount,currentWinnings,fixCross.started,fixCross.stopped,certainBox.started,certainBox.stopped,outcome1Box.started,outcome1Box.stopped,outcome2Box.started,outcome2Box.stopped,certainText.started,certainText.stopped,outcome1Text.started,outcome1Text.stopped,outcome2Text.started,outcome2Text.stopped,choiceKey.keys,choiceKey.started,choiceKey.stopped,fixCross_2.started,fixCross_2.stopped,certainBox_2.started,certainBox_2.stopped,outcome1Box_2.started,outcome1Box_2.stopped,outcome2Box_2.started,outcome2Box_2.stopped,certainText_2.started,certainText_2.stopped,outcome1Text_2.started,outcome1Text_2.stopped,outcome2Text_2.started,outcome2Text_2.stopped,fixCross_3.started,fixCross_3.stopped,certainBox_3.started,certainBox_3.stopped,outcome1Box_3.started,outcome1Box_3.stopped,outcome2Box_3.started,outcome2Box_3.stopped,certainText_3.started,certainText_3.stopped,outcome1Text_3.started,outcome1Text_3.stopped,outcome2Text_3.started,outcome2Text_3.stopped,fixCross_ITI.started,fixCross_ITI.stopped,choiceKey.rt,fixCross_ISI.started,fixCross_ISI.stopped,happyText.started,happyText.stopped,happySlider.response,happySlider.rt,happySlider.started,happySlider.stopped,happyResp.keys,happyResp.started,happyResp.stopped,endOfBlockText.started,endOfBlockText.stopped,restKeyResp.keys,restKeyResp.rt,restKeyResp.started,restKeyResp.stopped,finalWinnings,cashBonus,goodbyeText.started,goodbyeText.stopped,finalWinningsText.started,finalWinningsText.stopped,spaceToContinue.started,spaceToContinue.stopped,goodbyeKeyResp_2.keys,goodbyeKeyResp_2.rt,goodbyeKeyResp_2.started,goodbyeKeyResp_2.stopped,participant,date,expName,psychopyVersion,frameRate,
1,black.png,"Welcome! You are about to play our gambling task.
This task has 3 blocks and takes about 15 minutes.",,,,0,0,0,0,,,,,,,,,,,,,,,,,,,,,,,,,10.500004479778,None,10.500004479778,None,10.500004479778,None,4,5.3856409547152,10.500004479778,None,,,,,,,,,,,,,,,,,,,,,,,,,,,,,,,,,,,,,,,,,,,,,,,,,,,,,,,,,,,,,,,,,,,,,,,,,,,,,,,,,,,,,,,,,,,,,,,,,,,,,,,,,,,,,,,,,,,,,,,,,,,,,,,,,,23911,2019_Sep_26_1612,Mmi_3levels,3.1.5,59.99136169494579,
2,black.png,"In this game, you may win or lose points. Your goal is to get as many points as possible. These points will be converted to a cash bonus at the end.
Sometimes we will ask you to rate your mood.",,,,0,1,1,1,,,,,,,,,,,,,,,,,,,,,,,,,15.935435749706812,None,15.935435749706812,None,15.935435749706812,None,4,6.085888237576,15.935435749706812,None,,,,,,,,,,,,,,,,,,,,,,,,,,,,,,,,,,,,,,,,,,,,,,,,,,,,,,,,,,,,,,,,,,,,,,,,,,,,,,,,,,,,,,,,,,,,,,,,,,,,,,,,,,,,,,,,,,,,,,,,,,,,,,,,,,23911,2019_Sep_26_1612,Mmi_3levels,3.1.5,59.99136169494579,
3,black.png,"On the next screen, please rate how you feel about your life these days. Use the LEFT (green) and RIGHT (blue) buttons to move the slider (you can press and hold them to slide gradually) and the TOP (red) button to lock in your response.
Make your rating as accurately and quickly as you can!",,,,0,2,2,2,,,,,,,,,,,,,,,,,,,,,,,,,22.071083583985455,None,22.071083583985455,None,22.071083583985455,None,4,12.821834104252048,22.071083583985455,None,,,,,,,,,,,,,,,,,,,,,,,,,,,,,,,,,,,,,,,,,,,,,,,,,,,,,,,,,,,,,,,,,,,,,,,,,,,,,,,,,,,,,,,,,,,,,,,,,,,,,,,,,,,,,,,,,,,,,,,,,,,,,,,,,,23911,2019_Sep_26_1612,Mmi_3levels,3.1.5,59.99136169494579,
,,,,,,,,,,,,,,,,,,,,,,,,,,,,,,,,,,,,,,,,,,,,34.909358734847046,None,1.0,7.0017570266500115,38.910890493541956,None,4,2.9846888133324683,38.910890493541956,None,,,,,,,,,,,,,,,,,,,,,,,,,,,,,,,,,,,,,,,,,,,,,,,,,,,,,,,,,,,,,,,,,,,,,,,,,,,,,,,,,,,,,,,,,,,,,,,,,,,,,,,,,,,,,,,,,,,,,,,,23911,2019_Sep_26_1612,Mmi_3levels,3.1.5,59.99136169494579,
4,black.png,"In this game you can win money by earning points according to your choices. You will decide whether to gamble a number of points or stick with a guaranteed number of points. 
Make your choice by pressing the left or right arrow key once. An example of one trial is shown on the next screen.",,,,,,,,0,0,0,0,,,,,,,,,,,,,,,,,,,,,,,,,,,,,,,,,,,,,,,,,41.94537762156688,None,41.94537762156688,None,41.94537762156688,None,4,12.054862045799382,41.94537762156688,None,,,,,,,,,,,,,,,,,,,,,,,,,,,,,,,,,,,,,,,,,,,,,,,,,,,,,,,,,,,,,,,,,,,,,,,,,,,,,,,,,,,,,,,,,,,,,,,,,,,,,,,,,,,,,,23911,2019_Sep_26_1612,Mmi_3levels,3.1.5,59.99136169494579,
5,example_start.png,"The GAMBLING OPTION will be shown on the RIGHT SIDE. 
Select this option using the RIGHT (blue) button on your keypad.",,,,,,,,0,1,1,1,,,,,,,,,,,,,,,,,,,,,,,,,,,,,,,,,,,,,,,,,54.066643499885686,None,54.066643499885686,None,54.066643499885686,None,4,11.90475449943915,54.066643499885686,None,,,,,,,,,,,,,,,,,,,,,,,,,,,,,,,,,,,,,,,,,,,,,,,,,,,,,,,,,,,,,,,,,,,,,,,,,,,,,,,,,,,,,,,,,,,,,,,,,,,,,,,,,,,,,,23911,2019_Sep_26_1612,Mmi_3levels,3.1.5,59.99136169494579,
6,example_gamble.png,"Once you select the gambling choice, the choice you made will remain on the screen.",,,,,,,,0,2,2,2,,,,,,,,,,,,,,,,,,,,,,,,,,,,,,,,,,,,,,,,,66.00457287707832,None,66.00457287707832,None,66.00457287707832,None,4,2.2511127408361062,66.00457287707832,None,,,,,,,,,,,,,,,,,,,,,,,,,,,,,,,,,,,,,,,,,,,,,,,,,,,,,,,,,,,,,,,,,,,,,,,,,,,,,,,,,,,,,,,,,,,,,,,,,,,,,,,,,,,,,,23911,2019_Sep_26_1612,Mmi_3levels,3.1.5,59.99136169494579,
7,example_win.png,"The outcome you received will then be shown on the screen. In this example , you WON 10 points.",,,,,,,,0,3,3,3,,,,,,,,,,,,,,,,,,,,,,,,,,,,,,,,,,,,,,,,,68.2887465817621,None,68.2887465817621,None,68.2887465817621,None,4,3.2348121667746454,68.2887465817621,None,,,,,,,,,,,,,,,,,,,,,,,,,,,,,,,,,,,,,,,,,,,,,,,,,,,,,,,,,,,,,,,,,,,,,,,,,,,,,,,,,,,,,,,,,,,,,,,,,,,,,,,,,,,,,,23911,2019_Sep_26_1612,Mmi_3levels,3.1.5,59.99136169494579,
8,example_start.png,"The GUARANTEED OPTION will be shown on the LEFT SIDE. You are 100% guaranteed to gain or lose this amount. In this example, you have a 100% chance of winning 1 point. Select this option using the LEFT (green) button on your keyboard.",,,,,,,,0,4,4,4,,,,,,,,,,,,,,,,,,,,,,,,,,,,,,,,,,,,,,,,,71.57334042410366,None,71.57334042410366,None,71.57334042410366,None,4,7.97003263188526,71.57334042410366,None,,,,,,,,,,,,,,,,,,,,,,,,,,,,,,,,,,,,,,,,,,,,,,,,,,,,,,,,,,,,,,,,,,,,,,,,,,,,,,,,,,,,,,,,,,,,,,,,,,,,,,,,,,,,,,23911,2019_Sep_26_1612,Mmi_3levels,3.1.5,59.99136169494579,
9,example_certain.png,"Once you select the guaranteed choice, your selection will remain on the screen.",,,,,,,,0,5,5,5,,,,,,,,,,,,,,,,,,,,,,,,,,,,,,,,,,,,,,,,,79.57639018213376,None,79.57639018213376,None,79.57639018213376,None,4,0.8171889109071344,79.57639018213376,None,,,,,,,,,,,,,,,,,,,,,,,,,,,,,,,,,,,,,,,,,,,,,,,,,,,,,,,,,,,,,,,,,,,,,,,,,,,,,,,,,,,,,,,,,,,,,,,,,,,,,,,,,,,,,,23911,2019_Sep_26_1612,Mmi_3levels,3.1.5,59.99136169494579,
10,black.png,"Please make your choices as fast as possible.
You will be given a break at the end of each block.
Let's play!",,,,,,,,0,6,6,6,,,,,,,,,,,,,,,,,,,,,,,,,,,,,,,,,,,,,,,,,80.42672197252978,None,80.42672197252978,None,80.42672197252978,None,4,4.00179286475759,80.42672197252978,None,,,,,,,,,,,,,,,,,,,,,,,,,,,,,,,,,,,,,,,,,,,,,,,,,,,,,,,,,,,,,,,,,,,,,,,,,,,,,,,,,,,,,,,,,,,,,,,,,,,,,,,,,,,,,,23911,2019_Sep_26_1612,Mmi_3levels,3.1.5,59.99136169494579,
,,,,,,,,,,,,,,,,,,,,,,,,,,,,,,,,,,,,,,,,,,,,,,,,,,,,,,,,,,,,,,,,84.44493124529254,None,space,21.591828082106076,84.44493124529254,None,,,,,,,,,,,,,,,,,,,,,,,,,,,,,,,,,,,,,,,,,,,,,,,,,,,,,,,,,,,,,,,,,,,,,,,,,,,,,,,,,,,,,,,,,,,,,,,,,,,,,,,,23911,2019_Sep_26_1612,Mmi_3levels,3.1.5,59.99136169494579,
,,,1,1,2.5,,,,,,,,,0,0,0,0,0,0,0,21,,,,,,,,,,,,,,,,,,,,,,,,,,,,,,,,,,,,,,,,,,,,,,,,,106.05320101394318,None,0.79,4.8112829845631495,109.07105606549885,None,4,1.7842421811074018,109.07105606549885,None,110.87173737329431,None,True,True,False,0.79,-0.20999999999999996,-0.20999999999999996,3.1499999999999995,2.5,-0.6499999999999995,0.9250000000000003,gamble,win,2.5,2.5,113.90622738120146,None,113.90622738120146,None,113.90622738120146,None,113.90622738120146,None,113.90622738120146,None,113.90622738120146,None,113.90622738120146,None,None,113.90622738120146,None,116.90733932214789,None,116.90733932214789,None,116.90733932214789,None,116.90733932214789,None,116.90733932214789,None,116.90733932214789,None,116.90733932214789,None,120.89224380406085,None,120.89224380406085,None,120.89224380406085,None,120.89224380406085,None,120.89224380406085,None,120.89224380406085,None,120.89224380406085,None,121.89258170605171,None,,,,,,,,,,,,,,,,,,,,,,,,,,,,,,,23911,2019_Sep_26_1612,Mmi_3levels,3.1.5,59.99136169494579,
,,,1,1,0.9,,,,,,,,,0,0,0,0,0,1,1,8,,,,,,,,,,,,,,,,,,,,,,,,,,,,,,,,,,,,,,,,,,,,,,,,,,,,,,,,,,,,,True,True,False,0.79,-0.20999999999999996,-0.41999999999999993,3.3599999999999994,0.9,-2.4599999999999995,-0.7799999999999998,gamble,win,0.9,3.4,123.91002205957193,None,123.91002205957193,None,123.91002205957193,None,123.91002205957193,None,123.91002205957193,None,123.91002205957193,None,123.91002205957193,None,None,123.91002205957193,None,126.91120887652505,None,126.91120887652505,None,126.91120887652505,None,126.91120887652505,None,126.91120887652505,None,126.91120887652505,None,126.91120887652505,None,130.8960199233843,None,130.8960199233843,None,130.8960199233843,None,130.8960199233843,None,130.8960199233843,None,130.8960199233843,None,130.8960199233843,None,131.89640454296023,None,,,,,,,,,,,,,,,,,,,,,,,,,,,,,,,23911,2019_Sep_26_1612,Mmi_3levels,3.1.5,59.99136169494579,
,,,1,1,5.3,,,,,,,,,0,0,0,0,0,2,2,11,,,,,,,,,,,,,,,,,,,,,,,,,,,,,,,,,,,,,,,,,,,,,,,,,,,,,,,,,,,,,True,False,False,0.79,-0.20999999999999996,-0.6299999999999999,-0.7874999999999999,5.3,4.5125,2.25625,certain,certain,2.25625,5.65625,133.91383369709365,None,133.91383369709365,None,133.91383369709365,None,133.91383369709365,None,133.91383369709365,None,133.91383369709365,None,133.91383369709365,None,3,133.91383369709365,None,134.4640521495603,None,134.4640521495603,None,134.4640521495603,None,134.4640521495603,None,134.4640521495603,None,134.4640521495603,None,134.4640521495603,None,138.4489527916303,None,138.4489527916303,None,138.4489527916303,None,138.4489527916303,None,138.4489527916303,None,138.4489527916303,None,138.4489527916303,None,147.95258587866556,None,0.517120050615631,139.44933837116696,None,140.44971691106912,None,0.69,7.502759213442914,143.45086788991466,None,None,143.45086788991466,None,,,,,,,,,,,,,,,,,,,23911,2019_Sep_26_1612,Mmi_3levels,3.1.5,59.99136169494579,
,,,1,1,1.9,,,,,,,,,0,0,0,0,0,3,3,14,,,,,,,,,,,,,,,,,,,,,,,,,,,,,,,,,,,,,,,,,,,,,,,,,,,,,,,,,,,,,True,True,False,0.69,-0.31000000000000005,-0.94,5.280000000000001,1.9,-3.3800000000000012,-0.7400000000000007,gamble,win,1.9,7.55625,149.9699855943909,None,149.9699855943909,None,149.9699855943909,None,149.9699855943909,None,149.9699855943909,None,149.9699855943909,None,149.9699855943909,None,1,149.9699855943909,None,150.8869976826245,None,150.8869976826245,None,150.8869976826245,None,150.8869976826245,None,150.8869976826245,None,150.8869976826245,None,150.8869976826245,None,154.87188808526844,None,154.87188808526844,None,154.87188808526844,None,154.87188808526844,None,154.87188808526844,None,154.87188808526844,None,154.87188808526844,None,155.87227142497431,None,0.8839232859900221,,,,,,,,,,,,,,,,,,,,,,,,,,,,,,23911,2019_Sep_26_1612,Mmi_3levels,3.1.5,59.99136169494579,
,,,1,1,5.7,,,,,,,,,0,0,0,0,0,4,4,3,,,,,,,,,,,,,,,,,,,,,,,,,,,,,,,,,,,,,,,,,,,,,,,,,,,,,,,,,,,,,True,False,False,0.69,-0.31000000000000005,-1.25,-1.189166666666667,5.7,4.510833333333333,2.2554166666666666,gamble,lose,4.510833333333333,12.067083333333333,157.8896769003477,None,157.8896769003477,None,157.8896769003477,None,157.8896769003477,None,157.8896769003477,None,157.8896769003477,None,157.8896769003477,None,1,157.8896769003477,None,160.35732341895346,None,160.35732341895346,None,160.35732341895346,None,160.35732341895346,None,160.35732341895346,None,160.35732341895346,None,160.35732341895346,None,164.3421136669349,None,164.3421136669349,None,164.3421136669349,None,164.3421136669349,None,164.3421136669349,None,164.3421136669349,None,164.3421136669349,None,173.84579731128179,None,2.4345276379026473,165.342570602661,None,166.3428611472482,None,0.83,7.502817130298354,169.3441071610432,None,None,169.3441071610432,None,,,,,,,,,,,,,,,,,,,23911,2019_Sep_26_1612,Mmi_3levels,3.1.5,59.99136169494579,
,,,1,1,13.5,,,,,,,,,0,0,0,0,0,5,5,13,,,,,,,,,,,,,,,,,,,,,,,,,,,,,,,,,,,,,,,,,,,,,,,,,,,,,,,,,,,,,True,False,True,0.83,-0.17000000000000004,-1.42,-0.7133333333333335,13.5,12.786666666666667,6.3933333333333335,gamble,lose,12.786666666666667,24.853749999999998,175.8632149460027,None,175.8632149460027,None,175.8632149460027,None,175.8632149460027,None,175.8632149460027,None,175.8632149460027,None,175.8632149460027,None,1,175.8632149460027,None,177.48055239301175,None,177.48055239301175,None,177.48055239301175,None,177.48055239301175,None,177.48055239301175,None,177.48055239301175,None,177.48055239301175,None,181.4820739122806,None,181.4820739122806,None,181.4820739122806,None,181.4820739122806,None,181.4820739122806,None,181.4820739122806,None,181.4820739122806,None,182.46574133983813,None,1.5842476846883073,,,,,,,,,,,,,,,,,,,,,,,,,,,,,,23911,2019_Sep_26_1612,Mmi_3levels,3.1.5,59.99136169494579,
,,,1,1,1.7,,,,,,,,,0,0,0,0,0,6,6,15,,,,,,,,,,,,,,,,,,,,,,,,,,,,,,,,,,,,,,,,,,,,,,,,,,,,,,,,,,,,,True,True,True,0.83,-0.17000000000000004,-1.5899999999999999,3.9700000000000006,1.7,-2.2700000000000005,-0.28500000000000025,gamble,win,1.7,26.553749999999997,184.48317465372384,None,184.48317465372384,None,184.48317465372384,None,184.48317465372384,None,184.48317465372384,None,184.48317465372384,None,184.48317465372384,None,1,184.48317465372384,None,187.20088628889062,None,187.20088628889062,None,187.20088628889062,None,187.20088628889062,None,187.20088628889062,None,187.20088628889062,None,187.20088628889062,None,191.20241644768976,None,191.20241644768976,None,191.20241644768976,None,191.20241644768976,None,191.20241644768976,None,191.20241644768976,None,191.20241644768976,None,192.18612355308142,None,2.684628272545524,,,,,,,,,,,,,,,,,,,,,,,,,,,,,,23911,2019_Sep_26_1612,Mmi_3levels,3.1.5,59.99136169494579,
,,,1,1,8.1,,,,,,,,,0,0,0,0,0,7,7,26,,,,,,,,,,,,,,,,,,,,,,,,,,,,,,,,,,,,,,,,,,,,,,,,,,,,,,,,,,,,,True,True,False,0.83,-0.17000000000000004,-1.7599999999999998,4.140000000000001,8.1,3.959999999999999,1.9799999999999995,gamble,win,8.1,34.653749999999995,194.20356454665307,None,194.20356454665307,None,194.20356454665307,None,194.20356454665307,None,194.20356454665307,None,194.20356454665307,None,194.20356454665307,None,1,194.20356454665307,None,195.60409943026025,None,195.60409943026025,None,195.60409943026025,None,195.60409943026025,None,195.60409943026025,None,195.60409943026025,None,195.60409943026025,None,199.5889581545489,None,199.5889581545489,None,199.5889581545489,None,199.5889581545489,None,199.5889581545489,None,199.5889581545489,None,199.5889581545489,None,209.09263923903927,None,1.3674473611172289,200.58938213204965,None,201.58977123140357,None,0.9,7.502865127869882,204.59086877305526,None,None,204.59086877305526,None,,,,,,,,,,,,,,,,,,,23911,2019_Sep_26_1612,Mmi_3levels,3.1.5,59.99136169494579,
,,,1,1,12.9,,,,,,,,,0,0,0,0,0,8,8,1,,,,,,,,,,,,,,,,,,,,,,,,,,,,,,,,,,,,,,,,,,,,,,,,,,,,,,,,,,,,,True,True,False,0.9,-0.09999999999999998,-1.8599999999999999,3.26,12.9,9.64,4.82,gamble,win,12.9,47.553749999999994,211.13131142477505,None,211.13131142477505,None,211.13131142477505,None,211.13131142477505,None,211.13131142477505,None,211.13131142477505,None,211.13131142477505,None,1,211.13131142477505,None,212.22709417680744,None,212.22709417680744,None,212.22709417680744,None,212.22709417680744,None,212.22709417680744,None,212.22709417680744,None,212.22709417680744,None,216.21197881968692,None,216.21197881968692,None,216.21197881968692,None,216.21197881968692,None,216.21197881968692,None,216.21197881968692,None,216.21197881968692,None,217.2123378405813,None,1.0627179484581575,,,,,,,,,,,,,,,,,,,,,,,,,,,,,,23911,2019_Sep_26_1612,Mmi_3levels,3.1.5,59.99136169494579,
,,,1,1,0.1,,,,,,,,,0,0,0,0,0,9,9,7,,,,,,,,,,,,,,,,,,,,,,,,,,,,,,,,,,,,,,,,,,,,,,,,,,,,,,,,,,,,,True,True,True,0.9,-0.09999999999999998,-1.96,3.3599999999999994,0.1,-3.2599999999999993,-1.5799999999999996,certain,certain,-1.5799999999999996,45.973749999999995,219.22984411066864,None,219.22984411066864,None,219.22984411066864,None,219.22984411066864,None,219.22984411066864,None,219.22984411066864,None,219.22984411066864,None,3,219.22984411066864,None,221.59739834617358,None,221.59739834617358,None,221.59739834617358,None,221.59739834617358,None,221.59739834617358,None,221.59739834617358,None,221.59739834617358,None,225.58229706832208,None,225.58229706832208,None,225.58229706832208,None,225.58229706832208,None,225.58229706832208,None,225.58229706832208,None,225.58229706832208,None,235.08587863808498,None,2.334450074005872,226.58261161169503,None,227.58297959214542,None,0.83,7.502841448993422,230.58414593013003,None,None,230.58414593013003,None,,,,,,,,,,,,,,,,,,,23911,2019_Sep_26_1612,Mmi_3levels,3.1.5,59.99136169494579,
,,,1,1,11.9,,,,,,,,,0,0,0,0,0,10,10,22,,,,,,,,,,,,,,,,,,,,,,,,,,,,,,,,,,,,,,,,,,,,,,,,,,,,,,,,,,,,,True,False,False,0.83,-0.17000000000000004,-2.13,-0.7725000000000002,11.9,11.1275,5.56375,gamble,lose,11.1275,57.10124999999999,237.10335131001193,None,237.10335131001193,None,237.10335131001193,None,237.10335131001193,None,237.10335131001193,None,237.10335131001193,None,237.10335131001193,None,1,237.10335131001193,None,238.33708065422252,None,238.33708065422252,None,238.33708065422252,None,238.33708065422252,None,238.33708065422252,None,238.33708065422252,None,238.33708065422252,None,242.32198225625325,None,242.32198225625325,None,242.32198225625325,None,242.32198225625325,None,242.32198225625325,None,242.32198225625325,None,242.32198225625325,None,243.32239279453643,None,1.2006491814972833,,,,,,,,,,,,,,,,,,,,,,,,,,,,,,23911,2019_Sep_26_1612,Mmi_3levels,3.1.5,59.99136169494579,
,,,1,1,8.5,,,,,,,,,0,0,0,0,0,11,11,16,,,,,,,,,,,,,,,,,,,,,,,,,,,,,,,,,,,,,,,,,,,,,,,,,,,,,,,,,,,,,True,False,False,0.83,-0.17000000000000004,-2.3,-0.7866666666666668,8.5,7.713333333333333,3.8566666666666665,gamble,lose,7.713333333333333,64.81458333333333,245.33978259074502,None,245.33978259074502,None,245.33978259074502,None,245.33978259074502,None,245.33978259074502,None,245.33978259074502,None,245.33978259074502,None,1,245.33978259074502,None,246.45685541187413,None,246.45685541187413,None,246.45685541187413,None,246.45685541187413,None,246.45685541187413,None,246.45685541187413,None,246.45685541187413,None,250.44170389673673,None,250.44170389673673,None,250.44170389673673,None,250.44170389673673,None,250.44170389673673,None,250.44170389673673,None,250.44170389673673,None,259.9453421033686,None,1.0840960128698498,251.44210067566019,None,252.44251793343574,None,1.0,7.502730094944127,255.44823890959378,None,None,255.44823890959378,None,,,,,,,,,,,,,,,,,,,23911,2019_Sep_26_1612,Mmi_3levels,3.1.5,59.99136169494579,
,,,1,1,11.7,,,,,,,,,0,0,0,0,0,12,12,6,,,,,,,,,,,,,,,,,,,,,,,,,,,,,,,,,,,,,,,,,,,,,,,,,,,,,,,,,,,,,True,True,False,1.0,0.0,-2.3,2.3,11.7,9.399999999999999,4.699999999999999,gamble,win,11.7,76.51458333333333,261.9628298145253,None,261.9628298145253,None,261.9628298145253,None,261.9628298145253,None,261.9628298145253,None,261.9628298145253,None,261.9628298145253,None,1,261.9628298145253,None,262.89647077943664,None,262.89647077943664,None,262.89647077943664,None,262.89647077943664,None,262.89647077943664,None,262.89647077943664,None,262.89647077943664,None,266.89810013293754,None,266.89810013293754,None,266.89810013293754,None,266.89810013293754,None,266.89810013293754,None,266.89810013293754,None,266.89810013293754,None,267.8817614808213,None,0.9006548773031682,,,,,,,,,,,,,,,,,,,,,,,,,,,,,,23911,2019_Sep_26_1612,Mmi_3levels,3.1.5,59.99136169494579,
,,,1,1,0.3,,,,,,,,,0,0,0,0,0,13,13,24,,,,,,,,,,,,,,,,,,,,,,,,,,,,,,,,,,,,,,,,,,,,,,,,,,,,,,,,,,,,,True,True,True,1.0,0.0,-2.3,2.3,0.3,-1.9999999999999998,-0.8499999999999999,certain,certain,-0.8499999999999999,75.66458333333334,269.89915255701635,None,269.89915255701635,None,269.89915255701635,None,269.89915255701635,None,269.89915255701635,None,269.89915255701635,None,269.89915255701635,None,3,269.89915255701635,None,271.4997750519542,None,271.4997750519542,None,271.4997750519542,None,271.4997750519542,None,271.4997750519542,None,271.4997750519542,None,271.4997750519542,None,275.48464465572033,None,275.48464465572033,None,275.48464465572033,None,275.48464465572033,None,275.48464465572033,None,275.48464465572033,None,275.48464465572033,None,276.48504783422686,None,1.5675548114813864,,,,,,,,,,,,,,,,,,,,,,,,,,,,,,23911,2019_Sep_26_1612,Mmi_3levels,3.1.5,59.99136169494579,
,,,1,1,13.7,,,,,,,,,0,0,0,0,0,14,14,10,,,,,,,,,,,,,,,,,,,,,,,,,,,,,,,,,,,,,,,,,,,,,,,,,,,,,,,,,,,,,True,True,True,1.0,0.0,-2.3,2.3,13.7,11.399999999999999,5.699999999999999,gamble,win,13.7,89.36458333333334,278.50243987038266,None,278.50243987038266,None,278.50243987038266,None,278.50243987038266,None,278.50243987038266,None,278.50243987038266,None,278.50243987038266,None,1,278.50243987038266,None,279.36946997372434,None,279.36946997372434,None,279.36946997372434,None,279.36946997372434,None,279.36946997372434,None,279.36946997372434,None,279.36946997372434,None,283.3710145317018,None,283.3710145317018,None,283.3710145317018,None,283.3710145317018,None,283.3710145317018,None,283.3710145317018,None,283.3710145317018,None,292.8579246670706,None,0.8339397010859102,284.35467587958556,None,285.35510721674655,None,0.97,7.50280113122426,288.35620955820195,None,None,288.35620955820195,None,,,,,,,,,,,,,,,,,,,23911,2019_Sep_26_1612,Mmi_3levels,3.1.5,59.99136169494579,
,,,1,1,10.9,,,,,,,,,0,0,0,0,0,15,15,20,,,,,,,,,,,,,,,,,,,,,,,,,,,,,,,,,,,,,,,,,,,,,,,,,,,,,,,,,,,,,True,True,False,0.97,-0.030000000000000027,-2.33,2.7500000000000004,10.9,8.15,4.075,gamble,win,10.9,100.26458333333335,294.87536822038237,None,294.87536822038237,None,294.87536822038237,None,294.87536822038237,None,294.87536822038237,None,294.87536822038237,None,294.87536822038237,None,1,294.87536822038237,None,296.04250366217457,None,296.04250366217457,None,296.04250366217457,None,296.04250366217457,None,296.04250366217457,None,296.04250366217457,None,296.04250366217457,None,300.02733326808084,None,300.02733326808084,None,300.02733326808084,None,300.02733326808084,None,300.02733326808084,None,300.02733326808084,None,300.02733326808084,None,301.02780620288104,None,1.134068398270756,,,,,,,,,,,,,,,,,,,,,,,,,,,,,,23911,2019_Sep_26_1612,Mmi_3levels,3.1.5,59.99136169494579,
,,,1,1,1.1,,,,,,,,,0,0,0,0,0,16,16,9,,,,,,,,,,,,,,,,,,,,,,,,,,,,,,,,,,,,,,,,,,,,,,,,,,,,,,,,,,,,,True,False,False,0.97,-0.030000000000000027,-2.3600000000000003,-0.30166666666666675,1.1,0.7983333333333333,0.9491666666666667,gamble,lose,0.7983333333333333,101.06291666666668,303.0451563212555,None,303.0451563212555,None,303.0451563212555,None,303.0451563212555,None,303.0451563212555,None,303.0451563212555,None,303.0451563212555,None,1,303.0451563212555,None,304.71247287339065,None,304.71247287339065,None,304.71247287339065,None,304.71247287339065,None,304.71247287339065,None,304.71247287339065,None,304.71247287339065,None,308.6973613561131,None,308.6973613561131,None,308.6973613561131,None,308.6973613561131,None,308.6973613561131,None,308.6973613561131,None,308.6973613561131,None,318.2010021227179,None,1.6342152705183253,309.6977546152193,None,310.69806403887924,None,0.92,7.502876967191696,313.69923005695455,None,None,313.69923005695455,None,,,,,,,,,,,,,,,,,,,23911,2019_Sep_26_1612,Mmi_3levels,3.1.5,59.99136169494579,
,,,1,1,6.3,,,,,,,,,0,0,0,0,0,17,17,23,,,,,,,,,,,,,,,,,,,,,,,,,,,,,,,,,,,,,,,,,,,,,,,,,,,,,,,,,,,,,True,True,False,0.92,-0.07999999999999996,-2.4400000000000004,3.5599999999999996,6.3,2.74,1.37,gamble,win,6.3,107.36291666666668,320.23527326225303,None,320.23527326225303,None,320.23527326225303,None,320.23527326225303,None,320.23527326225303,None,320.23527326225303,None,320.23527326225303,None,1,320.23527326225303,None,321.4355445438996,None,321.4355445438996,None,321.4355445438996,None,321.4355445438996,None,321.4355445438996,None,321.4355445438996,None,321.4355445438996,None,325.4203757495852,None,325.4203757495852,None,325.4203757495852,None,325.4203757495852,None,325.4203757495852,None,325.4203757495852,None,325.4203757495852,None,326.4207907676464,None,1.1669860096881166,,,,,,,,,,,,,,,,,,,,,,,,,,,,,,23911,2019_Sep_26_1612,Mmi_3levels,3.1.5,59.99136169494579,
,,,1,1,9.7,,,,,,,,,0,0,0,0,0,18,18,25,,,,,,,,,,,,,,,,,,,,,,,,,,,,,,,,,,,,,,,,,,,,,,,,,,,,,,,,,,,,,True,True,True,0.92,-0.07999999999999996,-2.5200000000000005,3.6399999999999997,9.7,6.06,3.03,gamble,win,9.7,117.06291666666668,328.4382506401744,None,328.4382506401744,None,328.4382506401744,None,328.4382506401744,None,328.4382506401744,None,328.4382506401744,None,328.4382506401744,None,1,328.4382506401744,None,329.4052370338468,None,329.4052370338468,None,329.4052370338468,None,329.4052370338468,None,329.4052370338468,None,329.4052370338468,None,329.4052370338468,None,333.3900925582275,None,333.3900925582275,None,333.3900925582275,None,333.3900925582275,None,333.3900925582275,None,333.3900925582275,None,333.3900925582275,None,334.39052325545345,None,0.933892791508697,,,,,,,,,,,,,,,,,,,,,,,,,,,,,,23911,2019_Sep_26_1612,Mmi_3levels,3.1.5,59.99136169494579,
,,,1,1,2.9,,,,,,,,,0,0,0,0,0,19,19,18,,,,,,,,,,,,,,,,,,,,,,,,,,,,,,,,,,,,,,,,,,,,,,,,,,,,,,,,,,,,,True,True,True,0.92,-0.07999999999999996,-2.6000000000000005,3.7199999999999998,2.9,-0.8199999999999998,1.04,gamble,win,2.9,119.96291666666669,336.4079191313358,None,336.4079191313358,None,336.4079191313358,None,336.4079191313358,None,336.4079191313358,None,336.4079191313358,None,336.4079191313358,None,1,336.4079191313358,None,337.82517568662297,None,337.82517568662297,None,337.82517568662297,None,337.82517568662297,None,337.82517568662297,None,337.82517568662297,None,337.82517568662297,None,341.80997553409543,None,341.80997553409543,None,341.80997553409543,None,341.80997553409543,None,341.80997553409543,None,341.80997553409543,None,341.80997553409543,None,351.3136636582203,None,1.3842023111646995,342.8103633534629,None,343.81074221339077,None,1.0,7.502877287217416,346.8118925523013,None,None,346.8118925523013,None,,,,,,,,,,,,,,,,,,,23911,2019_Sep_26_1612,Mmi_3levels,3.1.5,59.99136169494579,
,,,1,1,3.9,,,,,,,,,0,0,0,0,0,20,20,12,,,,,,,,,,,,,,,,,,,,,,,,,,,,,,,,,,,,,,,,,,,,,,,,,,,,,,,,,,,,,True,True,True,1.0,0.0,-2.6000000000000005,2.6000000000000005,3.9,1.2999999999999994,0.6499999999999997,gamble,win,3.9,123.86291666666669,353.33109505218454,None,353.33109505218454,None,353.33109505218454,None,353.33109505218454,None,353.33109505218454,None,353.33109505218454,None,353.33109505218454,None,1,353.33109505218454,None,354.6982134708669,None,354.6982134708669,None,354.6982134708669,None,354.6982134708669,None,354.6982134708669,None,354.6982134708669,None,354.6982134708669,None,358.6831445113057,None,358.6831445113057,None,358.6831445113057,None,358.6831445113057,None,358.6831445113057,None,358.6831445113057,None,358.6831445113057,None,359.6835275309859,None,1.3340891331899911,,,,,,,,,,,,,,,,,,,,,,,,,,,,,,23911,2019_Sep_26_1612,Mmi_3levels,3.1.5,59.99136169494579,
,,,1,1,13.3,,,,,,,,,0,0,0,0,0,21,21,17,,,,,,,,,,,,,,,,,,,,,,,,,,,,,,,,,,,,,,,,,,,,,,,,,,,,,,,,,,,,,True,False,True,1.0,0.0,-2.6000000000000005,-0.2166666666666667,13.3,13.083333333333334,6.541666666666667,gamble,lose,13.083333333333334,136.94625000000002,361.70092340698466,None,361.70092340698466,None,361.70092340698466,None,361.70092340698466,None,361.70092340698466,None,361.70092340698466,None,361.70092340698466,None,1,361.70092340698466,None,362.6346082095988,None,362.6346082095988,None,362.6346082095988,None,362.6346082095988,None,362.6346082095988,None,362.6346082095988,None,362.6346082095988,None,366.6194634140702,None,366.6194634140702,None,366.6194634140702,None,366.6194634140702,None,366.6194634140702,None,366.6194634140702,None,366.6194634140702,None,376.12310066085774,None,0.9006289585959166,367.61985091352835,None,368.6202316932613,None,0.98,7.502782572177239,371.6213794723153,None,None,371.6213794723153,None,,,,,,,,,,,,,,,,,,,23911,2019_Sep_26_1612,Mmi_3levels,3.1.5,59.99136169494579,
,,,1,1,6.1,,,,,,,,,0,0,0,0,0,22,22,4,,,,,,,,,,,,,,,,,,,,,,,,,,,,,,,,,,,,,,,,,,,,,,,,,,,,,,,,,,,,,True,False,True,0.98,-0.020000000000000018,-2.6200000000000006,-0.28833333333333344,6.1,5.8116666666666665,2.9058333333333333,gamble,lose,5.8116666666666665,142.7579166666667,378.14053621469066,None,378.14053621469066,None,378.14053621469066,None,378.14053621469066,None,378.14053621469066,None,378.14053621469066,None,378.14053621469066,None,1,378.14053621469066,None,379.25768359180074,None,379.25768359180074,None,379.25768359180074,None,379.25768359180074,None,379.25768359180074,None,379.25768359180074,None,379.25768359180074,None,383.25915807357524,None,383.25915807357524,None,383.25915807357524,None,383.25915807357524,None,383.25915807357524,None,383.25915807357524,None,383.25915807357524,None,384.2429541342426,None,1.0840409757802263,,,,,,,,,,,,,,,,,,,,,,,,,,,,,,23911,2019_Sep_26_1612,Mmi_3levels,3.1.5,59.99136169494579,
,,,1,1,5.5,,,,,,,,,0,0,0,0,0,23,23,19,,,,,,,,,,,,,,,,,,,,,,,,,,,,,,,,,,,,,,,,,,,,,,,,,,,,,,,,,,,,,True,True,False,0.98,-0.020000000000000018,-2.6400000000000006,2.920000000000001,5.5,2.579999999999999,1.2899999999999996,gamble,win,5.5,148.2579166666667,386.2603365709074,None,386.2603365709074,None,386.2603365709074,None,386.2603365709074,None,386.2603365709074,None,386.2603365709074,None,386.2603365709074,None,1,386.2603365709074,None,387.14398563152645,None,387.14398563152645,None,387.14398563152645,None,387.14398563152645,None,387.14398563152645,None,387.14398563152645,None,387.14398563152645,None,391.14550875057466,None,391.14550875057466,None,391.14550875057466,None,391.14550875057466,None,391.14550875057466,None,391.14550875057466,None,391.14550875057466,None,400.63247520290315,None,0.8506024959497154,392.12922097579576,None,393.12960239546373,None,1.0,7.502811050624587,396.1307988119079,None,None,396.1307988119079,None,,,,,,,,,,,,,,,,,,,23911,2019_Sep_26_1612,Mmi_3levels,3.1.5,59.99136169494579,
,,,1,1,13.9,,,,,,,,,0,0,0,0,0,24,24,5,,,,,,,,,,,,,,,,,,,,,,,,,,,,,,,,,,,,,,,,,,,,,,,,,,,,,,,,,,,,,True,True,False,1.0,0.0,-2.6400000000000006,2.6400000000000006,13.9,11.26,5.63,gamble,win,13.9,162.1579166666667,402.6499024372315,None,402.6499024372315,None,402.6499024372315,None,402.6499024372315,None,402.6499024372315,None,402.6499024372315,None,402.6499024372315,None,1,402.6499024372315,None,403.93377119803336,None,403.93377119803336,None,403.93377119803336,None,403.93377119803336,None,403.93377119803336,None,403.93377119803336,None,403.93377119803336,None,407.9185870446963,None,407.9185870446963,None,407.9185870446963,None,407.9185870446963,None,407.9185870446963,None,407.9185870446963,None,407.9185870446963,None,408.91897422412876,None,1.250789878075011,,,,,,,,,,,,,,,,,,,,,,,,,,,,,,23911,2019_Sep_26_1612,Mmi_3levels,3.1.5,59.99136169494579,
,,,1,1,-0.9,,,,,,,,,0,0,0,0,0,25,25,2,,,,,,,,,,,,,,,,,,,,,,,,,,,,,,,,,,,,,,,,,,,,,,,,,,,,,,,,,,,,,True,True,True,1.0,0.0,-2.6400000000000006,2.6400000000000006,-0.9,-3.5400000000000005,-2.22,certain,certain,-2.22,159.9379166666667,410.93643633648753,None,410.93643633648753,None,410.93643633648753,None,410.93643633648753,None,410.93643633648753,None,410.93643633648753,None,410.93643633648753,None,3,410.93643633648753,None,413.7541554592317,None,413.7541554592317,None,413.7541554592317,None,413.7541554592317,None,413.7541554592317,None,413.7541554592317,None,413.7541554592317,None,417.73904106218833,None,417.73904106218833,None,417.73904106218833,None,417.73904106218833,None,417.73904106218833,None,417.73904106218833,None,417.73904106218833,None,418.7394496804336,None,2.7850306192412972,,,,,,,,,,,,,,,,,,,,,,,,,,,,,,23911,2019_Sep_26_1612,Mmi_3levels,3.1.5,59.99136169494579,
,,,1,1,4.1,,,,,,,,,0,0,0,0,0,26,26,0,,,,,,,,,,,,,,,,,,,,,,,,,,,,,,,,,,,,,,,,,,,,,,,,,,,,,,,,,,,,,True,False,True,1.0,0.0,-2.6400000000000006,-0.22000000000000006,4.1,3.8799999999999994,1.9399999999999997,gamble,lose,3.8799999999999994,163.8179166666667,420.75684299645945,None,420.75684299645945,None,420.75684299645945,None,420.75684299645945,None,420.75684299645945,None,420.75684299645945,None,420.75684299645945,None,1,420.75684299645945,None,421.8406299056951,None,421.8406299056951,None,421.8406299056951,None,421.8406299056951,None,421.8406299056951,None,421.8406299056951,None,421.8406299056951,None,425.8254351929063,None,425.8254351929063,None,425.8254351929063,None,425.8254351929063,None,425.8254351929063,None,425.8254351929063,None,425.8254351929063,None,435.3290967583889,None,1.0506904273061082,426.8258156526135,None,427.8263033067342,None,0.94,7.502639859798364,430.82735221099574,None,None,430.82735221099574,None,,,,,,,,,,,,,,,,,,,23911,2019_Sep_26_1612,Mmi_3levels,3.1.5,59.99136169494579,
,,,2,0,3.1,,,,,,,,,0,1,1,1,0,0,0,7,,,,,,,,,,,,,,,,,,,,,,,,,,,,,,,,,,,,,,,,,,,,,,,,,442.7152263271855,None,1.0,5.5176198640838265,445.73309449804947,None,4,2.484461945365183,445.73309449804947,None,448.2340109293582,None,False,False,True,1.0,1.0,1.0,3.5833333333333335,0.775,-2.8083333333333336,-1.0166666666666668,gamble,win,0.775,164.5929166666667,451.26853325555567,None,451.26853325555567,None,451.26853325555567,None,451.26853325555567,None,451.26853325555567,None,451.26853325555567,None,451.26853325555567,None,1,451.26853325555567,None,452.76911722449586,None,452.76911722449586,None,452.76911722449586,None,452.76911722449586,None,452.76911722449586,None,452.76911722449586,None,452.76911722449586,None,456.77059906581417,None,456.77059906581417,None,456.77059906581417,None,456.77059906581417,None,456.77059906581417,None,456.77059906581417,None,456.77059906581417,None,457.75431097100955,None,1.467503486201167,,,,,,,,,,,,437.32987271714956,None,4,5.368904243805446,437.32987271714956,None,,,,,,,,,,,,,23911,2019_Sep_26_1612,Mmi_3levels,3.1.5,59.99136169494579,
,,,2,0,8.7,,,,,,,,,0,1,1,1,0,1,1,20,,,,,,,,,,,,,,,,,,,,,,,,,,,,,,,,,,,,,,,,,,,,,,,,,,,,,,,,,,,,,False,True,False,1.0,1.0,2.0,-16.0,2.175,-13.825,-5.824999999999999,certain,certain,-5.824999999999999,158.7679166666667,459.77181692107115,None,459.77181692107115,None,459.77181692107115,None,459.77181692107115,None,459.77181692107115,None,459.77181692107115,None,459.77181692107115,None,3,459.77181692107115,None,461.63917724695057,None,461.63917724695057,None,461.63917724695057,None,461.63917724695057,None,461.63917724695057,None,461.63917724695057,None,461.63917724695057,None,465.64064308907837,None,465.64064308907837,None,465.64064308907837,None,465.64064308907837,None,465.64064308907837,None,465.64064308907837,None,465.64064308907837,None,475.12763194018044,None,1.8343758380506188,466.62437131337356,None,467.62475305306725,None,0.84,7.502845928771421,470.625897312304,None,None,470.625897312304,None,,,,,,,,,,,,,,,,,,,23911,2019_Sep_26_1612,Mmi_3levels,3.1.5,59.99136169494579,
,,,2,0,7.1,,,,,,,,,0,1,1,1,0,2,2,24,,,,,,,,,,,,,,,,,,,,,,,,,,,,,,,,,,,,,,,,,,,,,,,,,,,,,,,,,,,,,False,True,False,0.84,0.84,2.84,-14.6,1.775,-12.825,-5.5249999999999995,certain,certain,-5.5249999999999995,153.2429166666667,477.1663646027446,None,477.1663646027446,None,477.1663646027446,None,477.1663646027446,None,477.1663646027446,None,477.1663646027446,None,477.1663646027446,None,3,477.1663646027446,None,479.195891354233,None,479.195891354233,None,479.195891354233,None,479.195891354233,None,479.195891354233,None,479.195891354233,None,479.195891354233,None,483.1974221529672,None,483.1974221529672,None,483.1974221529672,None,483.1974221529672,None,483.1974221529672,None,483.1974221529672,None,483.1974221529672,None,484.18112669850234,None,1.9964376292191446,,,,,,,,,,,,,,,,,,,,,,,,,,,,,,23911,2019_Sep_26_1612,Mmi_3levels,3.1.5,59.99136169494579,
,,,2,0,1.9,,,,,,,,,0,1,1,1,0,3,3,9,,,,,,,,,,,,,,,,,,,,,,,,,,,,,,,,,,,,,,,,,,,,,,,,,,,,,,,,,,,,,False,True,False,0.84,0.84,3.6799999999999997,-15.44,0.475,-14.965,-7.245,certain,certain,-7.245,145.9979166666667,486.1985177746974,None,486.1985177746974,None,486.1985177746974,None,486.1985177746974,None,486.1985177746974,None,486.1985177746974,None,486.1985177746974,None,3,486.1985177746974,None,488.31604785157833,None,488.31604785157833,None,488.31604785157833,None,488.31604785157833,None,488.31604785157833,None,488.31604785157833,None,488.31604785157833,None,492.33420208713505,None,492.33420208713505,None,492.33420208713505,None,492.33420208713505,None,492.33420208713505,None,492.33420208713505,None,492.33420208713505,None,501.8211861385498,None,2.0844291150569916,493.3179040729301,None,494.31829157238826,None,0.75,7.502868327661417,497.31948894879315,None,None,497.31948894879315,None,,,,,,,,,,,,,,,,,,,23911,2019_Sep_26_1612,Mmi_3levels,3.1.5,59.99136169494579,
,,,2,0,6.7,,,,,,,,,0,1,1,1,0,4,4,8,,,,,,,,,,,,,,,,,,,,,,,,,,,,,,,,,,,,,,,,,,,,,,,,,,,,,,,,,,,,,False,False,True,0.75,0.75,4.43,2.9941666666666666,1.675,-1.3191666666666666,0.17791666666666672,gamble,win,1.675,147.6729166666667,503.83863993140403,None,503.83863993140403,None,503.83863993140403,None,503.83863993140403,None,503.83863993140403,None,503.83863993140403,None,503.83863993140403,None,1,503.83863993140403,None,505.0891591038089,None,505.0891591038089,None,505.0891591038089,None,505.0891591038089,None,505.0891591038089,None,505.0891591038089,None,505.0891591038089,None,509.07398135005496,None,509.07398135005496,None,509.07398135005496,None,509.07398135005496,None,509.07398135005496,None,509.07398135005496,None,509.07398135005496,None,510.07433525135275,None,1.2174114910885692,,,,,,,,,,,,,,,,,,,,,,,,,,,,,,23911,2019_Sep_26_1612,Mmi_3levels,3.1.5,59.99136169494579,
,,,2,0,5.9,,,,,,,,,0,1,1,1,0,5,5,12,,,,,,,,,,,,,,,,,,,,,,,,,,,,,,,,,,,,,,,,,,,,,,,,,,,,,,,,,,,,,False,True,False,0.75,0.75,5.18,-15.68,1.475,-14.205,-6.365,certain,certain,-6.365,141.3079166666667,512.091757045826,None,512.091757045826,None,512.091757045826,None,512.091757045826,None,512.091757045826,None,512.091757045826,None,512.091757045826,None,3,512.091757045826,None,513.7424120830838,None,513.7424120830838,None,513.7424120830838,None,513.7424120830838,None,513.7424120830838,None,513.7424120830838,None,513.7424120830838,None,517.7439156832406,None,517.7439156832406,None,517.7439156832406,None,517.7439156832406,None,517.7439156832406,None,517.7439156832406,None,517.7439156832406,None,518.7276387878228,None,1.6175684748450294,,,,,,,,,,,,,,,,,,,,,,,,,,,,,,23911,2019_Sep_26_1612,Mmi_3levels,3.1.5,59.99136169494579,
,,,2,0,0.1,,,,,,,,,0,1,1,1,0,6,6,13,,,,,,,,,,,,,,,,,,,,,,,,,,,,,,,,,,,,,,,,,,,,,,,,,,,,,,,,,,,,,False,False,False,0.75,0.75,5.93,3.1191666666666666,0.025,-3.0941666666666667,-1.5345833333333334,certain,certain,-1.5345833333333334,139.77333333333337,520.745059942361,None,520.745059942361,None,520.745059942361,None,520.745059942361,None,520.745059942361,None,520.745059942361,None,520.745059942361,None,3,520.745059942361,None,522.7458506204421,None,522.7458506204421,None,522.7458506204421,None,522.7458506204421,None,522.7458506204421,None,522.7458506204421,None,522.7458506204421,None,526.7306847060099,None,526.7306847060099,None,526.7306847060099,None,526.7306847060099,None,526.7306847060099,None,526.7306847060099,None,526.7306847060099,None,536.2343145932537,None,1.967703475500457,527.7310664457036,None,528.7314638646785,None,0.8,7.5028075309237465,531.7326471618144,None,None,531.7326471618144,None,,,,,,,,,,,,,,,,,,,23911,2019_Sep_26_1612,Mmi_3levels,3.1.5,59.99136169494579,
,,,2,0,6.5,,,,,,,,,0,1,1,1,0,7,7,16,,,,,,,,,,,,,,,,,,,,,,,,,,,,,,,,,,,,,,,,,,,,,,,,,,,,,,,,,,,,,False,True,False,0.8,0.8,6.7299999999999995,-17.93,1.625,-16.305,-7.34,gamble,lose,-16.305,123.46833333333336,538.2517555867089,None,538.2517555867089,None,538.2517555867089,None,538.2517555867089,None,538.2517555867089,None,538.2517555867089,None,538.2517555867089,None,1,538.2517555867089,None,540.4359672414139,None,540.4359672414139,None,540.4359672414139,None,540.4359672414139,None,540.4359672414139,None,540.4359672414139,None,540.4359672414139,None,544.4375082795741,None,544.4375082795741,None,544.4375082795741,None,544.4375082795741,None,544.4375082795741,None,544.4375082795741,None,544.4375082795741,None,545.4211923462572,None,2.151129891979508,,,,,,,,,,,,,,,,,,,,,,,,,,,,,,23911,2019_Sep_26_1612,Mmi_3levels,3.1.5,59.99136169494579,
,,,2,0,10.1,,,,,,,,,0,1,1,1,0,8,8,2,,,,,,,,,,,,,,,,,,,,,,,,,,,,,,,,,,,,,,,,,,,,,,,,,,,,,,,,,,,,,False,True,False,0.8,0.8,7.529999999999999,-18.73,2.525,-16.205000000000002,-6.840000000000001,gamble,lose,-16.205000000000002,107.26333333333336,547.4386442191899,None,547.4386442191899,None,547.4386442191899,None,547.4386442191899,None,547.4386442191899,None,547.4386442191899,None,547.4386442191899,None,1,547.4386442191899,None,549.0392663942184,None,549.0392663942184,None,549.0392663942184,None,549.0392663942184,None,549.0392663942184,None,549.0392663942184,None,549.0392663942184,None,553.0407898332924,None,553.0407898332924,None,553.0407898332924,None,553.0407898332924,None,553.0407898332924,None,553.0407898332924,None,553.0407898332924,None,562.5277514858171,None,1.5675349725643173,554.0244505412411,None,555.0248326008441,None,0.58,7.502885606721975,558.0259797399631,None,None,558.0259797399631,None,,,,,,,,,,,,,,,,,,,23911,2019_Sep_26_1612,Mmi_3levels,3.1.5,59.99136169494579,
,,,2,0,13.3,,,,,,,,,0,1,1,1,0,9,9,6,,,,,,,,,,,,,,,,,,,,,,,,,,,,,,,,,,,,,,,,,,,,,,,,,,,,,,,,,,,,,False,False,False,0.58,0.58,8.11,2.705833333333333,3.325,0.6191666666666671,1.9720833333333336,gamble,win,3.325,110.58833333333337,564.5451876795851,None,564.5451876795851,None,564.5451876795851,None,564.5451876795851,None,564.5451876795851,None,564.5451876795851,None,564.5451876795851,None,1,564.5451876795851,None,565.6789104962954,None,565.6789104962954,None,565.6789104962954,None,565.6789104962954,None,565.6789104962954,None,565.6789104962954,None,565.6789104962954,None,569.6638104984304,None,569.6638104984304,None,569.6638104984304,None,569.6638104984304,None,569.6638104984304,None,569.6638104984304,None,569.6638104984304,None,570.6641506403685,None,1.1006823317147791,,,,,,,,,,,,,,,,,,,,,,,,,,,,,,23911,2019_Sep_26_1612,Mmi_3levels,3.1.5,59.99136169494579,
,,,2,0,-1.5,,,,,,,,,0,1,1,1,0,10,10,23,,,,,,,,,,,,,,,,,,,,,,,,,,,,,,,,,,,,,,,,,,,,,,,,,,,,,,,,,,,,,False,True,True,0.58,0.58,8.69,-16.81,-0.375,-17.185,-8.78,certain,certain,-8.78,101.80833333333337,572.6816306717228,None,572.6816306717228,None,572.6816306717228,None,572.6816306717228,None,572.6816306717228,None,572.6816306717228,None,572.6816306717228,None,3,572.6816306717228,None,575.24923316075,None,575.24923316075,None,575.24923316075,None,575.24923316075,None,575.24923316075,None,575.24923316075,None,575.24923316075,None,579.2507738788845,None,579.2507738788845,None,579.2507738788845,None,579.2507738788845,None,579.2507738788845,None,579.2507738788845,None,579.2507738788845,None,580.234468825045,None,2.5345264859497547,,,,,,,,,,,,,,,,,,,,,,,,,,,,,,23911,2019_Sep_26_1612,Mmi_3levels,3.1.5,59.99136169494579,
,,,2,0,9.1,,,,,,,,,0,1,1,1,0,11,11,11,,,,,,,,,,,,,,,,,,,,,,,,,,,,,,,,,,,,,,,,,,,,,,,,,,,,,,,,,,,,,False,True,True,0.58,0.58,9.27,-17.39,2.275,-15.115,-6.42,gamble,lose,-15.115,86.69333333333337,582.2519907742972,None,582.2519907742972,None,582.2519907742972,None,582.2519907742972,None,582.2519907742972,None,582.2519907742972,None,582.2519907742972,None,1,582.2519907742972,None,583.5524583334336,None,583.5524583334336,None,583.5524583334336,None,583.5524583334336,None,583.5524583334336,None,583.5524583334336,None,583.5524583334336,None,587.5539404946612,None,587.5539404946612,None,587.5539404946612,None,587.5539404946612,None,587.5539404946612,None,587.5539404946612,None,587.5539404946612,None,597.0409655038966,None,1.267377476906404,588.5376930377679,None,589.5380453390535,None,0.57,7.502940323785879,592.5392215965549,None,None,592.5392215965549,None,,,,,,,,,,,,,,,,,,,23911,2019_Sep_26_1612,Mmi_3levels,3.1.5,59.99136169494579,
,,,2,0,5.1,,,,,,,,,0,1,1,1,0,12,12,15,,,,,,,,,,,,,,,,,,,,,,,,,,,,,,,,,,,,,,,,,,,,,,,,,,,,,,,,,,,,,False,True,True,0.57,0.57,9.84,-17.82,1.275,-16.545,-7.635000000000001,certain,certain,-7.635000000000001,79.05833333333337,599.0796210505068,None,599.0796210505068,None,599.0796210505068,None,599.0796210505068,None,599.0796210505068,None,599.0796210505068,None,599.0796210505068,None,3,599.0796210505068,None,600.8757470803102,None,600.8757470803102,None,600.8757470803102,None,600.8757470803102,None,600.8757470803102,None,600.8757470803102,None,600.8757470803102,None,604.8772698794492,None,604.8772698794492,None,604.8772698794492,None,604.8772698794492,None,604.8772698794492,None,604.8772698794492,None,604.8772698794492,None,605.860951706185,None,1.7630717855645344,,,,,,,,,,,,,,,,,,,,,,,,,,,,,,23911,2019_Sep_26_1612,Mmi_3levels,3.1.5,59.99136169494579,
,,,2,0,4.7,,,,,,,,,0,1,1,1,0,13,13,19,,,,,,,,,,,,,,,,,,,,,,,,,,,,,,,,,,,,,,,,,,,,,,,,,,,,,,,,,,,,,False,True,False,0.57,0.57,10.41,-18.39,1.175,-17.215,-8.02,gamble,lose,-17.215,61.84333333333336,607.8783795804484,None,607.8783795804484,None,607.8783795804484,None,607.8783795804484,None,607.8783795804484,None,607.8783795804484,None,607.8783795804484,None,1,607.8783795804484,None,609.6457682567416,None,609.6457682567416,None,609.6457682567416,None,609.6457682567416,None,609.6457682567416,None,609.6457682567416,None,609.6457682567416,None,613.6472865761025,None,613.6472865761025,None,613.6472865761025,None,613.6472865761025,None,613.6472865761025,None,613.6472865761025,None,613.6472865761025,None,623.1342562283389,None,1.7343043538276106,614.6310100007104,None,615.6314365380676,None,0.5,7.502797931432724,618.632534399745,None,None,618.632534399745,None,,,,,,,,,,,,,,,,,,,23911,2019_Sep_26_1612,Mmi_3levels,3.1.5,59.99136169494579,
,,,2,0,8.9,,,,,,,,,0,1,1,1,0,14,14,10,,,,,,,,,,,,,,,,,,,,,,,,,,,,,,,,,,,,,,,,,,,,,,,,,,,,,,,,,,,,,False,True,False,0.5,0.5,10.91,-17.91,2.225,-15.685,-6.73,gamble,lose,-15.685,46.15833333333336,625.1516207458917,None,625.1516207458917,None,625.1516207458917,None,625.1516207458917,None,625.1516207458917,None,625.1516207458917,None,625.1516207458917,None,1,625.1516207458917,None,626.8356455304893,None,626.8356455304893,None,626.8356455304893,None,626.8356455304893,None,626.8356455304893,None,626.8356455304893,None,626.8356455304893,None,630.8371440109331,None,630.8371440109331,None,630.8371440109331,None,630.8371440109331,None,630.8371440109331,None,630.8371440109331,None,630.8371440109331,None,631.8208562361542,None,1.6509343824582174,,,,,,,,,,,,,,,,,,,,,,,,,,,,,,23911,2019_Sep_26_1612,Mmi_3levels,3.1.5,59.99136169494579,
,,,2,0,4.9,,,,,,,,,0,1,1,1,0,15,15,5,,,,,,,,,,,,,,,,,,,,,,,,,,,,,,,,,,,,,,,,,,,,,,,,,,,,,,,,,,,,,False,True,False,0.5,0.5,11.41,-18.41,1.225,-17.185,-7.9799999999999995,certain,certain,-7.9799999999999995,38.17833333333336,633.8383106689434,None,633.8383106689434,None,633.8383106689434,None,633.8383106689434,None,633.8383106689434,None,633.8383106689434,None,633.8383106689434,None,3,633.8383106689434,None,636.0725087883184,None,636.0725087883184,None,636.0725087883184,None,636.0725087883184,None,636.0725087883184,None,636.0725087883184,None,636.0725087883184,None,640.074013348436,None,640.074013348436,None,640.074013348436,None,640.074013348436,None,640.074013348436,None,640.074013348436,None,640.074013348436,None,649.5609775608173,None,2.2011259561404586,641.0577249336056,None,642.0581085932208,None,0.67,7.5027774524642155,645.0593347680988,None,None,645.0593347680988,None,,,,,,,,,,,,,,,,,,,23911,2019_Sep_26_1612,Mmi_3levels,3.1.5,59.99136169494579,
,,,2,0,6.9,,,,,,,,,0,1,1,1,0,16,16,21,,,,,,,,,,,,,,,,,,,,,,,,,,,,,,,,,,,,,,,,,,,,,,,,,,,,,,,,,,,,,False,True,True,0.67,0.67,12.08,-21.46,1.725,-19.735,-9.004999999999999,certain,certain,-9.004999999999999,29.173333333333364,651.5784118347801,None,651.5784118347801,None,651.5784118347801,None,651.5784118347801,None,651.5784118347801,None,651.5784118347801,None,651.5784118347801,None,3,651.5784118347801,None,653.545868923422,None,653.545868923422,None,653.545868923422,None,653.545868923422,None,653.545868923422,None,653.545868923422,None,653.545868923422,None,657.5473770033568,None,657.5473770033568,None,657.5473770033568,None,657.5473770033568,None,657.5473770033568,None,657.5473770033568,None,657.5473770033568,None,658.5310754692182,None,1.9343871653545648,,,,,,,,,,,,,,,,,,,,,,,,,,,,,,23911,2019_Sep_26_1612,Mmi_3levels,3.1.5,59.99136169494579,
,,,2,0,13.1,,,,,,,,,0,1,1,1,0,17,17,3,,,,,,,,,,,,,,,,,,,,,,,,,,,,,,,,,,,,,,,,,,,,,,,,,,,,,,,,,,,,,False,False,True,0.67,0.67,12.75,3.4075,3.275,-0.13250000000000028,1.5712499999999998,gamble,win,3.275,32.448333333333366,660.5485503809759,None,660.5485503809759,None,660.5485503809759,None,660.5485503809759,None,660.5485503809759,None,660.5485503809759,None,660.5485503809759,None,1,660.5485503809759,None,661.7823674005922,None,661.7823674005922,None,661.7823674005922,None,661.7823674005922,None,661.7823674005922,None,661.7823674005922,None,661.7823674005922,None,665.7671707678819,None,665.7671707678819,None,665.7671707678819,None,665.7671707678819,None,665.7671707678819,None,665.7671707678819,None,665.7671707678819,None,666.767553147627,None,1.200713498168625,,,,,,,,,,,,,,,,,,,,,,,,,,,,,,23911,2019_Sep_26_1612,Mmi_3levels,3.1.5,59.99136169494579,
,,,2,0,5.3,,,,,,,,,0,1,1,1,0,18,18,17,,,,,,,,,,,,,,,,,,,,,,,,,,,,,,,,,,,,,,,,,,,,,,,,,,,,,,,,,,,,,False,True,False,0.67,0.67,13.42,-22.8,1.325,-21.475,-10.075000000000001,gamble,lose,-21.475,10.973333333333365,668.784994461108,None,668.784994461108,None,668.784994461108,None,668.784994461108,None,668.784994461108,None,668.784994461108,None,668.784994461108,None,None,668.784994461108,None,671.7861534395488,None,671.7861534395488,None,671.7861534395488,None,671.7861534395488,None,671.7861534395488,None,671.7861534395488,None,671.7861534395488,None,675.7877079169266,None,675.7877079169266,None,675.7877079169266,None,675.7877079169266,None,675.7877079169266,None,675.7877079169266,None,675.7877079169266,None,685.2746334114345,None,,676.7713913436746,None,677.7718268405879,None,0.49,7.502807850833051,680.772887904197,None,None,680.772887904197,None,,,,,,,,,,,,,,,,,,,23911,2019_Sep_26_1612,Mmi_3levels,3.1.5,59.99136169494579,
,,,2,0,11.3,,,,,,,,,0,1,1,1,0,19,19,14,,,,,,,,,,,,,,,,,,,,,,,,,,,,,,,,,,,,,,,,,,,,,,,,,,,,,,,,,,,,,False,False,True,0.49,0.49,13.91,2.8741666666666665,2.825,-0.04916666666666636,1.387916666666667,gamble,win,2.825,13.798333333333364,687.2920779248234,None,687.2920779248234,None,687.2920779248234,None,687.2920779248234,None,687.2920779248234,None,687.2920779248234,None,687.2920779248234,None,1,687.2920779248234,None,688.7593004659284,None,688.7593004659284,None,688.7593004659284,None,688.7593004659284,None,688.7593004659284,None,688.7593004659284,None,688.7593004659284,None,692.7441447910387,None,692.7441447910387,None,692.7441447910387,None,692.7441447910387,None,692.7441447910387,None,692.7441447910387,None,692.7441447910387,None,693.7445873274701,None,1.4341494180262089,,,,,,,,,,,,,,,,,,,,,,,,,,,,,,23911,2019_Sep_26_1612,Mmi_3levels,3.1.5,59.99136169494579,
,,,2,0,2.7,,,,,,,,,0,1,1,1,0,20,20,26,,,,,,,,,,,,,,,,,,,,,,,,,,,,,,,,,,,,,,,,,,,,,,,,,,,,,,,,,,,,,False,False,False,0.49,0.49,14.4,2.915,0.675,-2.24,-0.7825000000000001,certain,certain,-0.7825000000000001,13.015833333333363,695.7620110419812,None,695.7620110419812,None,695.7620110419812,None,695.7620110419812,None,695.7620110419812,None,695.7620110419812,None,695.7620110419812,None,3,695.7620110419812,None,697.3292897081701,None,697.3292897081701,None,697.3292897081701,None,697.3292897081701,None,697.3292897081701,None,697.3292897081701,None,697.3292897081701,None,701.3140940353042,None,701.3140940353042,None,701.3140940353042,None,701.3140940353042,None,701.3140940353042,None,701.3140940353042,None,701.3140940353042,None,710.817777039716,None,1.5340106734074652,702.3145250524394,None,703.3148709540255,None,0.56,7.502807210898027,706.3160100935493,None,None,706.3160100935493,None,,,,,,,,,,,,,,,,,,,23911,2019_Sep_26_1612,Mmi_3levels,3.1.5,59.99136169494579,
,,,2,0,3.7,,,,,,,,,0,1,1,1,0,21,21,0,,,,,,,,,,,,,,,,,,,,,,,,,,,,,,,,,,,,,,,,,,,,,,,,,,,,,,,,,,,,,False,True,True,0.56,0.56,14.96,-22.8,0.925,-21.875,-10.475,gamble,lose,-21.875,-8.859166666666637,712.8564540251391,None,712.8564540251391,None,712.8564540251391,None,712.8564540251391,None,712.8564540251391,None,712.8564540251391,None,712.8564540251391,None,1,712.8564540251391,None,714.4858842698159,None,714.4858842698159,None,714.4858842698159,None,714.4858842698159,None,714.4858842698159,None,714.4858842698159,None,714.4858842698159,None,718.4706543588545,None,718.4706543588545,None,718.4706543588545,None,718.4706543588545,None,718.4706543588545,None,718.4706543588545,None,718.4706543588545,None,719.4710364185739,None,1.5963065641699359,,,,,,,,,,,,,,,,,,,,,,,,,,,,,,23911,2019_Sep_26_1612,Mmi_3levels,3.1.5,59.99136169494579,
,,,2,0,8.5,,,,,,,,,0,1,1,1,0,22,22,4,,,,,,,,,,,,,,,,,,,,,,,,,,,,,,,,,,,,,,,,,,,,,,,,,,,,,,,,,,,,,False,False,False,0.56,0.56,15.520000000000001,3.253333333333334,2.125,-1.1283333333333339,0.4983333333333331,gamble,win,2.125,-6.734166666666637,721.4884754922241,None,721.4884754922241,None,721.4884754922241,None,721.4884754922241,None,721.4884754922241,None,721.4884754922241,None,721.4884754922241,None,1,721.4884754922241,None,722.7389543467434,None,722.7389543467434,None,722.7389543467434,None,722.7389543467434,None,722.7389543467434,None,722.7389543467434,None,722.7389543467434,None,726.7404813056346,None,726.7404813056346,None,726.7404813056346,None,726.7404813056346,None,726.7404813056346,None,726.7404813056346,None,726.7404813056346,None,736.2275475927163,None,1.2174937267554924,727.7241896910127,None,728.7246283877175,None,0.57,7.502757293637842,731.7257224096684,None,None,731.7257224096684,None,,,,,,,,,,,,,,,,,,,23911,2019_Sep_26_1612,Mmi_3levels,3.1.5,59.99136169494579,
,,,2,0,8.1,,,,,,,,,0,1,1,1,0,23,23,18,,,,,,,,,,,,,,,,,,,,,,,,,,,,,,,,,,,,,,,,,,,,,,,,,,,,,,,,,,,,,False,True,True,0.57,0.57,16.09,-24.07,2.025,-22.045,-10.010000000000002,certain,certain,-10.010000000000002,-16.744166666666636,738.2448778720573,None,738.2448778720573,None,738.2448778720573,None,738.2448778720573,None,738.2448778720573,None,738.2448778720573,None,738.2448778720573,None,3,738.2448778720573,None,739.7621335954173,None,739.7621335954173,None,739.7621335954173,None,739.7621335954173,None,739.7621335954173,None,739.7621335954173,None,739.7621335954173,None,743.763704712037,None,743.763704712037,None,743.763704712037,None,743.763704712037,None,743.763704712037,None,743.763704712037,None,743.763704712037,None,744.7474329363322,None,1.4841842000605538,,,,,,,,,,,,,,,,,,,,,,,,,,,,,,23911,2019_Sep_26_1612,Mmi_3levels,3.1.5,59.99136169494579,
,,,2,0,2.1,,,,,,,,,0,1,1,1,0,24,24,1,,,,,,,,,,,,,,,,,,,,,,,,,,,,,,,,,,,,,,,,,,,,,,,,,,,,,,,,,,,,,False,False,False,0.57,0.57,16.66,3.3833333333333333,0.525,-2.8583333333333334,-1.1666666666666667,certain,certain,-1.1666666666666667,-17.910833333333304,746.7648048135452,None,746.7648048135452,None,746.7648048135452,None,746.7648048135452,None,746.7648048135452,None,746.7648048135452,None,746.7648048135452,None,3,746.7648048135452,None,748.1486717825755,None,748.1486717825755,None,748.1486717825755,None,748.1486717825755,None,748.1486717825755,None,748.1486717825755,None,748.1486717825755,None,752.1502521785442,None,752.1502521785442,None,752.1502521785442,None,752.1502521785442,None,752.1502521785442,None,752.1502521785442,None,752.1502521785442,None,753.133958964143,None,1.350877681397833,,,,,,,,,,,,,,,,,,,,,,,,,,,,,,23911,2019_Sep_26_1612,Mmi_3levels,3.1.5,59.99136169494579,
,,,2,0,11.5,,,,,,,,,0,1,1,1,0,25,25,25,,,,,,,,,,,,,,,,,,,,,,,,,,,,,,,,,,,,,,,,,,,,,,,,,,,,,,,,,,,,,False,False,True,0.57,0.57,17.23,3.430833333333333,2.875,-0.5558333333333332,1.1595833333333334,gamble,win,2.875,-15.035833333333304,755.151350680273,None,755.151350680273,None,755.151350680273,None,755.151350680273,None,755.151350680273,None,755.151350680273,None,755.151350680273,None,1,755.151350680273,None,756.5518958033063,None,756.5518958033063,None,756.5518958033063,None,756.5518958033063,None,756.5518958033063,None,756.5518958033063,None,756.5518958033063,None,760.5367385284044,None,760.5367385284044,None,760.5367385284044,None,760.5367385284044,None,760.5367385284044,None,760.5367385284044,None,760.5367385284044,None,770.0403732153354,None,1.3674419214949012,761.5371746652527,None,762.537508087582,None,0.58,7.502819690154865,765.538652666728,None,None,765.538652666728,None,,,,,,,,,,,,,,,,,,,23911,2019_Sep_26_1612,Mmi_3levels,3.1.5,59.99136169494579,
,,,2,0,13.9,,,,,,,,,0,1,1,1,0,26,26,22,,,,,,,,,,,,,,,,,,,,,,,,,,,,,,,,,,,,,,,,,,,,,,,,,,,,,,,,,,,,,False,False,False,0.58,0.58,17.81,3.514166666666666,3.475,-0.03916666666666613,1.717916666666667,gamble,win,3.475,-11.560833333333305,772.079089238774,None,772.079089238774,None,772.079089238774,None,772.079089238774,None,772.079089238774,None,772.079089238774,None,772.079089238774,None,1,772.079089238774,None,773.7751306650462,None,773.7751306650462,None,773.7751306650462,None,773.7751306650462,None,773.7751306650462,None,773.7751306650462,None,773.7751306650462,None,777.7600268273382,None,777.7600268273382,None,777.7600268273382,None,777.7600268273382,None,777.7600268273382,None,777.7600268273382,None,777.7600268273382,None,778.7603704890935,None,1.662998381536454,,,,,,,,,,,,,,,,,,,,,,,,,,,,,,23911,2019_Sep_26_1612,Mmi_3levels,3.1.5,59.99136169494579,
,,,3,1,0.3,,,,,,,,,0,2,2,2,0,0,0,2,,,,,,,,,,,,,,,,,,,,,,,,,,,,,,,,,,,,,,,,,,,,,,,,,786.7467974501196,None,0.6,5.101209663785994,789.7479081110796,None,4,2.084424315369688,789.7479081110796,None,791.8487113964511,None,True,True,False,0.6,-0.4,-0.4,6.000000000000001,0.3,-5.700000000000001,-2.7000000000000006,certain,certain,-2.7000000000000006,-14.260833333333306,794.8832407622831,None,794.8832407622831,None,794.8832407622831,None,794.8832407622831,None,794.8832407622831,None,794.8832407622831,None,794.8832407622831,None,3,794.8832407622831,None,797.3008486588951,None,797.3008486588951,None,797.3008486588951,None,797.3008486588951,None,797.3008486588951,None,797.3008486588951,None,797.3008486588951,None,801.3023692180868,None,801.3023692180868,None,801.3023692180868,None,801.3023692180868,None,801.3023692180868,None,801.3023692180868,None,801.3023692180868,None,810.7893343905453,None,2.384515574434772,802.2860395255266,None,803.2864699027268,None,0.58,7.5029035257175565,806.2875472854357,None,None,806.2875472854357,None,780.7611890056869,None,4,5.969119720393792,780.7611890056869,None,,,,,,,,,,,,,23911,2019_Sep_26_1612,Mmi_3levels,3.1.5,59.99136169494579,
,,,3,1,5.7,,,,,,,,,0,2,2,2,0,1,1,18,,,,,,,,,,,,,,,,,,,,,,,,,,,,,,,,,,,,,,,,,,,,,,,,,,,,,,,,,,,,,True,True,True,0.58,-0.42000000000000004,-0.8200000000000001,6.700000000000001,5.7,-1.0000000000000009,-0.5000000000000004,gamble,win,5.7,-8.560833333333306,812.8067225868581,None,812.8067225868581,None,812.8067225868581,None,812.8067225868581,None,812.8067225868581,None,812.8067225868581,None,812.8067225868581,None,1,812.8067225868581,None,815.057604300091,None,815.057604300091,None,815.057604300091,None,815.057604300091,None,815.057604300091,None,815.057604300091,None,815.057604300091,None,819.0591382986167,None,819.0591382986167,None,819.0591382986167,None,819.0591382986167,None,819.0591382986167,None,819.0591382986167,None,819.0591382986167,None,820.0428732425207,None,2.2178434680681676,,,,,,,,,,,,,,,,,,,,,,,,,,,,,,23911,2019_Sep_26_1612,Mmi_3levels,3.1.5,59.99136169494579,
,,,3,1,-0.9,,,,,,,,,0,2,2,2,0,2,2,1,,,,,,,,,,,,,,,,,,,,,,,,,,,,,,,,,,,,,,,,,,,,,,,,,,,,,,,,,,,,,True,True,False,0.58,-0.42000000000000004,-1.2400000000000002,7.120000000000001,-0.9,-8.020000000000001,-4.460000000000001,gamble,win,-0.9,-9.460833333333307,822.0602719984017,None,822.0602719984017,None,822.0602719984017,None,822.0602719984017,None,822.0602719984017,None,822.0602719984017,None,822.0602719984017,None,1,822.0602719984017,None,824.2111321446719,None,824.2111321446719,None,824.2111321446719,None,824.2111321446719,None,824.2111321446719,None,824.2111321446719,None,824.2111321446719,None,828.1959425514797,None,828.1959425514797,None,828.1959425514797,None,828.1959425514797,None,828.1959425514797,None,828.1959425514797,None,828.1959425514797,None,829.1963220513426,None,2.117770384065807,,,,,,,,,,,,,,,,,,,,,,,,,,,,,,23911,2019_Sep_26_1612,Mmi_3levels,3.1.5,59.99136169494579,
,,,3,1,10.3,,,,,,,,,0,2,2,2,0,3,3,4,,,,,,,,,,,,,,,,,,,,,,,,,,,,,,,,,,,,,,,,,,,,,,,,,,,,,,,,,,,,,True,True,False,0.58,-0.42000000000000004,-1.6600000000000001,7.540000000000001,10.3,2.76,1.38,gamble,win,10.3,0.8391666666666939,831.2137569652405,None,831.2137569652405,None,831.2137569652405,None,831.2137569652405,None,831.2137569652405,None,831.2137569652405,None,831.2137569652405,None,1,831.2137569652405,None,832.6810361433309,None,832.6810361433309,None,832.6810361433309,None,832.6810361433309,None,832.6810361433309,None,832.6810361433309,None,832.6810361433309,None,836.6659431851003,None,836.6659431851003,None,836.6659431851003,None,836.6659431851003,None,836.6659431851003,None,836.6659431851003,None,836.6659431851003,None,846.1695772320963,None,1.4341759765520692,837.6662753274431,None,838.6666599470191,None,0.75,7.502845608862117,841.6678560434375,None,None,841.6678560434375,None,,,,,,,,,,,,,,,,,,,23911,2019_Sep_26_1612,Mmi_3levels,3.1.5,59.99136169494579,
,,,3,1,-1.3,,,,,,,,,0,2,2,2,0,4,4,6,,,,,,,,,,,,,,,,,,,,,,,,,,,,,,,,,,,,,,,,,,,,,,,,,,,,,,,,,,,,,True,True,True,0.75,-0.25,-1.9100000000000001,5.41,-1.3,-6.71,-4.005,certain,certain,-4.005,-3.165833333333306,848.2081684620352,None,848.2081684620352,None,848.2081684620352,None,848.2081684620352,None,848.2081684620352,None,848.2081684620352,None,848.2081684620352,None,3,848.2081684620352,None,849.9209593986161,None,849.9209593986161,None,849.9209593986161,None,849.9209593986161,None,849.9209593986161,None,849.9209593986161,None,849.9209593986161,None,853.92248155782,None,853.92248155782,None,853.92248155782,None,853.92248155782,None,853.92248155782,None,853.92248155782,None,853.92248155782,None,854.9061630646465,None,1.6796976544428617,,,,,,,,,,,,,,,,,,,,,,,,,,,,,,23911,2019_Sep_26_1612,Mmi_3levels,3.1.5,59.99136169494579,
,,,3,1,6.7,,,,,,,,,0,2,2,2,0,5,5,26,,,,,,,,,,,,,,,,,,,,,,,,,,,,,,,,,,,,,,,,,,,,,,,,,,,,,,,,,,,,,True,True,True,0.75,-0.25,-2.16,5.66,6.7,1.04,0.52,gamble,win,6.7,3.534166666666694,856.923700053012,None,856.923700053012,None,856.923700053012,None,856.923700053012,None,856.923700053012,None,856.923700053012,None,856.923700053012,None,1,856.923700053012,None,858.0573601530632,None,858.0573601530632,None,858.0573601530632,None,858.0573601530632,None,858.0573601530632,None,858.0573601530632,None,858.0573601530632,None,862.0422134376131,None,862.0422134376131,None,862.0422134376131,None,862.0422134376131,None,862.0422134376131,None,862.0422134376131,None,862.0422134376131,None,871.5458455646876,None,1.1006077757338062,863.042593577411,None,864.0430233145598,None,0.59,7.502895846264437,867.0441470949445,None,None,867.0441470949445,None,,,,,,,,,,,,,,,,,,,23911,2019_Sep_26_1612,Mmi_3levels,3.1.5,59.99136169494579,
,,,3,1,11.3,,,,,,,,,0,2,2,2,0,6,6,11,,,,,,,,,,,,,,,,,,,,,,,,,,,,,,,,,,,,,,,,,,,,,,,,,,,,,,,,,,,,,True,False,True,0.59,-0.41000000000000003,-2.5700000000000003,-1.6491666666666667,11.3,9.650833333333335,4.825416666666667,gamble,lose,9.650833333333335,13.185000000000029,873.56328751822,None,873.56328751822,None,873.56328751822,None,873.56328751822,None,873.56328751822,None,873.56328751822,None,873.56328751822,None,1,873.56328751822,None,874.6804796928773,None,874.6804796928773,None,874.6804796928773,None,874.6804796928773,None,874.6804796928773,None,874.6804796928773,None,874.6804796928773,None,878.6653355374001,None,878.6653355374001,None,878.6653355374001,None,878.6653355374001,None,878.6653355374001,None,878.6653355374001,None,878.6653355374001,None,879.6656647998607,None,1.0840048176469281,,,,,,,,,,,,,,,,,,,,,,,,,,,,,,23911,2019_Sep_26_1612,Mmi_3levels,3.1.5,59.99136169494579,
,,,3,1,-1.1,,,,,,,,,0,2,2,2,0,7,7,13,,,,,,,,,,,,,,,,,,,,,,,,,,,,,,,,,,,,,,,,,,,,,,,,,,,,,,,,,,,,,True,True,True,0.59,-0.41000000000000003,-2.9800000000000004,8.72,-1.1,-9.82,-5.46,gamble,win,-1.1,12.08500000000003,881.6831022736151,None,881.6831022736151,None,881.6831022736151,None,881.6831022736151,None,881.6831022736151,None,881.6831022736151,None,881.6831022736151,None,1,881.6831022736151,None,883.667249995633,None,883.667249995633,None,883.667249995633,None,883.667249995633,None,883.667249995633,None,883.667249995633,None,883.667249995633,None,887.6687241573818,None,887.6687241573818,None,887.6687241573818,None,887.6687241573818,None,887.6687241573818,None,887.6687241573818,None,887.6687241573818,None,897.1556832500501,None,1.9509824437554926,888.6524120639078,None,889.6527672449593,None,0.79,7.50285488832742,892.6539137441432,None,None,892.6539137441432,None,,,,,,,,,,,,,,,,,,,23911,2019_Sep_26_1612,Mmi_3levels,3.1.5,59.99136169494579,
,,,3,1,12.9,,,,,,,,,0,2,2,2,0,8,8,23,,,,,,,,,,,,,,,,,,,,,,,,,,,,,,,,,,,,,,,,,,,,,,,,,,,,,,,,,,,,,True,False,False,0.79,-0.20999999999999996,-3.1900000000000004,-1.0008333333333332,12.9,11.899166666666668,5.949583333333334,gamble,lose,11.899166666666668,23.984166666666695,899.194441831205,None,899.194441831205,None,899.194441831205,None,899.194441831205,None,899.194441831205,None,899.194441831205,None,899.194441831205,None,1,899.194441831205,None,900.4736241210485,None,900.4736241210485,None,900.4736241210485,None,900.4736241210485,None,900.4736241210485,None,900.4736241210485,None,900.4736241210485,None,904.4584809255321,None,904.4584809255321,None,904.4584809255321,None,904.4584809255321,None,904.4584809255321,None,904.4584809255321,None,904.4584809255321,None,905.4588172276272,None,1.2460794082144275,,,,,,,,,,,,,,,,,,,,,,,,,,,,,,23911,2019_Sep_26_1612,Mmi_3levels,3.1.5,59.99136169494579,
,,,3,1,-0.1,,,,,,,,,0,2,2,2,0,9,9,19,,,,,,,,,,,,,,,,,,,,,,,,,,,,,,,,,,,,,,,,,,,,,,,,,,,,,,,,,,,,,True,True,False,0.79,-0.20999999999999996,-3.4000000000000004,6.34,-0.1,-6.4399999999999995,-3.2699999999999996,certain,certain,-3.2699999999999996,20.714166666666696,907.4762454217998,None,907.4762454217998,None,907.4762454217998,None,907.4762454217998,None,907.4762454217998,None,907.4762454217998,None,907.4762454217998,None,3,907.4762454217998,None,909.0602377601899,None,909.0602377601899,None,909.0602377601899,None,909.0602377601899,None,909.0602377601899,None,909.0602377601899,None,909.0602377601899,None,913.0450532867108,None,913.0450532867108,None,913.0450532867108,None,913.0450532867108,None,913.0450532867108,None,913.0450532867108,None,913.0450532867108,None,914.0454727844335,None,1.5509054558351636,,,,,,,,,,,,,,,,,,,,,,,,,,,,,,23911,2019_Sep_26_1612,Mmi_3levels,3.1.5,59.99136169494579,
,,,3,1,10.9,,,,,,,,,0,2,2,2,0,10,10,15,,,,,,,,,,,,,,,,,,,,,,,,,,,,,,,,,,,,,,,,,,,,,,,,,,,,,,,,,,,,,True,True,False,0.79,-0.20999999999999996,-3.6100000000000003,6.55,10.9,4.3500000000000005,2.1750000000000003,gamble,win,10.9,31.614166666666698,916.0629057784099,None,916.0629057784099,None,916.0629057784099,None,916.0629057784099,None,916.0629057784099,None,916.0629057784099,None,916.0629057784099,None,1,916.0629057784099,None,916.96326243144,None,916.96326243144,None,916.96326243144,None,916.96326243144,None,916.96326243144,None,916.96326243144,None,916.96326243144,None,920.964743952849,None,920.964743952849,None,920.964743952849,None,920.964743952849,None,920.964743952849,None,920.964743952849,None,920.964743952849,None,930.4516982458299,None,0.8672652908135206,921.9484945759177,None,922.9488305581035,None,0.64,7.5027774524642155,925.9499805769883,None,None,925.9499805769883,None,,,,,,,,,,,,,,,,,,,23911,2019_Sep_26_1612,Mmi_3levels,3.1.5,59.99136169494579,
,,,3,1,7.7,,,,,,,,,0,2,2,2,0,11,11,7,,,,,,,,,,,,,,,,,,,,,,,,,,,,,,,,,,,,,,,,,,,,,,,,,,,,,,,,,,,,,True,True,True,0.64,-0.36,-3.97,9.01,7.7,-1.3099999999999996,-0.6549999999999998,gamble,win,7.7,39.3141666666667,932.4691360394936,None,932.4691360394936,None,932.4691360394936,None,932.4691360394936,None,932.4691360394936,None,932.4691360394936,None,932.4691360394936,None,1,932.4691360394936,None,933.7863534288481,None,933.7863534288481,None,933.7863534288481,None,933.7863534288481,None,933.7863534288481,None,933.7863534288481,None,933.7863534288481,None,937.7878730281955,None,937.7878730281955,None,937.7878730281955,None,937.7878730281955,None,937.7878730281955,None,937.7878730281955,None,937.7878730281955,None,938.7715625346173,None,1.2841074682073668,,,,,,,,,,,,,,,,,,,,,,,,,,,,,,23911,2019_Sep_26_1612,Mmi_3levels,3.1.5,59.99136169494579,
,,,3,1,12.7,,,,,,,,,0,2,2,2,0,12,12,3,,,,,,,,,,,,,,,,,,,,,,,,,,,,,,,,,,,,,,,,,,,,,,,,,,,,,,,,,,,,,True,True,True,0.64,-0.36,-4.33,9.370000000000001,12.7,3.3299999999999983,1.6649999999999991,gamble,win,12.7,52.014166666666696,940.7890211271588,None,940.7890211271588,None,940.7890211271588,None,940.7890211271588,None,940.7890211271588,None,940.7890211271588,None,940.7890211271588,None,1,940.7890211271588,None,941.8394395689247,None,941.8394395689247,None,941.8394395689247,None,941.8394395689247,None,941.8394395689247,None,941.8394395689247,None,941.8394395689247,None,945.8242483759532,None,945.8242483759532,None,945.8242483759532,None,945.8242483759532,None,945.8242483759532,None,945.8242483759532,None,945.8242483759532,None,955.3278997020097,None,1.0173721972387284,946.8246368352557,None,947.8250144151971,None,0.73,7.502894566277973,950.8262105117319,None,None,950.8262105117319,None,,,,,,,,,,,,,,,,,,,23911,2019_Sep_26_1612,Mmi_3levels,3.1.5,59.99136169494579,
,,,3,1,-0.3,,,,,,,,,0,2,2,2,0,13,13,8,,,,,,,,,,,,,,,,,,,,,,,,,,,,,,,,,,,,,,,,,,,,,,,,,,,,,,,,,,,,,True,False,False,0.73,-0.27,-4.6,-1.3283333333333334,-0.3,-1.6283333333333334,-0.9641666666666667,gamble,lose,-1.6283333333333334,50.385833333333366,957.3453566946555,None,957.3453566946555,None,957.3453566946555,None,957.3453566946555,None,957.3453566946555,None,957.3453566946555,None,957.3453566946555,None,1,957.3453566946555,None,960.0463620172814,None,960.0463620172814,None,960.0463620172814,None,960.0463620172814,None,960.0463620172814,None,960.0463620172814,None,960.0463620172814,None,964.031230980996,None,964.031230980996,None,964.031230980996,None,964.031230980996,None,964.031230980996,None,964.031230980996,None,964.031230980996,None,965.0315880820854,None,2.6678726826794446,,,,,,,,,,,,,,,,,,,,,,,,,,,,,,23911,2019_Sep_26_1612,Mmi_3levels,3.1.5,59.99136169494579,
,,,3,1,3.5,,,,,,,,,0,2,2,2,0,14,14,24,,,,,,,,,,,,,,,,,,,,,,,,,,,,,,,,,,,,,,,,,,,,,,,,,,,,,,,,,,,,,True,True,False,0.73,-0.27,-4.869999999999999,8.649999999999999,3.5,-5.149999999999999,-0.8249999999999993,certain,certain,-0.8249999999999993,49.56083333333336,967.0490869925125,None,967.0490869925125,None,967.0490869925125,None,967.0490869925125,None,967.0490869925125,None,967.0490869925125,None,967.0490869925125,None,3,967.0490869925125,None,968.8330904662143,None,968.8330904662143,None,968.8330904662143,None,968.8330904662143,None,968.8330904662143,None,968.8330904662143,None,968.8330904662143,None,972.8178944734391,None,972.8178944734391,None,972.8178944734391,None,972.8178944734391,None,972.8178944734391,None,972.8178944734391,None,972.8178944734391,None,973.8182934921933,None,1.7508945123990998,,,,,,,,,,,,,,,,,,,,,,,,,,,,,,23911,2019_Sep_26_1612,Mmi_3levels,3.1.5,59.99136169494579,
,,,3,1,2.3,,,,,,,,,0,2,2,2,0,15,15,14,,,,,,,,,,,,,,,,,,,,,,,,,,,,,,,,,,,,,,,,,,,,,,,,,,,,,,,,,,,,,True,False,False,0.73,-0.27,-5.139999999999999,-1.3733333333333333,2.3,0.9266666666666665,1.6133333333333333,gamble,lose,0.9266666666666665,50.48750000000003,975.8357661641203,None,975.8357661641203,None,975.8357661641203,None,975.8357661641203,None,975.8357661641203,None,975.8357661641203,None,975.8357661641203,None,1,975.8357661641203,None,977.3863634763984,None,977.3863634763984,None,977.3863634763984,None,977.3863634763984,None,977.3863634763984,None,977.3863634763984,None,977.3863634763984,None,981.3878913952503,None,981.3878913952503,None,981.3878913952503,None,981.3878913952503,None,981.3878913952503,None,981.3878913952503,None,981.3878913952503,None,990.891470725066,None,1.534180584247224,982.3882222576067,None,983.3886081571691,None,0.65,7.5027966514462605,986.3897552961716,None,None,986.3897552961716,None,,,,,,,,,,,,,,,,,,,23911,2019_Sep_26_1612,Mmi_3levels,3.1.5,59.99136169494579,
,,,3,1,0.5,,,,,,,,,0,2,2,2,0,16,16,12,,,,,,,,,,,,,,,,,,,,,,,,,,,,,,,,,,,,,,,,,,,,,,,,,,,,,,,,,,,,,True,False,True,0.65,-0.35,-5.489999999999998,-1.6824999999999997,0.5,-1.1824999999999997,-0.34124999999999983,gamble,lose,-1.1824999999999997,49.305000000000035,992.9303125018487,None,992.9303125018487,None,992.9303125018487,None,992.9303125018487,None,992.9303125018487,None,992.9303125018487,None,992.9303125018487,None,1,992.9303125018487,None,995.1430954387179,None,995.1430954387179,None,995.1430954387179,None,995.1430954387179,None,995.1430954387179,None,995.1430954387179,None,995.1430954387179,None,999.1279528831365,None,999.1279528831365,None,999.1279528831365,None,999.1279528831365,None,999.1279528831365,None,999.1279528831365,None,999.1279528831365,None,1000.1283387826988,None,2.1797056540381163,,,,,,,,,,,,,,,,,,,,,,,,,,,,,,23911,2019_Sep_26_1612,Mmi_3levels,3.1.5,59.99136169494579,
,,,3,1,3.7,,,,,,,,,0,2,2,2,0,17,17,17,,,,,,,,,,,,,,,,,,,,,,,,,,,,,,,,,,,,,,,,,,,,,,,,,,,,,,,,,,,,,True,False,False,0.65,-0.35,-5.839999999999998,-1.7116666666666664,3.7,1.9883333333333337,0.9941666666666669,gamble,lose,1.9883333333333337,51.29333333333337,1002.1457781762583,None,1002.1457781762583,None,1002.1457781762583,None,1002.1457781762583,None,1002.1457781762583,None,1002.1457781762583,None,1002.1457781762583,None,1,1002.1457781762583,None,1003.5963833600981,None,1003.5963833600981,None,1003.5963833600981,None,1003.5963833600981,None,1003.5963833600981,None,1003.5963833600981,None,1003.5963833600981,None,1007.5811937670223,None,1007.5811937670223,None,1007.5811937670223,None,1007.5811937670223,None,1007.5811937670223,None,1007.5811937670223,None,1007.5811937670223,None,1017.0848370934837,None,1.4175563793396577,1008.5816401432967,None,1009.5820033239434,None,0.69,7.5028795269317925,1012.583113664994,None,None,1012.583113664994,None,,,,,,,,,,,,,,,,,,,23911,2019_Sep_26_1612,Mmi_3levels,3.1.5,59.99136169494579,
,,,3,1,10.7,,,,,,,,,0,2,2,2,0,18,18,25,,,,,,,,,,,,,,,,,,,,,,,,,,,,,,,,,,,,,,,,,,,,,,,,,,,,,,,,,,,,,True,True,True,0.69,-0.31000000000000005,-6.149999999999999,10.489999999999998,10.7,0.21000000000000085,0.10500000000000043,gamble,win,10.7,61.99333333333337,1019.1022608078783,None,1019.1022608078783,None,1019.1022608078783,None,1019.1022608078783,None,1019.1022608078783,None,1019.1022608078783,None,1019.1022608078783,None,1,1019.1022608078783,None,1020.1693519640248,None,1020.1693519640248,None,1020.1693519640248,None,1020.1693519640248,None,1020.1693519640248,None,1020.1693519640248,None,1020.1693519640248,None,1024.154192769318,None,1024.154192769318,None,1024.154192769318,None,1024.154192769318,None,1024.154192769318,None,1024.154192769318,None,1024.154192769318,None,1025.1545761089073,None,1.0339917943347245,,,,,,,,,,,,,,,,,,,,,,,,,,,,,,23911,2019_Sep_26_1612,Mmi_3levels,3.1.5,59.99136169494579,
,,,3,1,-0.7,,,,,,,,,0,2,2,2,0,19,19,0,,,,,,,,,,,,,,,,,,,,,,,,,,,,,,,,,,,,,,,,,,,,,,,,,,,,,,,,,,,,,True,True,False,0.69,-0.31000000000000005,-6.459999999999999,10.8,-0.7,-11.5,-6.1,certain,certain,-6.1,55.893333333333366,1027.1720612600911,None,1027.1720612600911,None,1027.1720612600911,None,1027.1720612600911,None,1027.1720612600911,None,1027.1720612600911,None,1027.1720612600911,None,3,1027.1720612600911,None,1029.4228732170304,None,1029.4228732170304,None,1029.4228732170304,None,1029.4228732170304,None,1029.4228732170304,None,1029.4228732170304,None,1029.4228732170304,None,1033.4244555329205,None,1033.4244555329205,None,1033.4244555329205,None,1033.4244555329205,None,1033.4244555329205,None,1033.4244555329205,None,1033.4244555329205,None,1042.9114655029261,None,2.2177196346456185,1034.4081101611955,None,1035.4085085400147,None,0.69,7.502864487818442,1038.4096966369543,None,None,1038.4096966369543,None,,,,,,,,,,,,,,,,,,,23911,2019_Sep_26_1612,Mmi_3levels,3.1.5,59.99136169494579,
,,,3,1,10.5,,,,,,,,,0,2,2,2,0,20,20,20,,,,,,,,,,,,,,,,,,,,,,,,,,,,,,,,,,,,,,,,,,,,,,,,,,,,,,,,,,,,,True,False,True,0.69,-0.31000000000000005,-6.77,-1.649166666666667,10.5,8.850833333333334,4.425416666666667,gamble,lose,8.850833333333334,64.7441666666667,1044.950087451376,None,1044.950087451376,None,1044.950087451376,None,1044.950087451376,None,1044.950087451376,None,1044.950087451376,None,1044.950087451376,None,1,1044.950087451376,None,1046.1959796695737,None,1046.1959796695737,None,1046.1959796695737,None,1046.1959796695737,None,1046.1959796695737,None,1046.1959796695737,None,1046.1959796695737,None,1050.1975312671857,None,1050.1975312671857,None,1050.1975312671857,None,1050.1975312671857,None,1050.1975312671857,None,1050.1975312671857,None,1050.1975312671857,None,1051.1812463721726,None,1.2128334942972288,,,,,,,,,,,,,,,,,,,,,,,,,,,,,,23911,2019_Sep_26_1612,Mmi_3levels,3.1.5,59.99136169494579,
,,,3,1,4.7,,,,,,,,,0,2,2,2,0,21,21,5,,,,,,,,,,,,,,,,,,,,,,,,,,,,,,,,,,,,,,,,,,,,,,,,,,,,,,,,,,,,,True,True,False,0.69,-0.31000000000000005,-7.08,11.420000000000002,4.7,-6.7200000000000015,-1.0100000000000007,gamble,win,4.7,69.4441666666667,1053.1986585672712,None,1053.1986585672712,None,1053.1986585672712,None,1053.1986585672712,None,1053.1986585672712,None,1053.1986585672712,None,1053.1986585672712,None,1,1053.1986585672712,None,1054.4991264464334,None,1054.4991264464334,None,1054.4991264464334,None,1054.4991264464334,None,1054.4991264464334,None,1054.4991264464334,None,1054.4991264464334,None,1058.5007404406788,None,1058.5007404406788,None,1058.5007404406788,None,1058.5007404406788,None,1058.5007404406788,None,1058.5007404406788,None,1058.5007404406788,None,1059.4843675503507,None,1.2673809967236593,,,,,,,,,,,,,,,,,,,,,,,,,,,,,,23911,2019_Sep_26_1612,Mmi_3levels,3.1.5,59.99136169494579,
,,,3,1,1.5,,,,,,,,,0,2,2,2,0,22,22,9,,,,,,,,,,,,,,,,,,,,,,,,,,,,,,,,,,,,,,,,,,,,,,,,,,,,,,,,,,,,,True,True,False,0.69,-0.31000000000000005,-7.390000000000001,11.73,1.5,-10.23,-4.365,gamble,win,1.5,70.9441666666667,1061.5018328626174,None,1061.5018328626174,None,1061.5018328626174,None,1061.5018328626174,None,1061.5018328626174,None,1061.5018328626174,None,1061.5018328626174,None,1,1061.5018328626174,None,1063.3692386260955,None,1063.3692386260955,None,1063.3692386260955,None,1063.3692386260955,None,1063.3692386260955,None,1063.3692386260955,None,1063.3692386260955,None,1067.3707092679106,None,1067.3707092679106,None,1067.3707092679106,None,1067.3707092679106,None,1067.3707092679106,None,1067.3707092679106,None,1067.3707092679106,None,1076.8576728404732,None,1.8342696035979316,1068.3544717304176,None,1069.3548192320159,None,0.63,7.5027643331559375,1072.3560031690868,None,None,1072.3560031690868,None,,,,,,,,,,,,,,,,,,,23911,2019_Sep_26_1612,Mmi_3levels,3.1.5,59.99136169494579,
,,,3,1,9.1,,,,,,,,,0,2,2,2,0,23,23,16,,,,,,,,,,,,,,,,,,,,,,,,,,,,,,,,,,,,,,,,,,,,,,,,,,,,,,,,,,,,,True,True,False,0.63,-0.37,-7.760000000000001,12.940000000000001,9.1,-3.8400000000000016,-1.9200000000000008,gamble,win,9.1,80.0441666666667,1078.8751621514093,None,1078.8751621514093,None,1078.8751621514093,None,1078.8751621514093,None,1078.8751621514093,None,1078.8751621514093,None,1078.8751621514093,None,1,1078.8751621514093,None,1079.9755811371142,None,1079.9755811371142,None,1079.9755811371142,None,1079.9755811371142,None,1079.9755811371142,None,1079.9755811371142,None,1079.9755811371142,None,1083.9770658583147,None,1083.9770658583147,None,1083.9770658583147,None,1083.9770658583147,None,1083.9770658583147,None,1083.9770658583147,None,1083.9770658583147,None,1084.960785123054,None,1.0671545127406716,,,,,,,,,,,,,,,,,,,,,,,,,,,,,,23911,2019_Sep_26_1612,Mmi_3levels,3.1.5,59.99136169494579,
,,,3,1,1.7,,,,,,,,,0,2,2,2,0,24,24,10,,,,,,,,,,,,,,,,,,,,,,,,,,,,,,,,,,,,,,,,,,,,,,,,,,,,,,,,,,,,,True,True,True,0.63,-0.37,-8.13,13.31,1.7,-11.610000000000001,-4.955000000000001,certain,certain,-4.955000000000001,75.0891666666667,1086.9782427557511,None,1086.9782427557511,None,1086.9782427557511,None,1086.9782427557511,None,1086.9782427557511,None,1086.9782427557511,None,1086.9782427557511,None,3,1086.9782427557511,None,1088.6955342532601,None,1088.6955342532601,None,1088.6955342532601,None,1088.6955342532601,None,1088.6955342532601,None,1088.6955342532601,None,1088.6955342532601,None,1092.6971159292152,None,1092.6971159292152,None,1092.6971159292152,None,1092.6971159292152,None,1092.6971159292152,None,1092.6971159292152,None,1092.6971159292152,None,1102.1840270244284,None,1.6842522924998775,1093.6807747172425,None,1094.6811606166884,None,0.71,7.502817450324073,1097.682354473276,None,None,1097.682354473276,None,,,,,,,,,,,,,,,,,,,23911,2019_Sep_26_1612,Mmi_3levels,3.1.5,59.99136169494579,
,,,3,1,3.1,,,,,,,,,0,2,2,2,0,25,25,22,,,,,,,,,,,,,,,,,,,,,,,,,,,,,,,,,,,,,,,,,,,,,,,,,,,,,,,,,,,,,True,False,False,0.71,-0.29000000000000004,-8.420000000000002,-1.7166666666666668,3.1,1.3833333333333333,0.6916666666666667,gamble,lose,1.3833333333333333,76.47250000000004,1104.2227958451258,None,1104.2227958451258,None,1104.2227958451258,None,1104.2227958451258,None,1104.2227958451258,None,1104.2227958451258,None,1104.2227958451258,None,1,1104.2227958451258,None,1105.3519352251897,None,1105.3519352251897,None,1105.3519352251897,None,1105.3519352251897,None,1105.3519352251897,None,1105.3519352251897,None,1105.3519352251897,None,1109.3368057889165,None,1109.3368057889165,None,1109.3368057889165,None,1109.3368057889165,None,1109.3368057889165,None,1109.3368057889165,None,1109.3368057889165,None,1110.3372048076708,None,1.09605345770251,,,,,,,,,,,,,,,,,,,,,,,,,,,,,,23911,2019_Sep_26_1612,Mmi_3levels,3.1.5,59.99136169494579,
,,,3,1,8.3,,,,,,,,,0,2,2,2,0,26,26,21,,,,,,,,,,,,,,,,,,,,,,,,,,,,,,,,,,,,,,,,,,,,,,,,,,,,,,,,,,,,,True,False,False,0.71,-0.29000000000000004,-8.71,-1.7408333333333337,8.3,6.559166666666667,3.2795833333333335,gamble,lose,6.559166666666667,83.03166666666671,1112.3546237223782,None,1112.3546237223782,None,1112.3546237223782,None,1112.3546237223782,None,1112.3546237223782,None,1112.3546237223782,None,1112.3546237223782,None,1,1112.3546237223782,None,1113.4550513476133,None,1113.4550513476133,None,1113.4550513476133,None,1113.4550513476133,None,1113.4550513476133,None,1113.4550513476133,None,1113.4550513476133,None,1117.4398956727237,None,1117.4398956727237,None,1117.4398956727237,None,1117.4398956727237,None,1117.4398956727237,None,1117.4398956727237,None,1117.4398956727237,None,1126.94353963912,None,1.0673234638525173,1118.440239334479,None,1119.440668111667,None,0.67,7.502857128274627,1122.4417710931739,None,None,1122.4417710931739,None,,,,,,,,,,,,,,,,,,,23911,2019_Sep_26_1612,Mmi_3levels,3.1.5,59.99136169494579,
,,,,,,,,,,,,,,,,,,,,,,,,,,,,,,0,0,0,0,,,,,,,,,,,,,,,,,,,,,,,,,,,,,,,,,,,,,,,,,,,,,,,,,,,,,,,,,,,,,,,,,,,,,,,,,,,,,,,,,,,,,,,,,,,,,,,,,,,,,,,,,,,,,,,,,,,,,,,,,,1128.9443104781676,None,4,4.251813183771446,1128.9443104781676,None,83.03166666666671,3,1133.2125490293838,None,1133.2125490293838,None,1133.2125490293838,None,4,8.170190639444627,1133.2125490293838,None,23911,2019_Sep_26_1612,Mmi_3levels,3.1.5,59.99136169494579,
