currSlide,currImage,currText,blockNum,targetHappiness,highAmount,instructionLoop1.thisRepN,instructionLoop1.thisTrialN,instructionLoop1.thisN,instructionLoop1.thisIndex,instructionLoop2.thisRepN,instructionLoop2.thisTrialN,instructionLoop2.thisN,instructionLoop2.thisIndex,blockLoop.thisRepN,blockLoop.thisTrialN,blockLoop.thisN,blockLoop.thisIndex,trialLoop.thisRepN,trialLoop.thisTrialN,trialLoop.thisN,trialLoop.thisIndex,doRatingLoop.thisRepN,doRatingLoop.thisTrialN,doRatingLoop.thisN,doRatingLoop.thisIndex,trialHappyLoop.thisRepN,trialHappyLoop.thisTrialN,trialHappyLoop.thisN,trialHappyLoop.thisIndex,logWinningsLoop.thisRepN,logWinningsLoop.thisTrialN,logWinningsLoop.thisN,logWinningsLoop.thisIndex,instrImage.started,instrImage.stopped,instrText.started,instrText.stopped,instrContinueText.started,instrContinueText.stopped,instrKeyResp.keys,instrKeyResp.rt,instrKeyResp.started,instrKeyResp.stopped,lifeHappyText.started,lifeHappyText.stopped,lifeHappySlider.response,lifeHappySlider.rt,lifeHappySlider.started,lifeHappySlider.stopped,lifeHappyResp.keys,lifeHappyResp.rt,lifeHappyResp.started,lifeHappyResp.stopped,instrImage_2.started,instrImage_2.stopped,instrText_2.started,instrText_2.stopped,instrContinueText_2.started,instrContinueText_2.stopped,instrKeyResp_2.keys,instrKeyResp_2.rt,instrKeyResp_2.started,instrKeyResp_2.stopped,localizing.started,localizing.stopped,start_exp.keys,start_exp.rt,start_exp.started,start_exp.stopped,blockHappyText.started,blockHappyText.stopped,blockHappySlider.response,blockHappySlider.rt,blockHappySlider.started,blockHappySlider.stopped,blockHappyResp.keys,blockHappyResp.rt,blockHappyResp.started,blockHappyResp.stopped,blankText.started,blankText.stopped,isHappyBlock,isCongruent,isWinOnTop,lastHappyRating,diff,sumDiff,RPE,winAmount,loseAmount,certainAmount,choice,outcome,outcomeAmount,currentWinnings,fixCross.started,fixCross.stopped,certainBox.started,certainBox.stopped,outcome1Box.started,outcome1Box.stopped,outcome2Box.started,outcome2Box.stopped,certainText.started,certainText.stopped,outcome1Text.started,outcome1Text.stopped,outcome2Text.started,outcome2Text.stopped,choiceKey.keys,choiceKey.rt,choiceKey.started,choiceKey.stopped,fixCross_2.started,fixCross_2.stopped,certainBox_2.started,certainBox_2.stopped,outcome1Box_2.started,outcome1Box_2.stopped,outcome2Box_2.started,outcome2Box_2.stopped,certainText_2.started,certainText_2.stopped,outcome1Text_2.started,outcome1Text_2.stopped,outcome2Text_2.started,outcome2Text_2.stopped,fixCross_3.started,fixCross_3.stopped,certainBox_3.started,certainBox_3.stopped,outcome1Box_3.started,outcome1Box_3.stopped,outcome2Box_3.started,outcome2Box_3.stopped,certainText_3.started,certainText_3.stopped,outcome1Text_3.started,outcome1Text_3.stopped,outcome2Text_3.started,outcome2Text_3.stopped,fixCross_ITI.started,fixCross_ITI.stopped,fixCross_ISI.started,fixCross_ISI.stopped,happyText.started,happyText.stopped,happySlider.response,happySlider.rt,happySlider.started,happySlider.stopped,happyResp.keys,happyResp.started,happyResp.stopped,endOfBlockText.started,endOfBlockText.stopped,restKeyResp.keys,restKeyResp.rt,restKeyResp.started,restKeyResp.stopped,finalWinnings,cashBonus,goodbyeText.started,goodbyeText.stopped,finalWinningsText.started,finalWinningsText.stopped,spaceToContinue.started,spaceToContinue.stopped,goodbyeKeyResp_2.keys,goodbyeKeyResp_2.rt,goodbyeKeyResp_2.started,goodbyeKeyResp_2.stopped,participant,date,expName,psychopyVersion,frameRate,
1,black.png,"Welcome! You are about to play our gambling task.
This task has 3 blocks and takes about 15 minutes.",,,,0,0,0,0,,,,,,,,,,,,,,,,,,,,,,,,,10.365734718856402,None,10.365734718856402,None,10.365734718856402,None,4,3.0847674130345695,10.365734718856402,None,,,,,,,,,,,,,,,,,,,,,,,,,,,,,,,,,,,,,,,,,,,,,,,,,,,,,,,,,,,,,,,,,,,,,,,,,,,,,,,,,,,,,,,,,,,,,,,,,,,,,,,,,,,,,,,,,,,,,,,,,,,,,,,,,,23927,2020_Feb_10_1637,Mmi_3levels,3.1.5,59.97668236856065,
2,black.png,"In this game, you may win or lose points. Your goal is to get as many points as possible. These points will be converted to a cash bonus at the end.
Sometimes we will ask you to rate your mood.",,,,0,1,1,1,,,,,,,,,,,,,,,,,,,,,,,,,13.48361675743945,None,13.48361675743945,None,13.48361675743945,None,4,4.469653059437405,13.48361675743945,None,,,,,,,,,,,,,,,,,,,,,,,,,,,,,,,,,,,,,,,,,,,,,,,,,,,,,,,,,,,,,,,,,,,,,,,,,,,,,,,,,,,,,,,,,,,,,,,,,,,,,,,,,,,,,,,,,,,,,,,,,,,,,,,,,,23927,2020_Feb_10_1637,Mmi_3levels,3.1.5,59.97668236856065,
3,black.png,"On the next screen, please rate how you feel about your life these days. Use the LEFT (green) and RIGHT (blue) buttons to move the slider (you can press and hold them to slide gradually) and the TOP (red) button to lock in your response.
Make your rating as accurately and quickly as you can!",,,,0,2,2,2,,,,,,,,,,,,,,,,,,,,,,,,,18.003066708275583,None,18.003066708275583,None,18.003066708275583,None,4,3.1347690929542296,18.003066708275583,None,,,,,,,,,,,,,,,,,,,,,,,,,,,,,,,,,,,,,,,,,,,,,,,,,,,,,,,,,,,,,,,,,,,,,,,,,,,,,,,,,,,,,,,,,,,,,,,,,,,,,,,,,,,,,,,,,,,,,,,,,,,,,,,,,,23927,2020_Feb_10_1637,Mmi_3levels,3.1.5,59.97668236856065,
,,,,,,,,,,,,,,,,,,,,,,,,,,,,,,,,,,,,,,,,,,,,21.154303039016668,None,0.69,9.019198924885131,25.155804074951448,None,4,5.002142600016668,25.155804074951448,None,,,,,,,,,,,,,,,,,,,,,,,,,,,,,,,,,,,,,,,,,,,,,,,,,,,,,,,,,,,,,,,,,,,,,,,,,,,,,,,,,,,,,,,,,,,,,,,,,,,,,,,,,,,,,,,,,,,,,,,,23927,2020_Feb_10_1637,Mmi_3levels,3.1.5,59.97668236856065,
4,black.png,"In this game you can win money by earning points according to your choices. You will decide whether to gamble a number of points or stick with a guaranteed number of points. 
Make your choice by pressing the left or right arrow key once. An example of one trial is shown on the next screen.",,,,,,,,0,0,0,0,,,,,,,,,,,,,,,,,,,,,,,,,,,,,,,,,,,,,,,,,30.22444247122621,None,30.22444247122621,None,30.22444247122621,None,4,6.752778004447464,30.22444247122621,None,,,,,,,,,,,,,,,,,,,,,,,,,,,,,,,,,,,,,,,,,,,,,,,,,,,,,,,,,,,,,,,,,,,,,,,,,,,,,,,,,,,,,,,,,,,,,,,,,,,,,,,,,,,,,,23927,2020_Feb_10_1637,Mmi_3levels,3.1.5,59.97668236856065,
5,example_start.png,"The GAMBLING OPTION will be shown on the RIGHT SIDE. 
Select this option using the RIGHT (blue) button on your keypad.",,,,,,,,0,1,1,1,,,,,,,,,,,,,,,,,,,,,,,,,,,,,,,,,,,,,,,,,37.04364555585198,None,37.04364555585198,None,37.04364555585198,None,4,1.950924028235022,37.04364555585198,None,,,,,,,,,,,,,,,,,,,,,,,,,,,,,,,,,,,,,,,,,,,,,,,,,,,,,,,,,,,,,,,,,,,,,,,,,,,,,,,,,,,,,,,,,,,,,,,,,,,,,,,,,,,,,,23927,2020_Feb_10_1637,Mmi_3levels,3.1.5,59.97668236856065,
6,example_gamble.png,"Once you select the gambling choice, the choice you made will remain on the screen.",,,,,,,,0,2,2,2,,,,,,,,,,,,,,,,,,,,,,,,,,,,,,,,,,,,,,,,,39.02774564624997,None,39.02774564624997,None,39.02774564624997,None,4,1.1673307894961908,39.02774564624997,None,,,,,,,,,,,,,,,,,,,,,,,,,,,,,,,,,,,,,,,,,,,,,,,,,,,,,,,,,,,,,,,,,,,,,,,,,,,,,,,,,,,,,,,,,,,,,,,,,,,,,,,,,,,,,,23927,2020_Feb_10_1637,Mmi_3levels,3.1.5,59.97668236856065,
7,example_win.png,"The outcome you received will then be shown on the screen. In this example , you WON 10 points.",,,,,,,,0,3,3,3,,,,,,,,,,,,,,,,,,,,,,,,,,,,,,,,,,,,,,,,,40.22819618100766,None,40.22819618100766,None,40.22819618100766,None,4,0.7171422400278971,40.22819618100766,None,,,,,,,,,,,,,,,,,,,,,,,,,,,,,,,,,,,,,,,,,,,,,,,,,,,,,,,,,,,,,,,,,,,,,,,,,,,,,,,,,,,,,,,,,,,,,,,,,,,,,,,,,,,,,,23927,2020_Feb_10_1637,Mmi_3levels,3.1.5,59.97668236856065,
8,example_start.png,"The GUARANTEED OPTION will be shown on the LEFT SIDE. You are 100% guaranteed to gain or lose this amount. In this example, you have a 100% chance of winning 1 point. Select this option using the LEFT (green) button on your keyboard.",,,,,,,,0,4,4,4,,,,,,,,,,,,,,,,,,,,,,,,,,,,,,,,,,,,,,,,,40.99516443081666,None,40.99516443081666,None,40.99516443081666,None,4,1.9342760005383752,40.99516443081666,None,,,,,,,,,,,,,,,,,,,,,,,,,,,,,,,,,,,,,,,,,,,,,,,,,,,,,,,,,,,,,,,,,,,,,,,,,,,,,,,,,,,,,,,,,,,,,,,,,,,,,,,,,,,,,,23927,2020_Feb_10_1637,Mmi_3levels,3.1.5,59.97668236856065,
9,example_certain.png,"Once you select the guaranteed choice, your selection will remain on the screen.",,,,,,,,0,5,5,5,,,,,,,,,,,,,,,,,,,,,,,,,,,,,,,,,,,,,,,,,42.962564976362046,None,42.962564976362046,None,42.962564976362046,None,4,0.8671792779350653,42.962564976362046,None,,,,,,,,,,,,,,,,,,,,,,,,,,,,,,,,,,,,,,,,,,,,,,,,,,,,,,,,,,,,,,,,,,,,,,,,,,,,,,,,,,,,,,,,,,,,,,,,,,,,,,,,,,,,,,23927,2020_Feb_10_1637,Mmi_3levels,3.1.5,59.97668236856065,
10,black.png,"Please make your choices as fast as possible.
You will be given a break at the end of each block.
Let's play!",,,,,,,,0,6,6,6,,,,,,,,,,,,,,,,,,,,,,,,,,,,,,,,,,,,,,,,,43.862891198077705,None,43.862891198077705,None,43.862891198077705,None,4,1.8175052597071044,43.862891198077705,None,,,,,,,,,,,,,,,,,,,,,,,,,,,,,,,,,,,,,,,,,,,,,,,,,,,,,,,,,,,,,,,,,,,,,,,,,,,,,,,,,,,,,,,,,,,,,,,,,,,,,,,,,,,,,,23927,2020_Feb_10_1637,Mmi_3levels,3.1.5,59.97668236856065,
,,,,,,,,,,,,,,,,,,,,,,,,,,,,,,,,,,,,,,,,,,,,,,,,,,,,,,,,,,,,,,,,45.69692897197092,None,space,59.97290967707522,45.69692897197092,None,,,,,,,,,,,,,,,,,,,,,,,,,,,,,,,,,,,,,,,,,,,,,,,,,,,,,,,,,,,,,,,,,,,,,,,,,,,,,,,,,,,,,,,,,,,,,,,,,,,,,,,,23927,2020_Feb_10_1637,Mmi_3levels,3.1.5,59.97668236856065,
,,,1,1,6.5,,,,,,,,,0,0,0,0,0,0,0,0,,,,,,,,,,,,,,,,,,,,,,,,,,,,,,,,,,,,,,,,,,,,,,,,,105.68631836614804,None,0.6,6.561966289882548,108.70412280911114,None,4,3.5349031654186547,108.70412280911114,None,112.2554618541617,None,True,False,True,0.6,-0.4,-0.4,-1.4333333333333336,6.5,5.066666666666666,2.533333333333333,gamble,lose,5.066666666666666,5.066666666666666,115.28990856511518,None,115.28990856511518,None,115.28990856511518,None,115.28990856511518,None,115.28990856511518,None,115.28990856511518,None,115.28990856511518,None,1,2.2509411473292857,115.28990856511518,None,117.57410928991158,None,117.57410928991158,None,117.57410928991158,None,117.57410928991158,None,117.57410928991158,None,117.57410928991158,None,117.57410928991158,None,121.5590102954302,None,121.5590102954302,None,121.5590102954302,None,121.5590102954302,None,121.5590102954302,None,121.5590102954302,None,121.5590102954302,None,122.55933027749415,None,,,,,,,,,,,,,,,,,,,,,,,,,,,,,,23927,2020_Feb_10_1637,Mmi_3levels,3.1.5,59.97668236856065,
,,,1,1,7.9,,,,,,,,,0,0,0,0,0,1,1,18,,,,,,,,,,,,,,,,,,,,,,,,,,,,,,,,,,,,,,,,,,,,,,,,,,,,,,,,,,,,,True,True,False,0.6,-0.4,-0.8,6.4,7.9,1.5,0.75,gamble,win,7.9,12.966666666666667,124.57679841929348,None,124.57679841929348,None,124.57679841929348,None,124.57679841929348,None,124.57679841929348,None,124.57679841929348,None,124.57679841929348,None,1,1.2174358235788532,124.57679841929348,None,125.82728167221649,None,125.82728167221649,None,125.82728167221649,None,125.82728167221649,None,125.82728167221649,None,125.82728167221649,None,125.82728167221649,None,129.82880734681385,None,129.82880734681385,None,129.82880734681385,None,129.82880734681385,None,129.82880734681385,None,129.82880734681385,None,129.82880734681385,None,130.81245210266206,None,,,,,,,,,,,,,,,,,,,,,,,,,,,,,,23927,2020_Feb_10_1637,Mmi_3levels,3.1.5,59.97668236856065,
,,,1,1,8.3,,,,,,,,,0,0,0,0,0,2,2,19,,,,,,,,,,,,,,,,,,,,,,,,,,,,,,,,,,,,,,,,,,,,,,,,,,,,,,,,,,,,,True,True,True,0.6,-0.4,-1.2000000000000002,6.800000000000001,8.3,1.5,0.75,gamble,win,8.3,21.266666666666666,132.8299500027788,None,132.8299500027788,None,132.8299500027788,None,132.8299500027788,None,132.8299500027788,None,132.8299500027788,None,132.8299500027788,None,1,1.200680601876229,132.8299500027788,None,134.04704728536308,None,134.04704728536308,None,134.04704728536308,None,134.04704728536308,None,134.04704728536308,None,134.04704728536308,None,134.04704728536308,None,138.04858063947177,None,138.04858063947177,None,138.04858063947177,None,138.04858063947177,None,138.04858063947177,None,138.04858063947177,None,138.04858063947177,None,147.56879726733314,None,139.04891278088326,None,140.04929771932075,None,0.66,7.519206124416087,143.05049893207615,None,None,143.05049893207615,None,,,,,,,,,,,,,,,,,,,23927,2020_Feb_10_1637,Mmi_3levels,3.1.5,59.97668236856065,
,,,1,1,7.7,,,,,,,,,0,0,0,0,0,3,3,12,,,,,,,,,,,,,,,,,,,,,,,,,,,,,,,,,,,,,,,,,,,,,,,,,,,,,,,,,,,,,True,True,False,0.66,-0.33999999999999997,-1.54,6.3,7.7,1.4000000000000004,0.7000000000000002,gamble,win,7.7,28.966666666666665,149.5862846080563,None,149.5862846080563,None,149.5862846080563,None,149.5862846080563,None,149.5862846080563,None,149.5862846080563,None,149.5862846080563,None,1,1.2674013454816304,149.5862846080563,None,150.8867289031623,None,150.8867289031623,None,150.8867289031623,None,150.8867289031623,None,150.8867289031623,None,150.8867289031623,None,150.8867289031623,None,154.87161966931308,None,154.87161966931308,None,154.87161966931308,None,154.87161966931308,None,154.87161966931308,None,154.87161966931308,None,154.87161966931308,None,155.871984448866,None,,,,,,,,,,,,,,,,,,,,,,,,,,,,,,23927,2020_Feb_10_1637,Mmi_3levels,3.1.5,59.97668236856065,
,,,1,1,4.7,,,,,,,,,0,0,0,0,0,4,4,2,,,,,,,,,,,,,,,,,,,,,,,,,,,,,,,,,,,,,,,,,,,,,,,,,,,,,,,,,,,,,True,True,False,0.66,-0.33999999999999997,-1.88,6.64,4.7,-1.9399999999999995,1.3800000000000003,gamble,win,4.7,33.666666666666664,157.88949066854548,None,157.88949066854548,None,157.88949066854548,None,157.88949066854548,None,157.88949066854548,None,157.88949066854548,None,157.88949066854548,None,1,2.367770444834605,157.88949066854548,None,160.2903469405719,None,160.2903469405719,None,160.2903469405719,None,160.2903469405719,None,160.2903469405719,None,160.2903469405719,None,160.2903469405719,None,164.29180605884176,None,164.29180605884176,None,164.29180605884176,None,164.29180605884176,None,164.29180605884176,None,164.29180605884176,None,164.29180605884176,None,173.77879158768337,None,165.2756229651277,None,166.27594678697642,None,0.68,7.502781764254905,169.27703696594108,None,None,169.27703696594108,None,,,,,,,,,,,,,,,,,,,23927,2020_Feb_10_1637,Mmi_3levels,3.1.5,59.97668236856065,
,,,1,1,7.5,,,,,,,,,0,0,0,0,0,5,5,14,,,,,,,,,,,,,,,,,,,,,,,,,,,,,,,,,,,,,,,,,,,,,,,,,,,,,,,,,,,,,True,True,False,0.68,-0.31999999999999995,-2.1999999999999997,6.68,7.5,0.8200000000000003,0.41000000000000014,gamble,win,7.5,41.166666666666664,175.79623957059812,None,175.79623957059812,None,175.79623957059812,None,175.79623957059812,None,175.79623957059812,None,175.79623957059812,None,175.79623957059812,None,1,1.4174259041319601,175.79623957059812,None,177.24677274073474,None,177.24677274073474,None,177.24677274073474,None,177.24677274073474,None,177.24677274073474,None,177.24677274073474,None,177.24677274073474,None,181.24827889638254,None,181.24827889638254,None,181.24827889638254,None,181.24827889638254,None,181.24827889638254,None,181.24827889638254,None,181.24827889638254,None,182.23200364777585,None,,,,,,,,,,,,,,,,,,,,,,,,,,,,,,23927,2020_Feb_10_1637,Mmi_3levels,3.1.5,59.97668236856065,
,,,1,1,9.1,,,,,,,,,0,0,0,0,0,6,6,5,,,,,,,,,,,,,,,,,,,,,,,,,,,,,,,,,,,,,,,,,,,,,,,,,,,,,,,,,,,,,True,False,False,0.68,-0.31999999999999995,-2.5199999999999996,-1.3299999999999998,9.1,7.77,3.885,gamble,lose,7.77,48.93666666666667,184.24938475445379,None,184.24938475445379,None,184.24938475445379,None,184.24938475445379,None,184.24938475445379,None,184.24938475445379,None,184.24938475445379,None,1,1.4173123104847036,184.24938475445379,None,185.6999656019034,None,185.6999656019034,None,185.6999656019034,None,185.6999656019034,None,185.6999656019034,None,185.6999656019034,None,185.6999656019034,None,189.68477989232633,None,189.68477989232633,None,189.68477989232633,None,189.68477989232633,None,189.68477989232633,None,189.68477989232633,None,189.68477989232633,None,190.68517763004638,None,,,,,,,,,,,,,,,,,,,,,,,,,,,,,,23927,2020_Feb_10_1637,Mmi_3levels,3.1.5,59.97668236856065,
,,,1,1,10.3,,,,,,,,,0,0,0,0,0,7,7,10,,,,,,,,,,,,,,,,,,,,,,,,,,,,,,,,,,,,,,,,,,,,,,,,,,,,,,,,,,,,,True,False,False,0.68,-0.31999999999999995,-2.8399999999999994,-1.3566666666666665,10.3,8.943333333333335,4.471666666666668,gamble,lose,8.943333333333335,57.88,192.70260993385455,None,192.70260993385455,None,192.70260993385455,None,192.70260993385455,None,192.70260993385455,None,192.70260993385455,None,192.70260993385455,None,1,1.0673322293441743,192.70260993385455,None,193.8029790331493,None,193.8029790331493,None,193.8029790331493,None,193.8029790331493,None,193.8029790331493,None,193.8029790331493,None,193.8029790331493,None,197.80448806867935,None,197.80448806867935,None,197.80448806867935,None,197.80448806867935,None,197.80448806867935,None,197.80448806867935,None,197.80448806867935,None,207.29150623566238,None,198.78819042135729,None,199.78863039670978,None,0.74,7.502751045918558,202.78969337715534,None,None,202.78969337715534,None,,,,,,,,,,,,,,,,,,,23927,2020_Feb_10_1637,Mmi_3levels,3.1.5,59.97668236856065,
,,,1,1,12.7,,,,,,,,,0,0,0,0,0,8,8,1,,,,,,,,,,,,,,,,,,,,,,,,,,,,,,,,,,,,,,,,,,,,,,,,,,,,,,,,,,,,,True,False,False,0.74,-0.26,-3.0999999999999996,-1.1683333333333334,12.7,11.531666666666666,5.765833333333333,gamble,lose,11.531666666666666,69.41166666666666,209.3089007815579,None,209.3089007815579,None,209.3089007815579,None,209.3089007815579,None,209.3089007815579,None,209.3089007815579,None,209.3089007815579,None,1,1.3007716367719695,209.3089007815579,None,210.642769764876,None,210.642769764876,None,210.642769764876,None,210.642769764876,None,210.642769764876,None,210.642769764876,None,210.642769764876,None,214.64423816266935,None,214.64423816266935,None,214.64423816266935,None,214.64423816266935,None,214.64423816266935,None,214.64423816266935,None,214.64423816266935,None,215.62795587448636,None,,,,,,,,,,,,,,,,,,,,,,,,,,,,,,23927,2020_Feb_10_1637,Mmi_3levels,3.1.5,59.97668236856065,
,,,1,1,3.9,,,,,,,,,0,0,0,0,0,9,9,11,,,,,,,,,,,,,,,,,,,,,,,,,,,,,,,,,,,,,,,,,,,,,,,,,,,,,,,,,,,,,True,True,False,0.74,-0.26,-3.3599999999999994,7.0,3.9,-3.1,0.3999999999999999,gamble,win,3.9,73.31166666666667,217.64538433845155,None,217.64538433845155,None,217.64538433845155,None,217.64538433845155,None,217.64538433845155,None,217.64538433845155,None,217.64538433845155,None,1,2.0010604206472635,217.64538433845155,None,219.67950498772552,None,219.67950498772552,None,219.67950498772552,None,219.67950498772552,None,219.67950498772552,None,219.67950498772552,None,219.67950498772552,None,223.66434231685707,None,223.66434231685707,None,223.66434231685707,None,223.66434231685707,None,223.66434231685707,None,223.66434231685707,None,223.66434231685707,None,233.16794163529994,None,224.6647189357318,None,225.66503411810845,None,0.75,7.502736966707744,228.66618957341416,None,None,228.66618957341416,None,,,,,,,,,,,,,,,,,,,23927,2020_Feb_10_1637,Mmi_3levels,3.1.5,59.97668236856065,
,,,1,1,10.7,,,,,,,,,0,0,0,0,0,10,10,13,,,,,,,,,,,,,,,,,,,,,,,,,,,,,,,,,,,,,,,,,,,,,,,,,,,,,,,,,,,,,True,True,True,0.75,-0.25,-3.6099999999999994,7.109999999999999,10.7,3.59,1.795,gamble,win,10.7,84.01166666666667,235.18537041923264,None,235.18537041923264,None,235.18537041923264,None,235.18537041923264,None,235.18537041923264,None,235.18537041923264,None,235.18537041923264,None,1,1.0006217252230272,235.18537041923264,None,236.21903157426277,None,236.21903157426277,None,236.21903157426277,None,236.21903157426277,None,236.21903157426277,None,236.21903157426277,None,236.21903157426277,None,240.20393577957293,None,240.20393577957293,None,240.20393577957293,None,240.20393577957293,None,240.20393577957293,None,240.20393577957293,None,240.20393577957293,None,241.20430535892956,None,,,,,,,,,,,,,,,,,,,,,,,,,,,,,,23927,2020_Feb_10_1637,Mmi_3levels,3.1.5,59.97668236856065,
,,,1,1,13.7,,,,,,,,,0,0,0,0,0,11,11,17,,,,,,,,,,,,,,,,,,,,,,,,,,,,,,,,,,,,,,,,,,,,,,,,,,,,,,,,,,,,,True,True,True,0.75,-0.25,-3.8599999999999994,7.359999999999999,13.7,6.34,3.17,gamble,win,13.7,97.71166666666667,243.22173638275126,None,243.22173638275126,None,243.22173638275126,None,243.22173638275126,None,243.22173638275126,None,243.22173638275126,None,243.22173638275126,None,1,1.1840076155494899,243.22173638275126,None,244.43886790337274,None,244.43886790337274,None,244.43886790337274,None,244.43886790337274,None,244.43886790337274,None,244.43886790337274,None,244.43886790337274,None,248.42371611192357,None,248.42371611192357,None,248.42371611192357,None,248.42371611192357,None,248.42371611192357,None,248.42371611192357,None,248.42371611192357,None,257.9273080707644,None,249.42403417406604,None,250.42447222955525,None,0.75,7.502634892472997,253.42559088690905,None,None,253.42559088690905,None,,,,,,,,,,,,,,,,,,,23927,2020_Feb_10_1637,Mmi_3levels,3.1.5,59.97668236856065,
,,,1,1,9.3,,,,,,,,,0,0,0,0,0,12,12,20,,,,,,,,,,,,,,,,,,,,,,,,,,,,,,,,,,,,,,,,,,,,,,,,,,,,,,,,,,,,,True,True,False,0.75,-0.25,-4.109999999999999,7.609999999999999,9.3,1.6900000000000013,0.8450000000000006,gamble,win,9.3,107.01166666666667,259.94473717472283,None,259.94473717472283,None,259.94473717472283,None,259.94473717472283,None,259.94473717472283,None,259.94473717472283,None,259.94473717472283,None,1,1.1504965322092175,259.94473717472283,None,261.1285224027233,None,261.1285224027233,None,261.1285224027233,None,261.1285224027233,None,261.1285224027233,None,261.1285224027233,None,261.1285224027233,None,265.1300352780381,None,265.1300352780381,None,265.1300352780381,None,265.1300352780381,None,265.1300352780381,None,265.1300352780381,None,265.1300352780381,None,266.1137254713685,None,,,,,,,,,,,,,,,,,,,,,,,,,,,,,,23927,2020_Feb_10_1637,Mmi_3levels,3.1.5,59.97668236856065,
,,,1,1,4.5,,,,,,,,,0,0,0,0,0,13,13,8,,,,,,,,,,,,,,,,,,,,,,,,,,,,,,,,,,,,,,,,,,,,,,,,,,,,,,,,,,,,,True,True,True,0.75,-0.25,-4.359999999999999,7.859999999999999,4.5,-3.3599999999999994,0.5700000000000003,gamble,win,4.5,111.51166666666667,268.13117729406804,None,268.13117729406804,None,268.13117729406804,None,268.13117729406804,None,268.13117729406804,None,268.13117729406804,None,268.13117729406804,None,1,1.7342100842506625,268.13117729406804,None,269.89847352547804,None,269.89847352547804,None,269.89847352547804,None,269.89847352547804,None,269.89847352547804,None,269.89847352547804,None,269.89847352547804,None,273.90002351871226,None,273.90002351871226,None,273.90002351871226,None,273.90002351871226,None,273.90002351871226,None,273.90002351871226,None,273.90002351871226,None,274.88373163103824,None,,,,,,,,,,,,,,,,,,,,,,,,,,,,,,23927,2020_Feb_10_1637,Mmi_3levels,3.1.5,59.97668236856065,
,,,1,1,1.7,,,,,,,,,0,0,0,0,0,14,14,25,,,,,,,,,,,,,,,,,,,,,,,,,,,,,,,,,,,,,,,,,,,,,,,,,,,,,,,,,,,,,True,True,True,0.75,-0.25,-4.609999999999999,8.11,1.7,-6.409999999999999,-2.3549999999999995,gamble,win,1.7,113.21166666666667,276.9010932187666,None,276.9010932187666,None,276.9010932187666,None,276.9010932187666,None,276.9010932187666,None,276.9010932187666,None,276.9010932187666,None,1,1.717628612765111,276.9010932187666,None,278.6518204580643,None,278.6518204580643,None,278.6518204580643,None,278.6518204580643,None,278.6518204580643,None,278.6518204580643,None,278.6518204580643,None,282.6533403729554,None,282.6533403729554,None,282.6533403729554,None,282.6533403729554,None,282.6533403729554,None,282.6533403729554,None,282.6533403729554,None,292.140203988587,None,283.63705392496195,None,284.6373579079518,None,0.75,7.502799683192279,287.6385476013529,None,None,287.6385476013529,None,,,,,,,,,,,,,,,,,,,23927,2020_Feb_10_1637,Mmi_3levels,3.1.5,59.97668236856065,
,,,1,1,6.7,,,,,,,,,0,0,0,0,0,15,15,3,,,,,,,,,,,,,,,,,,,,,,,,,,,,,,,,,,,,,,,,,,,,,,,,,,,,,,,,,,,,,True,True,False,0.75,-0.25,-4.859999999999999,8.36,6.7,-1.6599999999999993,-0.8299999999999996,gamble,win,6.7,119.91166666666668,294.15769292920595,None,294.15769292920595,None,294.15769292920595,None,294.15769292920595,None,294.15769292920595,None,294.15769292920595,None,294.15769292920595,None,1,2.2510198628879152,294.15769292920595,None,296.44183157745283,None,296.44183157745283,None,296.44183157745283,None,296.44183157745283,None,296.44183157745283,None,296.44183157745283,None,296.44183157745283,None,300.44340876908973,None,300.44340876908973,None,300.44340876908973,None,300.44340876908973,None,300.44340876908973,None,300.44340876908973,None,300.44340876908973,None,301.4271066420479,None,,,,,,,,,,,,,,,,,,,,,,,,,,,,,,23927,2020_Feb_10_1637,Mmi_3levels,3.1.5,59.97668236856065,
,,,1,1,3.1,,,,,,,,,0,0,0,0,0,16,16,26,,,,,,,,,,,,,,,,,,,,,,,,,,,,,,,,,,,,,,,,,,,,,,,,,,,,,,,,,,,,,True,True,True,0.75,-0.25,-5.109999999999999,8.61,3.1,-5.51,-1.2049999999999998,gamble,win,3.1,123.01166666666667,303.44454886525637,None,303.44454886525637,None,303.44454886525637,None,303.44454886525637,None,303.44454886525637,None,303.44454886525637,None,303.44454886525637,None,1,2.6012069723801687,303.44454886525637,None,306.0788176662172,None,306.0788176662172,None,306.0788176662172,None,306.0788176662172,None,306.0788176662172,None,306.0788176662172,None,306.0788176662172,None,310.08036829938646,None,310.08036829938646,None,310.08036829938646,None,310.08036829938646,None,310.08036829938646,None,310.08036829938646,None,310.08036829938646,None,319.56725463375915,None,311.06407449184917,None,312.0644719096017,None,0.75,7.502727367274929,315.0655841673142,None,None,315.0655841673142,None,,,,,,,,,,,,,,,,,,,23927,2020_Feb_10_1637,Mmi_3levels,3.1.5,59.97668236856065,
,,,1,1,2.1,,,,,,,,,0,0,0,0,0,17,17,15,,,,,,,,,,,,,,,,,,,,,,,,,,,,,,,,,,,,,,,,,,,,,,,,,,,,,,,,,,,,,True,False,False,0.75,-0.25,-5.359999999999999,-1.3216666666666665,2.1,0.7783333333333335,1.439166666666667,certain,certain,1.439166666666667,124.45083333333334,321.5847166958847,None,321.5847166958847,None,321.5847166958847,None,321.5847166958847,None,321.5847166958847,None,321.5847166958847,None,321.5847166958847,None,3,2.617944595112931,321.5847166958847,None,324.2357407185482,None,324.2357407185482,None,324.2357407185482,None,324.2357407185482,None,324.2357407185482,None,324.2357407185482,None,324.2357407185482,None,328.2205335701001,None,328.2205335701001,None,328.2205335701001,None,328.2205335701001,None,328.2205335701001,None,328.2205335701001,None,328.2205335701001,None,329.22095850633923,None,,,,,,,,,,,,,,,,,,,,,,,,,,,,,,23927,2020_Feb_10_1637,Mmi_3levels,3.1.5,59.97668236856065,
,,,1,1,2.3,,,,,,,,,0,0,0,0,0,18,18,16,,,,,,,,,,,,,,,,,,,,,,,,,,,,,,,,,,,,,,,,,,,,,,,,,,,,,,,,,,,,,True,True,True,0.75,-0.25,-5.609999999999999,9.11,2.3,-6.81,-2.255,gamble,win,2.3,126.75083333333333,331.2384007295477,None,331.2384007295477,None,331.2384007295477,None,331.2384007295477,None,331.2384007295477,None,331.2384007295477,None,331.2384007295477,None,1,2.3343198380898684,331.2384007295477,None,333.6059638260049,None,333.6059638260049,None,333.6059638260049,None,333.6059638260049,None,333.6059638260049,None,333.6059638260049,None,333.6059638260049,None,337.5908043549862,None,337.5908043549862,None,337.5908043549862,None,337.5908043549862,None,337.5908043549862,None,337.5908043549862,None,337.5908043549862,None,338.59112721687416,None,,,,,,,,,,,,,,,,,,,,,,,,,,,,,,23927,2020_Feb_10_1637,Mmi_3levels,3.1.5,59.97668236856065,
,,,1,1,5.7,,,,,,,,,0,0,0,0,0,19,19,4,,,,,,,,,,,,,,,,,,,,,,,,,,,,,,,,,,,,,,,,,,,,,,,,,,,,,,,,,,,,,True,True,True,0.75,-0.25,-5.859999999999999,9.36,5.7,-3.6599999999999993,1.0200000000000005,certain,certain,1.0200000000000005,127.77083333333333,340.60858543921495,None,340.60858543921495,None,340.60858543921495,None,340.60858543921495,None,340.60858543921495,None,340.60858543921495,None,340.60858543921495,None,3,1.9177031686413102,340.60858543921495,None,342.55936483555706,None,342.55936483555706,None,342.55936483555706,None,342.55936483555706,None,342.55936483555706,None,342.55936483555706,None,342.55936483555706,None,346.56081307446584,None,346.56081307446584,None,346.56081307446584,None,346.56081307446584,None,346.56081307446584,None,346.56081307446584,None,346.56081307446584,None,356.04778932378395,None,347.5445154271438,None,348.54495764238527,None,0.77,7.502826881653164,351.54606894013705,None,None,351.54606894013705,None,,,,,,,,,,,,,,,,,,,23927,2020_Feb_10_1637,Mmi_3levels,3.1.5,59.97668236856065,
,,,1,1,7.1,,,,,,,,,0,0,0,0,0,20,20,7,,,,,,,,,,,,,,,,,,,,,,,,,,,,,,,,,,,,,,,,,,,,,,,,,,,,,,,,,,,,,True,True,False,0.77,-0.22999999999999998,-6.09,9.309999999999999,7.1,-2.209999999999999,-1.1049999999999995,gamble,win,7.1,134.87083333333334,358.0651979488903,None,358.0651979488903,None,358.0651979488903,None,358.0651979488903,None,358.0651979488903,None,358.0651979488903,None,358.0651979488903,None,1,2.684622141183354,358.0651979488903,None,360.78292415622855,None,360.78292415622855,None,360.78292415622855,None,360.78292415622855,None,360.78292415622855,None,360.78292415622855,None,360.78292415622855,None,364.78443927143235,None,364.78443927143235,None,364.78443927143235,None,364.78443927143235,None,364.78443927143235,None,364.78443927143235,None,364.78443927143235,None,365.76812242512824,None,,,,,,,,,,,,,,,,,,,,,,,,,,,,,,23927,2020_Feb_10_1637,Mmi_3levels,3.1.5,59.97668236856065,
,,,1,1,12.1,,,,,,,,,0,0,0,0,0,21,21,9,,,,,,,,,,,,,,,,,,,,,,,,,,,,,,,,,,,,,,,,,,,,,,,,,,,,,,,,,,,,,True,False,True,0.77,-0.22999999999999998,-6.32,-1.3316666666666666,12.1,10.768333333333333,5.384166666666666,gamble,lose,10.768333333333333,145.63916666666668,367.78556688828394,None,367.78556688828394,None,367.78556688828394,None,367.78556688828394,None,367.78556688828394,None,367.78556688828394,None,367.78556688828394,None,1,1.6842439222964458,367.78556688828394,None,369.5029011175502,None,369.5029011175502,None,369.5029011175502,None,369.5029011175502,None,369.5029011175502,None,369.5029011175502,None,369.5029011175502,None,373.48772724729497,None,373.48772724729497,None,373.48772724729497,None,373.48772724729497,None,373.48772724729497,None,373.48772724729497,None,373.48772724729497,None,382.9913278456661,None,374.4881128256675,None,375.4884910444962,None,0.77,7.502816642227117,378.48956778418506,None,None,378.48956778418506,None,,,,,,,,,,,,,,,,,,,23927,2020_Feb_10_1637,Mmi_3levels,3.1.5,59.97668236856065,
,,,1,1,4.3,,,,,,,,,0,0,0,0,0,22,22,24,,,,,,,,,,,,,,,,,,,,,,,,,,,,,,,,,,,,,,,,,,,,,,,,,,,,,,,,,,,,,True,True,True,0.77,-0.22999999999999998,-6.550000000000001,9.77,4.3,-5.47,-0.585,gamble,win,4.3,149.9391666666667,385.00875982944854,None,385.00875982944854,None,385.00875982944854,None,385.00875982944854,None,385.00875982944854,None,385.00875982944854,None,385.00875982944854,None,1,2.101056420826353,385.00875982944854,None,387.1428988776752,None,387.1428988776752,None,387.1428988776752,None,387.1428988776752,None,387.1428988776752,None,387.1428988776752,None,387.1428988776752,None,391.14441783260554,None,391.14441783260554,None,391.14441783260554,None,391.14441783260554,None,391.14441783260554,None,391.14441783260554,None,391.14441783260554,None,392.1280993864639,None,,,,,,,,,,,,,,,,,,,,,,,,,,,,,,23927,2020_Feb_10_1637,Mmi_3levels,3.1.5,59.97668236856065,
,,,1,1,8.5,,,,,,,,,0,0,0,0,0,23,23,23,,,,,,,,,,,,,,,,,,,,,,,,,,,,,,,,,,,,,,,,,,,,,,,,,,,,,,,,,,,,,True,True,True,0.77,-0.22999999999999998,-6.780000000000001,10.0,8.5,-1.5,-0.75,gamble,win,8.5,158.4391666666667,394.14552497060504,None,394.14552497060504,None,394.14552497060504,None,394.14552497060504,None,394.14552497060504,None,394.14552497060504,None,394.14552497060504,None,1,1.7843045589397661,394.14552497060504,None,395.9629095970886,None,395.9629095970886,None,395.9629095970886,None,395.9629095970886,None,395.9629095970886,None,395.9629095970886,None,395.9629095970886,None,399.9643591158674,None,399.9643591158674,None,399.9643591158674,None,399.9643591158674,None,399.9643591158674,None,399.9643591158674,None,399.9643591158674,None,409.4513283256092,None,400.94810914591653,None,401.94849952403456,None,0.73,7.502758405520581,404.94963194063166,None,None,404.94963194063166,None,,,,,,,,,,,,,,,,,,,23927,2020_Feb_10_1637,Mmi_3levels,3.1.5,59.97668236856065,
,,,1,1,11.9,,,,,,,,,0,0,0,0,0,24,24,6,,,,,,,,,,,,,,,,,,,,,,,,,,,,,,,,,,,,,,,,,,,,,,,,,,,,,,,,,,,,,True,False,True,0.73,-0.27,-7.050000000000001,-1.5325000000000002,11.9,10.3675,5.18375,gamble,lose,10.3675,168.8066666666667,411.4687907077023,None,411.4687907077023,None,411.4687907077023,None,411.4687907077023,None,411.4687907077023,None,411.4687907077023,None,411.4687907077023,None,1,1.5341540873632766,411.4687907077023,None,413.0360418216442,None,413.0360418216442,None,413.0360418216442,None,413.0360418216442,None,413.0360418216442,None,413.0360418216442,None,413.0360418216442,None,417.0208119545132,None,417.0208119545132,None,417.0208119545132,None,417.0208119545132,None,417.0208119545132,None,417.0208119545132,None,417.0208119545132,None,418.0212058524485,None,,,,,,,,,,,,,,,,,,,,,,,,,,,,,,23927,2020_Feb_10_1637,Mmi_3levels,3.1.5,59.97668236856065,
,,,1,1,13.1,,,,,,,,,0,0,0,0,0,25,25,21,,,,,,,,,,,,,,,,,,,,,,,,,,,,,,,,,,,,,,,,,,,,,,,,,,,,,,,,,,,,,True,True,False,0.73,-0.27,-7.32,11.100000000000001,13.1,1.9999999999999982,0.9999999999999991,gamble,win,13.1,181.9066666666667,420.0386835937388,None,420.0386835937388,None,420.0386835937388,None,420.0386835937388,None,420.0386835937388,None,420.0386835937388,None,420.0386835937388,None,1,1.7173959858482704,420.0386835937388,None,421.7893621957046,None,421.7893621957046,None,421.7893621957046,None,421.7893621957046,None,421.7893621957046,None,421.7893621957046,None,421.7893621957046,None,425.77412816882133,None,425.77412816882133,None,425.77412816882133,None,425.77412816882133,None,425.77412816882133,None,425.77412816882133,None,425.77412816882133,None,426.7745726239518,None,,,,,,,,,,,,,,,,,,,,,,,,,,,,,,23927,2020_Feb_10_1637,Mmi_3levels,3.1.5,59.97668236856065,
,,,1,1,12.9,,,,,,,,,0,0,0,0,0,26,26,22,,,,,,,,,,,,,,,,,,,,,,,,,,,,,,,,,,,,,,,,,,,,,,,,,,,,,,,,,,,,,True,True,False,0.73,-0.27,-7.59,11.370000000000001,12.9,1.5299999999999994,0.7649999999999997,gamble,win,12.9,194.8066666666667,428.7919508507475,None,428.7919508507475,None,428.7919508507475,None,428.7919508507475,None,428.7919508507475,None,428.7919508507475,None,428.7919508507475,None,1,0.8338915421045385,428.7919508507475,None,429.6589394193725,None,429.6589394193725,None,429.6589394193725,None,429.6589394193725,None,429.6589394193725,None,429.6589394193725,None,429.6589394193725,None,433.64381130656693,None,433.64381130656693,None,433.64381130656693,None,433.64381130656693,None,433.64381130656693,None,433.64381130656693,None,433.64381130656693,None,443.14737766684266,None,434.64422184356954,None,435.644539265777,None,0.75,7.502725447353441,438.6456697625108,None,None,438.6456697625108,None,,,,,,,,,,,,,,,,,,,23927,2020_Feb_10_1637,Mmi_3levels,3.1.5,59.97668236856065,
,,,2,0,11.5,,,,,,,,,0,1,1,1,0,0,0,19,,,,,,,,,,,,,,,,,,,,,,,,,,,,,,,,,,,,,,,,,,,,,,,,,447.3323679473833,None,0.74,7.4183647315367125,450.3501519114943,None,4,4.385232826927677,450.3501519114943,None,454.75181677826913,None,False,False,False,0.74,0.74,0.74,2.6516666666666664,2.875,0.2233333333333336,1.5491666666666668,certain,certain,1.5491666666666668,196.35583333333338,457.7863223659224,None,457.7863223659224,None,457.7863223659224,None,457.7863223659224,None,457.7863223659224,None,457.7863223659224,None,457.7863223659224,None,3,1.8509689857601188,457.7863223659224,None,459.67036565952003,None,459.67036565952003,None,459.67036565952003,None,459.67036565952003,None,459.67036565952003,None,459.67036565952003,None,459.67036565952003,None,463.6552081083646,None,463.6552081083646,None,463.6552081083646,None,463.6552081083646,None,463.6552081083646,None,463.6552081083646,None,463.6552081083646,None,464.65552361070877,None,,,,,,,,,,,,445.14818690152606,None,4,2.167727567255497,445.14818690152606,None,,,,,,,,,,,,,23927,2020_Feb_10_1637,Mmi_3levels,3.1.5,59.97668236856065,
,,,2,0,0.9,,,,,,,,,0,1,1,1,0,1,1,22,,,,,,,,,,,,,,,,,,,,,,,,,,,,,,,,,,,,,,,,,,,,,,,,,,,,,,,,,,,,,False,True,False,0.74,0.74,1.48,-11.84,0.9,-10.94,-5.02,certain,certain,-5.02,191.33583333333337,466.67301351123024,None,466.67301351123024,None,466.67301351123024,None,466.67301351123024,None,466.67301351123024,None,466.67301351123024,None,466.67301351123024,None,3,2.834669098549057,466.67301351123024,None,469.5407719567884,None,469.5407719567884,None,469.5407719567884,None,469.5407719567884,None,469.5407719567884,None,469.5407719567884,None,469.5407719567884,None,473.5422857920057,None,473.5422857920057,None,473.5422857920057,None,473.5422857920057,None,473.5422857920057,None,473.5422857920057,None,473.5422857920057,None,483.02921404404333,None,474.52599294437096,None,475.52637276315363,None,0.74,7.5027433664072305,478.5274981401162,None,None,478.5274981401162,None,,,,,,,,,,,,,,,,,,,23927,2020_Feb_10_1637,Mmi_3levels,3.1.5,59.97668236856065,
,,,2,0,12.7,,,,,,,,,0,1,1,1,0,2,2,4,,,,,,,,,,,,,,,,,,,,,,,,,,,,,,,,,,,,,,,,,,,,,,,,,,,,,,,,,,,,,False,False,False,0.74,0.74,2.2199999999999998,2.775,3.175,0.3999999999999999,1.7874999999999999,gamble,win,3.175,194.51083333333338,485.0466303487192,None,485.0466303487192,None,485.0466303487192,None,485.0466303487192,None,485.0466303487192,None,485.0466303487192,None,485.0466303487192,None,1,2.1009117889916524,485.0466303487192,None,487.18078859586967,None,487.18078859586967,None,487.18078859586967,None,487.18078859586967,None,487.18078859586967,None,487.18078859586967,None,487.18078859586967,None,491.16562464501476,None,491.16562464501476,None,491.16562464501476,None,491.16562464501476,None,491.16562464501476,None,491.16562464501476,None,491.16562464501476,None,492.1659942243132,None,,,,,,,,,,,,,,,,,,,,,,,,,,,,,,23927,2020_Feb_10_1637,Mmi_3levels,3.1.5,59.97668236856065,
,,,2,0,-1.3,,,,,,,,,0,1,1,1,0,3,3,14,,,,,,,,,,,,,,,,,,,,,,,,,,,,,,,,,,,,,,,,,,,,,,,,,,,,,,,,,,,,,False,True,False,0.74,0.74,2.96,-13.32,-1.3,-14.620000000000001,-7.960000000000001,gamble,lose,-14.620000000000001,179.89083333333338,494.18344092729967,None,494.18344092729967,None,494.18344092729967,None,494.18344092729967,None,494.18344092729967,None,494.18344092729967,None,494.18344092729967,None,1,2.434303999005351,494.18344092729967,None,496.6509718655725,None,496.6509718655725,None,496.6509718655725,None,496.6509718655725,None,496.6509718655725,None,496.6509718655725,None,496.6509718655725,None,500.6525586567004,None,500.6525586567004,None,500.6525586567004,None,500.6525586567004,None,500.6525586567004,None,500.6525586567004,None,500.6525586567004,None,510.156091418874,None,501.6362597294501,None,502.6366427480243,None,0.7,7.519325157802086,505.6377034885809,None,None,505.6377034885809,None,,,,,,,,,,,,,,,,,,,23927,2020_Feb_10_1637,Mmi_3levels,3.1.5,59.97668236856065,
,,,2,0,1.1,,,,,,,,,0,1,1,1,0,4,4,12,,,,,,,,,,,,,,,,,,,,,,,,,,,,,,,,,,,,,,,,,,,,,,,,,,,,,,,,,,,,,False,False,False,0.7,0.7,3.66,2.755,0.275,-2.48,-1.1025,certain,certain,-1.1025,178.78833333333338,512.1735134832561,None,512.1735134832561,None,512.1735134832561,None,512.1735134832561,None,512.1735134832561,None,512.1735134832561,None,512.1735134832561,None,3,2.334486548730638,512.1735134832561,None,514.5410890590283,None,514.5410890590283,None,514.5410890590283,None,514.5410890590283,None,514.5410890590283,None,514.5410890590283,None,514.5410890590283,None,518.5426624108804,None,518.5426624108804,None,518.5426624108804,None,518.5426624108804,None,518.5426624108804,None,518.5426624108804,None,518.5426624108804,None,519.5263449246995,None,,,,,,,,,,,,,,,,,,,,,,,,,,,,,,23927,2020_Feb_10_1637,Mmi_3levels,3.1.5,59.97668236856065,
,,,2,0,8.7,,,,,,,,,0,1,1,1,0,5,5,10,,,,,,,,,,,,,,,,,,,,,,,,,,,,,,,,,,,,,,,,,,,,,,,,,,,,,,,,,,,,,False,False,False,0.7,0.7,4.36,2.813333333333333,2.175,-0.6383333333333332,0.7683333333333333,certain,certain,0.7683333333333333,179.55666666666673,521.5437980273273,None,521.5437980273273,None,521.5437980273273,None,521.5437980273273,None,521.5437980273273,None,521.5437980273273,None,521.5437980273273,None,3,1.7675554169109091,521.5437980273273,None,523.3444703096757,None,523.3444703096757,None,523.3444703096757,None,523.3444703096757,None,523.3444703096757,None,523.3444703096757,None,523.3444703096757,None,527.3293220379855,None,527.3293220379855,None,527.3293220379855,None,527.3293220379855,None,527.3293220379855,None,527.3293220379855,None,527.3293220379855,None,528.3296976969577,None,,,,,,,,,,,,,,,,,,,,,,,,,,,,,,23927,2020_Feb_10_1637,Mmi_3levels,3.1.5,59.97668236856065,
,,,2,0,12.1,,,,,,,,,0,1,1,1,0,6,6,26,,,,,,,,,,,,,,,,,,,,,,,,,,,,,,,,,,,,,,,,,,,,,,,,,,,,,,,,,,,,,False,False,True,0.7,0.7,5.0600000000000005,2.8716666666666666,3.025,0.15333333333333332,1.5891666666666666,gamble,win,3.025,182.58166666666673,530.3471293607727,None,530.3471293607727,None,530.3471293607727,None,530.3471293607727,None,530.3471293607727,None,530.3471293607727,None,530.3471293607727,None,1,1.8175791755784303,530.3471293607727,None,532.1978353212471,None,532.1978353212471,None,532.1978353212471,None,532.1978353212471,None,532.1978353212471,None,532.1978353212471,None,532.1978353212471,None,536.1993203580496,None,536.1993203580496,None,536.1993203580496,None,536.1993203580496,None,536.1993203580496,None,536.1993203580496,None,536.1993203580496,None,545.7029535946203,None,537.183029750362,None,538.1834281280171,None,0.75,7.519463390053716,541.1845519050839,None,None,541.1845519050839,None,,,,,,,,,,,,,,,,,,,23927,2020_Feb_10_1637,Mmi_3levels,3.1.5,59.97668236856065,
,,,2,0,9.3,,,,,,,,,0,1,1,1,0,7,7,25,,,,,,,,,,,,,,,,,,,,,,,,,,,,,,,,,,,,,,,,,,,,,,,,,,,,,,,,,,,,,False,True,False,0.75,0.75,5.8100000000000005,-16.310000000000002,9.3,-7.010000000000002,1.1449999999999996,certain,certain,1.1449999999999996,183.72666666666674,547.720313582453,None,547.720313582453,None,547.720313582453,None,547.720313582453,None,547.720313582453,None,547.720313582453,None,547.720313582453,None,3,1.9176954890717752,547.720313582453,None,549.6711086579016,None,549.6711086579016,None,549.6711086579016,None,549.6711086579016,None,549.6711086579016,None,549.6711086579016,None,549.6711086579016,None,553.672567456204,None,553.672567456204,None,553.672567456204,None,553.672567456204,None,553.672567456204,None,553.672567456204,None,553.672567456204,None,554.6563370051445,None,,,,,,,,,,,,,,,,,,,,,,,,,,,,,,23927,2020_Feb_10_1637,Mmi_3levels,3.1.5,59.97668236856065,
,,,2,0,7.7,,,,,,,,,0,1,1,1,0,8,8,15,,,,,,,,,,,,,,,,,,,,,,,,,,,,,,,,,,,,,,,,,,,,,,,,,,,,,,,,,,,,,False,True,True,0.75,0.75,6.5600000000000005,-17.060000000000002,7.7,-9.360000000000003,-0.8300000000000014,certain,certain,-0.8300000000000014,182.89666666666673,556.6737571496051,None,556.6737571496051,None,556.6737571496051,None,556.6737571496051,None,556.6737571496051,None,556.6737571496051,None,556.6737571496051,None,3,2.3345025478629395,556.6737571496051,None,559.0413311254815,None,559.0413311254815,None,559.0413311254815,None,559.0413311254815,None,559.0413311254815,None,559.0413311254815,None,559.0413311254815,None,563.0428446407313,None,563.0428446407313,None,563.0428446407313,None,563.0428446407313,None,563.0428446407313,None,563.0428446407313,None,563.0428446407313,None,572.5297738526715,None,564.0265594726661,None,565.0268666554475,None,0.73,7.5027756845229305,568.0280505891424,None,None,568.0280505891424,None,,,,,,,,,,,,,,,,,,,23927,2020_Feb_10_1637,Mmi_3levels,3.1.5,59.97668236856065,
,,,2,0,7.5,,,,,,,,,0,1,1,1,0,9,9,17,,,,,,,,,,,,,,,,,,,,,,,,,,,,,,,,,,,,,,,,,,,,,,,,,,,,,,,,,,,,,False,False,True,0.73,0.73,7.290000000000001,3.1624999999999996,1.875,-1.2874999999999996,0.2937500000000002,certain,certain,0.2937500000000002,183.19041666666672,574.5472007167409,None,574.5472007167409,None,574.5472007167409,None,574.5472007167409,None,574.5472007167409,None,574.5472007167409,None,574.5472007167409,None,3,1.650888990261592,574.5472007167409,None,576.2311739342404,None,576.2311739342404,None,576.2311739342404,None,576.2311739342404,None,576.2311739342404,None,576.2311739342404,None,576.2311739342404,None,580.2326253729989,None,580.2326253729989,None,580.2326253729989,None,580.2326253729989,None,580.2326253729989,None,580.2326253729989,None,580.2326253729989,None,581.2164016414899,None,,,,,,,,,,,,,,,,,,,,,,,,,,,,,,23927,2020_Feb_10_1637,Mmi_3levels,3.1.5,59.97668236856065,
,,,2,0,9.1,,,,,,,,,0,1,1,1,0,10,10,1,,,,,,,,,,,,,,,,,,,,,,,,,,,,,,,,,,,,,,,,,,,,,,,,,,,,,,,,,,,,,False,False,False,0.73,0.73,8.020000000000001,3.223333333333333,2.275,-0.9483333333333333,0.6633333333333333,certain,certain,0.6633333333333333,183.85375000000005,583.2338153863675,None,583.2338153863675,None,583.2338153863675,None,583.2338153863675,None,583.2338153863675,None,583.2338153863675,None,583.2338153863675,None,3,1.9343195180990733,583.2338153863675,None,585.2012028126628,None,585.2012028126628,None,585.2012028126628,None,585.2012028126628,None,585.2012028126628,None,585.2012028126628,None,585.2012028126628,None,589.2027505659498,None,589.2027505659498,None,589.2027505659498,None,589.2027505659498,None,589.2027505659498,None,589.2027505659498,None,589.2027505659498,None,590.1863873223192,None,,,,,,,,,,,,,,,,,,,,,,,,,,,,,,23927,2020_Feb_10_1637,Mmi_3levels,3.1.5,59.97668236856065,
,,,2,0,6.1,,,,,,,,,0,1,1,1,0,11,11,16,,,,,,,,,,,,,,,,,,,,,,,,,,,,,,,,,,,,,,,,,,,,,,,,,,,,,,,,,,,,,False,True,True,0.73,0.73,8.750000000000002,-18.97,6.1,-12.87,-3.385,certain,certain,-3.385,180.46875000000006,592.203851304308,None,592.203851304308,None,592.203851304308,None,592.203851304308,None,592.203851304308,None,592.203851304308,None,592.203851304308,None,3,2.0177225275547244,592.203851304308,None,594.2546071819961,None,594.2546071819961,None,594.2546071819961,None,594.2546071819961,None,594.2546071819961,None,594.2546071819961,None,594.2546071819961,None,598.2561760541284,None,598.2561760541284,None,598.2561760541284,None,598.2561760541284,None,598.2561760541284,None,598.2561760541284,None,598.2561760541284,None,607.7431116657681,None,599.2398771268781,None,600.240228147246,None,0.74,7.502742406446487,603.2413938419195,None,None,603.2413938419195,None,,,,,,,,,,,,,,,,,,,23927,2020_Feb_10_1637,Mmi_3levels,3.1.5,59.97668236856065,
,,,2,0,5.9,,,,,,,,,0,1,1,1,0,12,12,7,,,,,,,,,,,,,,,,,,,,,,,,,,,,,,,,,,,,,,,,,,,,,,,,,,,,,,,,,,,,,False,True,False,0.74,0.74,9.490000000000002,-19.85,5.9,-13.950000000000001,-4.025,gamble,lose,-13.950000000000001,166.51875000000007,609.760528610379,None,609.760528610379,None,609.760528610379,None,609.760528610379,None,609.760528610379,None,609.760528610379,None,609.760528610379,None,1,2.601272248721216,609.760528610379,None,612.3948630076484,None,612.3948630076484,None,612.3948630076484,None,612.3948630076484,None,612.3948630076484,None,612.3948630076484,None,612.3948630076484,None,616.396384842461,None,616.396384842461,None,616.396384842461,None,616.396384842461,None,616.396384842461,None,616.396384842461,None,616.396384842461,None,617.3800897549954,None,,,,,,,,,,,,,,,,,,,,,,,,,,,,,,23927,2020_Feb_10_1637,Mmi_3levels,3.1.5,59.97668236856065,
,,,2,0,11.1,,,,,,,,,0,1,1,1,0,13,13,2,,,,,,,,,,,,,,,,,,,,,,,,,,,,,,,,,,,,,,,,,,,,,,,,,,,,,,,,,,,,,False,True,False,0.74,0.74,10.230000000000002,-20.590000000000003,11.1,-9.490000000000004,0.8049999999999979,certain,certain,0.8049999999999979,167.32375000000008,619.3974574223976,None,619.3974574223976,None,619.3974574223976,None,619.3974574223976,None,619.3974574223976,None,619.3974574223976,None,619.3974574223976,None,3,2.701313046447467,619.3974574223976,None,622.131889254204,None,622.131889254204,None,622.131889254204,None,622.131889254204,None,622.131889254204,None,622.131889254204,None,622.131889254204,None,626.1333976497408,None,626.1333976497408,None,626.1333976497408,None,626.1333976497408,None,626.1333976497408,None,626.1333976497408,None,626.1333976497408,None,635.6203255817527,None,627.117104802106,None,628.1174903805368,None,0.74,7.50273216702044,631.1186122377403,None,None,631.1186122377403,None,,,,,,,,,,,,,,,,,,,23927,2020_Feb_10_1637,Mmi_3levels,3.1.5,59.97668236856065,
,,,2,0,7.9,,,,,,,,,0,1,1,1,0,14,14,24,,,,,,,,,,,,,,,,,,,,,,,,,,,,,,,,,,,,,,,,,,,,,,,,,,,,,,,,,,,,,False,False,True,0.74,0.74,10.970000000000002,3.504166666666667,1.975,-1.5291666666666668,0.22291666666666665,certain,certain,0.22291666666666665,167.54666666666674,637.6377633252414,None,637.6377633252414,None,637.6377633252414,None,637.6377633252414,None,637.6377633252414,None,637.6377633252414,None,637.6377633252414,None,3,1.8342873599031009,637.6377633252414,None,639.505130112695,None,639.505130112695,None,639.505130112695,None,639.505130112695,None,639.505130112695,None,639.505130112695,None,639.505130112695,None,643.4899431231897,None,643.4899431231897,None,643.4899431231897,None,643.4899431231897,None,643.4899431231897,None,643.4899431231897,None,643.4899431231897,None,644.4902909437078,None,,,,,,,,,,,,,,,,,,,,,,,,,,,,,,23927,2020_Feb_10_1637,Mmi_3levels,3.1.5,59.97668236856065,
,,,2,0,13.9,,,,,,,,,0,1,1,1,0,15,15,8,,,,,,,,,,,,,,,,,,,,,,,,,,,,,,,,,,,,,,,,,,,,,,,,,,,,,,,,,,,,,False,True,False,0.74,0.74,11.710000000000003,-22.07,13.9,-8.17,-4.085,certain,certain,-4.085,163.46166666666673,646.507778284431,None,646.507778284431,None,646.507778284431,None,646.507778284431,None,646.507778284431,None,646.507778284431,None,646.507778284431,None,3,1.450740198546555,646.507778284431,None,647.9916753461584,None,647.9916753461584,None,647.9916753461584,None,647.9916753461584,None,647.9916753461584,None,647.9916753461584,None,647.9916753461584,None,651.9931955810753,None,651.9931955810753,None,651.9931955810753,None,651.9931955810753,None,651.9931955810753,None,651.9931955810753,None,651.9931955810753,None,661.4801055940916,None,652.9768976137275,None,653.9772156759282,None,0.71,7.502926076180302,656.9784005695838,None,None,656.9784005695838,None,,,,,,,,,,,,,,,,,,,23927,2020_Feb_10_1637,Mmi_3levels,3.1.5,59.97668236856065,
,,,2,0,2.1,,,,,,,,,0,1,1,1,0,16,16,20,,,,,,,,,,,,,,,,,,,,,,,,,,,,,,,,,,,,,,,,,,,,,,,,,,,,,,,,,,,,,False,True,False,0.71,0.71,12.420000000000002,-22.36,2.1,-20.259999999999998,-9.079999999999998,gamble,lose,-20.259999999999998,143.20166666666674,663.4975602966151,None,663.4975602966151,None,663.4975602966151,None,663.4975602966151,None,663.4975602966151,None,663.4975602966151,None,663.4975602966151,None,1,2.4344940683222376,663.4975602966151,None,665.9651549113332,None,665.9651549113332,None,665.9651549113332,None,665.9651549113332,None,665.9651549113332,None,665.9651549113332,None,665.9651549113332,None,669.966647947731,None,669.966647947731,None,669.966647947731,None,669.966647947731,None,669.966647947731,None,669.966647947731,None,669.966647947731,None,670.9503678993788,None,,,,,,,,,,,,,,,,,,,,,,,,,,,,,,23927,2020_Feb_10_1637,Mmi_3levels,3.1.5,59.97668236856065,
,,,2,0,4.1,,,,,,,,,0,1,1,1,0,17,17,0,,,,,,,,,,,,,,,,,,,,,,,,,,,,,,,,,,,,,,,,,,,,,,,,,,,,,,,,,,,,,False,False,False,0.71,0.71,13.130000000000003,3.5791666666666666,1.025,-2.5541666666666667,-0.7645833333333334,certain,certain,-0.7645833333333334,142.43708333333342,672.9678094826522,None,672.9678094826522,None,672.9678094826522,None,672.9678094826522,None,672.9678094826522,None,672.9678094826522,None,672.9678094826522,None,3,2.8345798234804533,672.9678094826522,None,675.8355295303627,None,675.8355295303627,None,675.8355295303627,None,675.8355295303627,None,675.8355295303627,None,675.8355295303627,None,675.8355295303627,None,679.8370497652213,None,679.8370497652213,None,679.8370497652213,None,679.8370497652213,None,679.8370497652213,None,679.8370497652213,None,679.8370497652213,None,680.8207789963926,None,,,,,,,,,,,,,,,,,,,,,,,,,,,,,,23927,2020_Feb_10_1637,Mmi_3levels,3.1.5,59.97668236856065,
,,,2,0,13.3,,,,,,,,,0,1,1,1,0,18,18,23,,,,,,,,,,,,,,,,,,,,,,,,,,,,,,,,,,,,,,,,,,,,,,,,,,,,,,,,,,,,,False,False,False,0.71,0.71,13.840000000000003,3.6383333333333336,3.325,-0.31333333333333346,1.5058333333333334,certain,certain,1.5058333333333334,143.94291666666675,682.8381777020404,None,682.8381777020404,None,682.8381777020404,None,682.8381777020404,None,682.8381777020404,None,682.8381777020404,None,682.8381777020404,None,3,1.367392546031624,682.8381777020404,None,684.23867943394,None,684.23867943394,None,684.23867943394,None,684.23867943394,None,684.23867943394,None,684.23867943394,None,684.23867943394,None,688.2236028382322,None,688.2236028382322,None,688.2236028382322,None,688.2236028382322,None,688.2236028382322,None,688.2236028382322,None,688.2236028382322,None,697.7271848776727,None,689.223894341907,None,690.2243029590463,None,0.72,7.502915196702816,693.2254302559304,None,None,693.2254302559304,None,,,,,,,,,,,,,,,,,,,23927,2020_Feb_10_1637,Mmi_3levels,3.1.5,59.97668236856065,
,,,2,0,5.3,,,,,,,,,0,1,1,1,0,19,19,21,,,,,,,,,,,,,,,,,,,,,,,,,,,,,,,,,,,,,,,,,,,,,,,,,,,,,,,,,,,,,False,True,False,0.72,0.72,14.560000000000004,-24.640000000000004,5.3,-19.340000000000003,-7.020000000000001,certain,certain,-7.020000000000001,136.92291666666674,699.7446095018531,None,699.7446095018531,None,699.7446095018531,None,699.7446095018531,None,699.7446095018531,None,699.7446095018531,None,699.7446095018531,None,3,1.917640452098567,699.7446095018531,None,701.6952874638955,None,701.6952874638955,None,701.6952874638955,None,701.6952874638955,None,701.6952874638955,None,701.6952874638955,None,701.6952874638955,None,705.6968502564123,None,705.6968502564123,None,705.6968502564123,None,705.6968502564123,None,705.6968502564123,None,705.6968502564123,None,705.6968502564123,None,706.6805657283403,None,,,,,,,,,,,,,,,,,,,,,,,,,,,,,,23927,2020_Feb_10_1637,Mmi_3levels,3.1.5,59.97668236856065,
,,,2,0,1.9,,,,,,,,,0,1,1,1,0,20,20,5,,,,,,,,,,,,,,,,,,,,,,,,,,,,,,,,,,,,,,,,,,,,,,,,,,,,,,,,,,,,,False,True,True,0.72,0.72,15.280000000000005,-25.360000000000007,1.9,-23.460000000000008,-10.780000000000005,gamble,lose,-23.460000000000008,113.46291666666673,708.6979349956382,None,708.6979349956382,None,708.6979349956382,None,708.6979349956382,None,708.6979349956382,None,708.6979349956382,None,708.6979349956382,None,None,,708.6979349956382,None,711.6990750918048,None,711.6990750918048,None,711.6990750918048,None,711.6990750918048,None,711.6990750918048,None,711.6990750918048,None,711.6990750918048,None,715.7006516435067,None,715.7006516435067,None,715.7006516435067,None,715.7006516435067,None,715.7006516435067,None,715.7006516435067,None,715.7006516435067,None,725.1875725359423,None,716.6843600758584,None,717.6847386146546,None,0.71,7.502741126518231,720.6857974353479,None,None,720.6857974353479,None,,,,,,,,,,,,,,,,,,,23927,2020_Feb_10_1637,Mmi_3levels,3.1.5,59.97668236856065,
,,,2,0,5.7,,,,,,,,,0,1,1,1,0,21,21,9,,,,,,,,,,,,,,,,,,,,,,,,,,,,,,,,,,,,,,,,,,,,,,,,,,,,,,,,,,,,,False,True,False,0.71,0.71,15.990000000000006,-25.930000000000007,5.7,-20.230000000000008,-7.265000000000004,certain,certain,-7.265000000000004,106.19791666666673,727.204950122803,None,727.204950122803,None,727.204950122803,None,727.204950122803,None,727.204950122803,None,727.204950122803,None,727.204950122803,None,3,2.1844283920363523,727.204950122803,None,729.4224502627621,None,729.4224502627621,None,729.4224502627621,None,729.4224502627621,None,729.4224502627621,None,729.4224502627621,None,729.4224502627621,None,733.4240277744248,None,733.4240277744248,None,733.4240277744248,None,733.4240277744248,None,733.4240277744248,None,733.4240277744248,None,733.4240277744248,None,734.4077320470242,None,,,,,,,,,,,,,,,,,,,,,,,,,,,,,,23927,2020_Feb_10_1637,Mmi_3levels,3.1.5,59.97668236856065,
,,,2,0,3.7,,,,,,,,,0,1,1,1,0,22,22,6,,,,,,,,,,,,,,,,,,,,,,,,,,,,,,,,,,,,,,,,,,,,,,,,,,,,,,,,,,,,,False,False,False,0.71,0.71,16.700000000000006,3.876666666666667,0.925,-2.951666666666667,-1.0133333333333336,certain,certain,-1.0133333333333336,105.18458333333339,736.4251576311653,None,736.4251576311653,None,736.4251576311653,None,736.4251576311653,None,736.4251576311653,None,736.4251576311653,None,736.4251576311653,None,3,1.7009143487666734,736.4251576311653,None,738.1590896509588,None,738.1590896509588,None,738.1590896509588,None,738.1590896509588,None,738.1590896509588,None,738.1590896509588,None,738.1590896509588,None,742.1606726023601,None,742.1606726023601,None,742.1606726023601,None,742.1606726023601,None,742.1606726023601,None,742.1606726023601,None,742.1606726023601,None,751.6475950946915,None,743.1443749549799,None,744.1447294951649,None,0.73,7.502811202604789,747.1458670314751,None,None,747.1458670314751,None,,,,,,,,,,,,,,,,,,,23927,2020_Feb_10_1637,Mmi_3levels,3.1.5,59.97668236856065,
,,,2,0,5.5,,,,,,,,,0,1,1,1,0,23,23,18,,,,,,,,,,,,,,,,,,,,,,,,,,,,,,,,,,,,,,,,,,,,,,,,,,,,,,,,,,,,,False,False,False,0.73,0.73,17.430000000000007,4.0075,1.375,-2.6325000000000003,-0.6287500000000001,gamble,win,1.375,106.55958333333339,753.6650347580435,None,753.6650347580435,None,753.6650347580435,None,753.6650347580435,None,753.6650347580435,None,753.6650347580435,None,753.6650347580435,None,1,2.3844994280370884,753.6650347580435,None,756.0826129736961,None,756.0826129736961,None,756.0826129736961,None,756.0826129736961,None,756.0826129736961,None,756.0826129736961,None,756.0826129736961,None,760.0841111298068,None,760.0841111298068,None,760.0841111298068,None,760.0841111298068,None,760.0841111298068,None,760.0841111298068,None,760.0841111298068,None,761.0678278816631,None,,,,,,,,,,,,,,,,,,,,,,,,,,,,,,23927,2020_Feb_10_1637,Mmi_3levels,3.1.5,59.97668236856065,
,,,2,0,8.3,,,,,,,,,0,1,1,1,0,24,24,13,,,,,,,,,,,,,,,,,,,,,,,,,,,,,,,,,,,,,,,,,,,,,,,,,,,,,,,,,,,,,False,True,True,0.73,0.73,18.160000000000007,-28.380000000000006,8.3,-20.080000000000005,-5.890000000000002,certain,certain,-5.890000000000002,100.66958333333339,763.085192029248,None,763.085192029248,None,763.085192029248,None,763.085192029248,None,763.085192029248,None,763.085192029248,None,763.085192029248,None,3,2.1010823393589817,763.085192029248,None,765.2193400369724,None,765.2193400369724,None,765.2193400369724,None,765.2193400369724,None,765.2193400369724,None,765.2193400369724,None,765.2193400369724,None,769.2209127488895,None,769.2209127488895,None,769.2209127488895,None,769.2209127488895,None,769.2209127488895,None,769.2209127488895,None,769.2209127488895,None,770.2046160615282,None,,,,,,,,,,,,,,,,,,,,,,,,,,,,,,23927,2020_Feb_10_1637,Mmi_3levels,3.1.5,59.97668236856065,
,,,2,0,12.9,,,,,,,,,0,1,1,1,0,25,25,11,,,,,,,,,,,,,,,,,,,,,,,,,,,,,,,,,,,,,,,,,,,,,,,,,,,,,,,,,,,,,False,True,True,0.73,0.73,18.890000000000008,-29.110000000000007,12.9,-16.210000000000008,-1.6550000000000038,certain,certain,-1.6550000000000038,99.01458333333339,772.2220336461323,None,772.2220336461323,None,772.2220336461323,None,772.2220336461323,None,772.2220336461323,None,772.2220336461323,None,772.2220336461323,None,3,2.6846199012943543,772.2220336461323,None,774.9397547337576,None,774.9397547337576,None,774.9397547337576,None,774.9397547337576,None,774.9397547337576,None,774.9397547337576,None,774.9397547337576,None,778.9412650491577,None,778.9412650491577,None,778.9412650491577,None,778.9412650491577,None,778.9412650491577,None,778.9412650491577,None,778.9412650491577,None,788.4281913812738,None,779.9249043653836,None,780.9253232218907,None,0.7,7.502602574240882,783.9264124408946,None,None,783.9264124408946,None,,,,,,,,,,,,,,,,,,,23927,2020_Feb_10_1637,Mmi_3levels,3.1.5,59.97668236856065,
,,,2,0,-0.3,,,,,,,,,0,1,1,1,0,26,26,3,,,,,,,,,,,,,,,,,,,,,,,,,,,,,,,,,,,,,,,,,,,,,,,,,,,,,,,,,,,,,False,True,False,0.7,0.7,19.590000000000007,-29.390000000000008,-0.3,-29.69000000000001,-14.995000000000005,gamble,lose,-29.69000000000001,69.32458333333338,790.4455961665954,None,790.4455961665954,None,790.4455961665954,None,790.4455961665954,None,790.4455961665954,None,790.4455961665954,None,790.4455961665954,None,1,1.934343516768422,790.4455961665954,None,792.4130306302686,None,792.4130306302686,None,792.4130306302686,None,792.4130306302686,None,792.4130306302686,None,792.4130306302686,None,792.4130306302686,None,796.4145252665621,None,796.4145252665621,None,796.4145252665621,None,796.4145252665621,None,796.4145252665621,None,796.4145252665621,None,796.4145252665621,None,797.3982413784834,None,,,,,,,,,,,,,,,,,,,,,,,,,,,,,,23927,2020_Feb_10_1637,Mmi_3levels,3.1.5,59.97668236856065,
,,,3,1,12.7,,,,,,,,,0,2,2,2,0,0,0,19,,,,,,,,,,,,,,,,,,,,,,,,,,,,,,,,,,,,,,,,,,,,,,,,,801.6164502787869,None,0.71,7.502047085319646,804.6176361324033,None,None,,804.6176361324033,None,809.1193373171263,None,True,True,True,0.71,-0.29000000000000004,-0.29000000000000004,4.3500000000000005,12.7,8.349999999999998,4.174999999999999,gamble,win,12.7,82.02458333333338,812.1537814682233,None,812.1537814682233,None,812.1537814682233,None,812.1537814682233,None,812.1537814682233,None,812.1537814682233,None,812.1537814682233,None,1,1.6676630908623338,812.1537814682233,None,813.8544766292907,None,813.8544766292907,None,813.8544766292907,None,813.8544766292907,None,813.8544766292907,None,813.8544766292907,None,813.8544766292907,None,817.8392688409658,None,817.8392688409658,None,817.8392688409658,None,817.8392688409658,None,817.8392688409658,None,817.8392688409658,None,817.8392688409658,None,827.3595977825462,None,818.83968257776,None,819.8400537570124,None,0.74,7.51951746706618,822.8412143319729,None,None,822.8412143319729,None,799.399004215782,None,4,2.200973065511789,799.399004215782,None,,,,,,,,,,,,,23927,2020_Feb_10_1637,Mmi_3levels,3.1.5,59.97668236856065,
,,,3,1,3.7,,,,,,,,,0,2,2,2,0,1,1,20,,,,,,,,,,,,,,,,,,,,,,,,,,,,,,,,,,,,,,,,,,,,,,,,,,,,,,,,,,,,,True,False,True,0.74,-0.26,-0.55,-0.9558333333333333,3.7,2.7441666666666666,1.3720833333333333,gamble,lose,2.7441666666666666,84.76875000000005,829.3769689697656,None,829.3769689697656,None,829.3769689697656,None,829.3769689697656,None,829.3769689697656,None,829.3769689697656,None,829.3769689697656,None,1,1.3674658219097182,829.3769689697656,None,830.7775628564996,None,830.7775628564996,None,830.7775628564996,None,830.7775628564996,None,830.7775628564996,None,830.7775628564996,None,830.7775628564996,None,834.7623320294078,None,834.7623320294078,None,834.7623320294078,None,834.7623320294078,None,834.7623320294078,None,834.7623320294078,None,834.7623320294078,None,835.7627832041471,None,,,,,,,,,,,,,,,,,,,,,,,,,,,,,,23927,2020_Feb_10_1637,Mmi_3levels,3.1.5,59.97668236856065,
,,,3,1,11.7,,,,,,,,,0,2,2,2,0,2,2,13,,,,,,,,,,,,,,,,,,,,,,,,,,,,,,,,,,,,,,,,,,,,,,,,,,,,,,,,,,,,,True,False,True,0.74,-0.26,-0.81,-0.9775,11.7,10.7225,5.36125,gamble,lose,10.7225,95.49125000000005,837.7802084683208,None,837.7802084683208,None,837.7802084683208,None,837.7802084683208,None,837.7802084683208,None,837.7802084683208,None,837.7802084683208,None,1,1.4341379282413982,837.7802084683208,None,839.247438303486,None,839.247438303486,None,839.247438303486,None,839.247438303486,None,839.247438303486,None,839.247438303486,None,839.247438303486,None,843.2489402993233,None,843.2489402993233,None,843.2489402993233,None,843.2489402993233,None,843.2489402993233,None,843.2489402993233,None,843.2489402993233,None,844.2326631308533,None,,,,,,,,,,,,,,,,,,,,,,,,,,,,,,23927,2020_Feb_10_1637,Mmi_3levels,3.1.5,59.97668236856065,
,,,3,1,-1.5,,,,,,,,,0,2,2,2,0,3,3,22,,,,,,,,,,,,,,,,,,,,,,,,,,,,,,,,,,,,,,,,,,,,,,,,,,,,,,,,,,,,,True,True,True,0.74,-0.26,-1.07,4.71,-1.5,-6.21,-3.855,certain,certain,-3.855,91.63625000000005,846.2500839153072,None,846.2500839153072,None,846.2500839153072,None,846.2500839153072,None,846.2500839153072,None,846.2500839153072,None,846.2500839153072,None,3,2.2177855640184134,846.2500839153072,None,848.5009415472741,None,848.5009415472741,None,848.5009415472741,None,848.5009415472741,None,848.5009415472741,None,848.5009415472741,None,848.5009415472741,None,852.5024611421977,None,852.5024611421977,None,852.5024611421977,None,852.5024611421977,None,852.5024611421977,None,852.5024611421977,None,852.5024611421977,None,861.9893177181948,None,853.4860924588284,None,854.4865314742201,None,0.72,7.502693769172765,857.4876024542609,None,None,857.4876024542609,None,,,,,,,,,,,,,,,,,,,23927,2020_Feb_10_1637,Mmi_3levels,3.1.5,59.97668236856065,
,,,3,1,0.7,,,,,,,,,0,2,2,2,0,4,4,23,,,,,,,,,,,,,,,,,,,,,,,,,,,,,,,,,,,,,,,,,,,,,,,,,,,,,,,,,,,,,True,True,False,0.72,-0.28,-1.35,5.2700000000000005,0.7,-4.57,-1.935,certain,certain,-1.935,89.70125000000004,864.0068044189829,None,864.0068044189829,None,864.0068044189829,None,864.0068044189829,None,864.0068044189829,None,864.0068044189829,None,864.0068044189829,None,3,2.0843978337361477,864.0068044189829,None,866.1242208836484,None,866.1242208836484,None,866.1242208836484,None,866.1242208836484,None,866.1242208836484,None,866.1242208836484,None,866.1242208836484,None,870.1257391985855,None,870.1257391985855,None,870.1257391985855,None,870.1257391985855,None,870.1257391985855,None,870.1257391985855,None,870.1257391985855,None,871.109506507637,None,,,,,,,,,,,,,,,,,,,,,,,,,,,,,,23927,2020_Feb_10_1637,Mmi_3levels,3.1.5,59.97668236856065,
,,,3,1,11.5,,,,,,,,,0,2,2,2,0,5,5,4,,,,,,,,,,,,,,,,,,,,,,,,,,,,,,,,,,,,,,,,,,,,,,,,,,,,,,,,,,,,,True,True,False,0.72,-0.28,-1.6300000000000001,5.550000000000001,11.5,5.949999999999999,2.9749999999999996,gamble,win,11.5,101.20125000000004,873.1269253721694,None,873.1269253721694,None,873.1269253721694,None,873.1269253721694,None,873.1269253721694,None,873.1269253721694,None,873.1269253721694,None,1,1.700759157538414,873.1269253721694,None,874.860898349667,None,874.860898349667,None,874.860898349667,None,874.860898349667,None,874.860898349667,None,874.860898349667,None,874.860898349667,None,878.8457641571877,None,878.8457641571877,None,878.8457641571877,None,878.8457641571877,None,878.8457641571877,None,878.8457641571877,None,878.8457641571877,None,888.3493621957023,None,879.8461465357686,None,880.8465215548058,None,0.73,7.502704968501348,883.8476514115464,None,None,883.8476514115464,None,,,,,,,,,,,,,,,,,,,23927,2020_Feb_10_1637,Mmi_3levels,3.1.5,59.97668236856065,
,,,3,1,2.9,,,,,,,,,0,2,2,2,0,6,6,14,,,,,,,,,,,,,,,,,,,,,,,,,,,,,,,,,,,,,,,,,,,,,,,,,,,,,,,,,,,,,True,True,True,0.73,-0.27,-1.9000000000000001,5.680000000000001,2.9,-2.7800000000000007,0.05999999999999961,gamble,win,2.9,104.10125000000005,890.3667884198367,None,890.3667884198367,None,890.3667884198367,None,890.3667884198367,None,890.3667884198367,None,890.3667884198367,None,890.3667884198367,None,1,1.034004175744485,890.3667884198367,None,891.4338653035229,None,891.4338653035229,None,891.4338653035229,None,891.4338653035229,None,891.4338653035229,None,891.4338653035229,None,891.4338653035229,None,895.4186555952765,None,895.4186555952765,None,895.4186555952765,None,895.4186555952765,None,895.4186555952765,None,895.4186555952765,None,895.4186555952765,None,896.419092690805,None,,,,,,,,,,,,,,,,,,,,,,,,,,,,,,23927,2020_Feb_10_1637,Mmi_3levels,3.1.5,59.97668236856065,
,,,3,1,11.1,,,,,,,,,0,2,2,2,0,7,7,7,,,,,,,,,,,,,,,,,,,,,,,,,,,,,,,,,,,,,,,,,,,,,,,,,,,,,,,,,,,,,True,True,False,0.73,-0.27,-2.17,5.95,11.1,5.1499999999999995,2.5749999999999997,gamble,win,11.1,115.20125000000004,898.4365121953306,None,898.4365121953306,None,898.4365121953306,None,898.4365121953306,None,898.4365121953306,None,898.4365121953306,None,898.4365121953306,None,1,1.9343271976686083,898.4365121953306,None,900.4038705032435,None,900.4038705032435,None,900.4038705032435,None,900.4038705032435,None,900.4038705032435,None,900.4038705032435,None,900.4038705032435,None,904.3887107121991,None,904.3887107121991,None,904.3887107121991,None,904.3887107121991,None,904.3887107121991,None,904.3887107121991,None,904.3887107121991,None,913.8923711472307,None,905.3891564472578,None,906.389529866341,None,0.72,7.50270752835786,909.3906587631209,None,None,909.3906587631209,None,,,,,,,,,,,,,,,,,,,23927,2020_Feb_10_1637,Mmi_3levels,3.1.5,59.97668236856065,
,,,3,1,1.7,,,,,,,,,0,2,2,2,0,8,8,8,,,,,,,,,,,,,,,,,,,,,,,,,,,,,,,,,,,,,,,,,,,,,,,,,,,,,,,,,,,,,True,False,True,0.72,-0.28,-2.45,-1.1841666666666668,1.7,0.5158333333333331,1.1079166666666667,gamble,lose,0.5158333333333331,115.71708333333338,915.9097816922003,None,915.9097816922003,None,915.9097816922003,None,915.9097816922003,None,915.9097816922003,None,915.9097816922003,None,915.9097816922003,None,1,0.7172183957882226,915.9097816922003,None,916.6600923148217,None,916.6600923148217,None,916.6600923148217,None,916.6600923148217,None,916.6600923148217,None,916.6600923148217,None,916.6600923148217,None,920.6448560480494,None,920.6448560480494,None,920.6448560480494,None,920.6448560480494,None,920.6448560480494,None,920.6448560480494,None,920.6448560480494,None,921.6452454662649,None,,,,,,,,,,,,,,,,,,,,,,,,,,,,,,23927,2020_Feb_10_1637,Mmi_3levels,3.1.5,59.97668236856065,
,,,3,1,7.1,,,,,,,,,0,2,2,2,0,9,9,5,,,,,,,,,,,,,,,,,,,,,,,,,,,,,,,,,,,,,,,,,,,,,,,,,,,,,,,,,,,,,True,True,False,0.72,-0.28,-2.7300000000000004,6.65,7.1,0.4499999999999993,0.22499999999999964,gamble,win,7.1,122.81708333333337,923.6627190477448,None,923.6627190477448,None,923.6627190477448,None,923.6627190477448,None,923.6627190477448,None,923.6627190477448,None,923.6627190477448,None,1,1.3340942506911233,923.6627190477448,None,925.0299314438598,None,925.0299314438598,None,925.0299314438598,None,925.0299314438598,None,925.0299314438598,None,925.0299314438598,None,925.0299314438598,None,929.0314081611577,None,929.0314081611577,None,929.0314081611577,None,929.0314081611577,None,929.0314081611577,None,929.0314081611577,None,929.0314081611577,None,930.0151434719446,None,,,,,,,,,,,,,,,,,,,,,,,,,,,,,,23927,2020_Feb_10_1637,Mmi_3levels,3.1.5,59.97668236856065,
,,,3,1,9.7,,,,,,,,,0,2,2,2,0,10,10,10,,,,,,,,,,,,,,,,,,,,,,,,,,,,,,,,,,,,,,,,,,,,,,,,,,,,,,,,,,,,,True,True,True,0.72,-0.28,-3.0100000000000007,6.9300000000000015,9.7,2.769999999999998,1.384999999999999,gamble,win,9.7,132.51708333333337,932.032577055681,None,932.032577055681,None,932.032577055681,None,932.032577055681,None,932.032577055681,None,932.032577055681,None,932.032577055681,None,1,1.484192725212779,932.032577055681,None,933.5497541737859,None,933.5497541737859,None,933.5497541737859,None,933.5497541737859,None,933.5497541737859,None,933.5497541737859,None,933.5497541737859,None,937.5346551793045,None,937.5346551793045,None,937.5346551793045,None,937.5346551793045,None,937.5346551793045,None,937.5346551793045,None,937.5346551793045,None,947.0382221795735,None,938.5350289183552,None,939.5354183365707,None,0.76,7.502681289857719,942.5365353940288,None,None,942.5365353940288,None,,,,,,,,,,,,,,,,,,,23927,2020_Feb_10_1637,Mmi_3levels,3.1.5,59.97668236856065,
,,,3,1,3.5,,,,,,,,,0,2,2,2,0,11,11,18,,,,,,,,,,,,,,,,,,,,,,,,,,,,,,,,,,,,,,,,,,,,,,,,,,,,,,,,,,,,,True,True,False,0.76,-0.24,-3.250000000000001,6.610000000000001,3.5,-3.110000000000001,0.1949999999999994,certain,certain,0.1949999999999994,132.71208333333337,949.0556880814838,None,949.0556880814838,None,949.0556880814838,None,949.0556880814838,None,949.0556880814838,None,949.0556880814838,None,949.0556880814838,None,3,2.3011319366050884,949.0556880814838,None,951.3898437687312,None,951.3898437687312,None,951.3898437687312,None,951.3898437687312,None,951.3898437687312,None,951.3898437687312,None,951.3898437687312,None,955.3747508539818,None,955.3747508539818,None,955.3747508539818,None,955.3747508539818,None,955.3747508539818,None,955.3747508539818,None,955.3747508539818,None,956.3751277928241,None,,,,,,,,,,,,,,,,,,,,,,,,,,,,,,23927,2020_Feb_10_1637,Mmi_3levels,3.1.5,59.97668236856065,
,,,3,1,0.5,,,,,,,,,0,2,2,2,0,12,12,24,,,,,,,,,,,,,,,,,,,,,,,,,,,,,,,,,,,,,,,,,,,,,,,,,,,,,,,,,,,,,True,True,False,0.76,-0.24,-3.490000000000001,6.850000000000001,0.5,-6.350000000000001,-2.9250000000000007,certain,certain,-2.9250000000000007,129.78708333333336,958.3925613765605,None,958.3925613765605,None,958.3925613765605,None,958.3925613765605,None,958.3925613765605,None,958.3925613765605,None,958.3925613765605,None,3,2.584390634088777,958.3925613765605,None,961.0102157479268,None,961.0102157479268,None,961.0102157479268,None,961.0102157479268,None,961.0102157479268,None,961.0102157479268,None,961.0102157479268,None,965.0117257433594,None,965.0117257433594,None,965.0117257433594,None,965.0117257433594,None,965.0117257433594,None,965.0117257433594,None,965.0117257433594,None,974.4986530354363,None,965.9954408953199,None,966.9958056748728,None,0.73,7.502739846589975,969.9969320117962,None,None,969.9969320117962,None,,,,,,,,,,,,,,,,,,,23927,2020_Feb_10_1637,Mmi_3levels,3.1.5,59.97668236856065,
,,,3,1,0.3,,,,,,,,,0,2,2,2,0,13,13,16,,,,,,,,,,,,,,,,,,,,,,,,,,,,,,,,,,,,,,,,,,,,,,,,,,,,,,,,,,,,,True,False,True,0.73,-0.27,-3.760000000000001,-1.2583333333333335,0.3,-0.9583333333333335,-0.3291666666666667,gamble,lose,-0.9583333333333335,128.82875,976.5160671002232,None,976.5160671002232,None,976.5160671002232,None,976.5160671002232,None,976.5160671002232,None,976.5160671002232,None,976.5160671002232,None,1,1.7175569367827848,976.5160671002232,None,978.2667415424949,None,978.2667415424949,None,978.2667415424949,None,978.2667415424949,None,978.2667415424949,None,978.2667415424949,None,978.2667415424949,None,982.268264977145,None,982.268264977145,None,982.268264977145,None,982.268264977145,None,982.268264977145,None,982.268264977145,None,982.268264977145,None,983.2519762893207,None,,,,,,,,,,,,,,,,,,,,,,,,,,,,,,23927,2020_Feb_10_1637,Mmi_3levels,3.1.5,59.97668236856065,
,,,3,1,8.3,,,,,,,,,0,2,2,2,0,14,14,26,,,,,,,,,,,,,,,,,,,,,,,,,,,,,,,,,,,,,,,,,,,,,,,,,,,,,,,,,,,,,True,True,True,0.73,-0.27,-4.030000000000001,7.810000000000001,8.3,0.4899999999999993,0.24499999999999966,gamble,win,8.3,137.12875000000003,985.2694025134551,None,985.2694025134551,None,985.2694025134551,None,985.2694025134551,None,985.2694025134551,None,985.2694025134551,None,985.2694025134551,None,1,1.3007575575611554,985.2694025134551,None,986.6032401385601,None,986.6032401385601,None,986.6032401385601,None,986.6032401385601,None,986.6032401385601,None,986.6032401385601,None,986.6032401385601,None,990.6047542937449,None,990.6047542937449,None,990.6047542937449,None,990.6047542937449,None,990.6047542937449,None,990.6047542937449,None,990.6047542937449,None,991.5884659258882,None,,,,,,,,,,,,,,,,,,,,,,,,,,,,,,23927,2020_Feb_10_1637,Mmi_3levels,3.1.5,59.97668236856065,
,,,3,1,-0.9,,,,,,,,,0,2,2,2,0,15,15,12,,,,,,,,,,,,,,,,,,,,,,,,,,,,,,,,,,,,,,,,,,,,,,,,,,,,,,,,,,,,,True,True,False,0.73,-0.27,-4.300000000000001,8.080000000000002,-0.9,-8.980000000000002,-4.940000000000001,certain,certain,-4.940000000000001,132.18875000000003,993.6058313534595,None,993.6058313534595,None,993.6058313534595,None,993.6058313534595,None,993.6058313534595,None,993.6058313534595,None,993.6058313534595,None,3,2.784702296659816,993.6058313534595,None,996.4236329165869,None,996.4236329165869,None,996.4236329165869,None,996.4236329165869,None,996.4236329165869,None,996.4236329165869,None,996.4236329165869,None,1000.4251445119153,None,1000.4251445119153,None,1000.4251445119153,None,1000.4251445119153,None,1000.4251445119153,None,1000.4251445119153,None,1000.4251445119153,None,1009.9120638044551,None,1001.408845584665,None,1002.4091556472704,None,0.7,7.50285088038072,1005.4103431007825,None,None,1005.4103431007825,None,,,,,,,,,,,,,,,,,,,23927,2020_Feb_10_1637,Mmi_3levels,3.1.5,59.97668236856065,
,,,3,1,13.9,,,,,,,,,0,2,2,2,0,16,16,0,,,,,,,,,,,,,,,,,,,,,,,,,,,,,,,,,,,,,,,,,,,,,,,,,,,,,,,,,,,,,True,True,False,0.7,-0.30000000000000004,-4.6000000000000005,8.8,13.9,5.1,2.55,gamble,win,13.9,146.08875000000003,1011.9294890686288,None,1011.9294890686288,None,1011.9294890686288,None,1011.9294890686288,None,1011.9294890686288,None,1011.9294890686288,None,1011.9294890686288,None,1,1.3507611573440954,1011.9294890686288,None,1013.3133472525515,None,1013.3133472525515,None,1013.3133472525515,None,1013.3133472525515,None,1013.3133472525515,None,1013.3133472525515,None,1013.3133472525515,None,1017.298162502877,None,1017.298162502877,None,1017.298162502877,None,1017.298162502877,None,1017.298162502877,None,1017.298162502877,None,1017.298162502877,None,1018.298569840088,None,,,,,,,,,,,,,,,,,,,,,,,,,,,,,,23927,2020_Feb_10_1637,Mmi_3levels,3.1.5,59.97668236856065,
,,,3,1,7.3,,,,,,,,,0,2,2,2,0,17,17,3,,,,,,,,,,,,,,,,,,,,,,,,,,,,,,,,,,,,,,,,,,,,,,,,,,,,,,,,,,,,,True,True,True,0.7,-0.30000000000000004,-4.9,9.100000000000001,7.3,-1.8000000000000016,-0.9000000000000008,gamble,win,7.3,153.38875000000004,1020.3160018239287,None,1020.3160018239287,None,1020.3160018239287,None,1020.3160018239287,None,1020.3160018239287,None,1020.3160018239287,None,1020.3160018239287,None,1,2.217759645427577,1020.3160018239287,None,1022.5668565760134,None,1022.5668565760134,None,1022.5668565760134,None,1022.5668565760134,None,1022.5668565760134,None,1022.5668565760134,None,1022.5668565760134,None,1026.5683102546027,None,1026.5683102546027,None,1026.5683102546027,None,1026.5683102546027,None,1026.5683102546027,None,1026.5683102546027,None,1026.5683102546027,None,1036.0552993032616,None,1027.5520801235107,None,1028.5524621821241,None,0.7,7.502712968096603,1031.553566120274,None,None,1031.553566120274,None,,,,,,,,,,,,,,,,,,,23927,2020_Feb_10_1637,Mmi_3levels,3.1.5,59.97668236856065,
,,,3,1,1.5,,,,,,,,,0,2,2,2,0,18,18,21,,,,,,,,,,,,,,,,,,,,,,,,,,,,,,,,,,,,,,,,,,,,,,,,,,,,,,,,,,,,,True,False,False,0.7,-0.30000000000000004,-5.2,-1.4833333333333336,1.5,0.016666666666666385,0.7583333333333332,gamble,lose,0.016666666666666385,153.40541666666672,1038.072723927442,None,1038.072723927442,None,1038.072723927442,None,1038.072723927442,None,1038.072723927442,None,1038.072723927442,None,1038.072723927442,None,1,1.584153527393937,1038.072723927442,None,1039.6900208788575,None,1039.6900208788575,None,1039.6900208788575,None,1039.6900208788575,None,1039.6900208788575,None,1039.6900208788575,None,1039.6900208788575,None,1043.6915260745445,None,1043.6915260745445,None,1043.6915260745445,None,1043.6915260745445,None,1043.6915260745445,None,1043.6915260745445,None,1043.6915260745445,None,1044.6752245874377,None,,,,,,,,,,,,,,,,,,,,,,,,,,,,,,23927,2020_Feb_10_1637,Mmi_3levels,3.1.5,59.97668236856065,
,,,3,1,2.7,,,,,,,,,0,2,2,2,0,19,19,17,,,,,,,,,,,,,,,,,,,,,,,,,,,,,,,,,,,,,,,,,,,,,,,,,,,,,,,,,,,,,True,True,False,0.7,-0.30000000000000004,-5.5,9.700000000000001,2.7,-7.000000000000001,-2.1500000000000004,gamble,win,2.7,156.1054166666667,1046.6926632908871,None,1046.6926632908871,None,1046.6926632908871,None,1046.6926632908871,None,1046.6926632908871,None,1046.6926632908871,None,1046.6926632908871,None,None,,1046.6926632908871,None,1049.6937953874585,None,1049.6937953874585,None,1049.6937953874585,None,1049.6937953874585,None,1049.6937953874585,None,1049.6937953874585,None,1049.6937953874585,None,1053.6953127424931,None,1053.6953127424931,None,1053.6953127424931,None,1053.6953127424931,None,1053.6953127424931,None,1053.6953127424931,None,1053.6953127424931,None,1063.1822381146485,None,1054.6789869367494,None,1055.679399713641,None,0.72,7.502726407314185,1058.680454374582,None,None,1058.680454374582,None,,,,,,,,,,,,,,,,,,,23927,2020_Feb_10_1637,Mmi_3levels,3.1.5,59.97668236856065,
,,,3,1,4.5,,,,,,,,,0,2,2,2,0,20,20,2,,,,,,,,,,,,,,,,,,,,,,,,,,,,,,,,,,,,,,,,,,,,,,,,,,,,,,,,,,,,,True,True,False,0.72,-0.28,-5.78,9.700000000000001,4.5,-5.200000000000001,-0.35000000000000053,gamble,win,4.5,160.6054166666667,1065.1996729783132,None,1065.1996729783132,None,1065.1996729783132,None,1065.1996729783132,None,1065.1996729783132,None,1065.1996729783132,None,1065.1996729783132,None,1,1.0172892718110234,1065.1996729783132,None,1066.2500099994359,None,1066.2500099994359,None,1066.2500099994359,None,1066.2500099994359,None,1066.2500099994359,None,1066.2500099994359,None,1066.2500099994359,None,1070.2348946859129,None,1070.2348946859129,None,1070.2348946859129,None,1070.2348946859129,None,1070.2348946859129,None,1070.2348946859129,None,1070.2348946859129,None,1071.2352863439592,None,,,,,,,,,,,,,,,,,,,,,,,,,,,,,,23927,2020_Feb_10_1637,Mmi_3levels,3.1.5,59.97668236856065,
,,,3,1,10.9,,,,,,,,,0,2,2,2,0,21,21,11,,,,,,,,,,,,,,,,,,,,,,,,,,,,,,,,,,,,,,,,,,,,,,,,,,,,,,,,,,,,,True,False,True,0.72,-0.28,-6.0600000000000005,-1.485,10.9,9.415000000000001,4.7075000000000005,gamble,lose,9.415000000000001,170.0204166666667,1073.2527176878066,None,1073.2527176878066,None,1073.2527176878066,None,1073.2527176878066,None,1073.2527176878066,None,1073.2527176878066,None,1073.2527176878066,None,1,1.2173743870225735,1073.2527176878066,None,1074.5031951810815,None,1074.5031951810815,None,1074.5031951810815,None,1074.5031951810815,None,1074.5031951810815,None,1074.5031951810815,None,1074.5031951810815,None,1078.5046994168079,None,1078.5046994168079,None,1078.5046994168079,None,1078.5046994168079,None,1078.5046994168079,None,1078.5046994168079,None,1078.5046994168079,None,1079.488415528729,None,,,,,,,,,,,,,,,,,,,,,,,,,,,,,,23927,2020_Feb_10_1637,Mmi_3levels,3.1.5,59.97668236856065,
,,,3,1,10.3,,,,,,,,,0,2,2,2,0,22,22,6,,,,,,,,,,,,,,,,,,,,,,,,,,,,,,,,,,,,,,,,,,,,,,,,,,,,,,,,,,,,,True,True,True,0.72,-0.28,-6.340000000000001,10.260000000000002,10.3,0.03999999999999915,0.019999999999999574,gamble,win,10.3,180.32041666666672,1081.5058462326415,None,1081.5058462326415,None,1081.5058462326415,None,1081.5058462326415,None,1081.5058462326415,None,1081.5058462326415,None,1081.5058462326415,None,1,1.1838658635388128,1081.5058462326415,None,1082.7229745534132,None,1082.7229745534132,None,1082.7229745534132,None,1082.7229745534132,None,1082.7229745534132,None,1082.7229745534132,None,1082.7229745534132,None,1086.7244541505934,None,1086.7244541505934,None,1086.7244541505934,None,1086.7244541505934,None,1086.7244541505934,None,1086.7244541505934,None,1086.7244541505934,None,1096.2114150407724,None,1087.708190421341,None,1088.7085715199937,None,0.7,7.50272064760793,1091.709697216982,None,None,1091.709697216982,None,,,,,,,,,,,,,,,,,,,23927,2020_Feb_10_1637,Mmi_3levels,3.1.5,59.97668236856065,
,,,3,1,-0.1,,,,,,,,,0,2,2,2,0,23,23,9,,,,,,,,,,,,,,,,,,,,,,,,,,,,,,,,,,,,,,,,,,,,,,,,,,,,,,,,,,,,,True,True,True,0.7,-0.30000000000000004,-6.640000000000001,10.840000000000002,-0.1,-10.940000000000001,-5.5200000000000005,certain,certain,-5.5200000000000005,174.8004166666667,1098.2288140663877,None,1098.2288140663877,None,1098.2288140663877,None,1098.2288140663877,None,1098.2288140663877,None,1098.2288140663877,None,1098.2288140663877,None,3,2.267776684544515,1098.2288140663877,None,1100.529698656872,None,1100.529698656872,None,1100.529698656872,None,1100.529698656872,None,1100.529698656872,None,1100.529698656872,None,1100.529698656872,None,1104.5312227315153,None,1104.5312227315153,None,1104.5312227315153,None,1104.5312227315153,None,1104.5312227315153,None,1104.5312227315153,None,1104.5312227315153,None,1105.5149388434365,None,,,,,,,,,,,,,,,,,,,,,,,,,,,,,,23927,2020_Feb_10_1637,Mmi_3levels,3.1.5,59.97668236856065,
,,,3,1,6.1,,,,,,,,,0,2,2,2,0,24,24,1,,,,,,,,,,,,,,,,,,,,,,,,,,,,,,,,,,,,,,,,,,,,,,,,,,,,,,,,,,,,,True,False,True,0.7,-0.30000000000000004,-6.94,-1.6283333333333336,6.1,4.471666666666666,2.235833333333333,gamble,lose,4.471666666666666,179.27208333333337,1107.5323637876427,None,1107.5323637876427,None,1107.5323637876427,None,1107.5323637876427,None,1107.5323637876427,None,1107.5323637876427,None,1107.5323637876427,None,None,,1107.5323637876427,None,1110.5335019638878,None,1110.5335019638878,None,1110.5335019638878,None,1110.5335019638878,None,1110.5335019638878,None,1110.5335019638878,None,1110.5335019638878,None,1114.5183412128827,None,1114.5183412128827,None,1114.5183412128827,None,1114.5183412128827,None,1114.5183412128827,None,1114.5183412128827,None,1114.5183412128827,None,1124.021942451247,None,1115.5187309510657,None,1116.51909765054,None,0.76,7.502769284881651,1119.5201590310899,None,None,1119.5201590310899,None,,,,,,,,,,,,,,,,,,,23927,2020_Feb_10_1637,Mmi_3levels,3.1.5,59.97668236856065,
,,,3,1,10.7,,,,,,,,,0,2,2,2,0,25,25,25,,,,,,,,,,,,,,,,,,,,,,,,,,,,,,,,,,,,,,,,,,,,,,,,,,,,,,,,,,,,,True,True,True,0.76,-0.24,-7.180000000000001,10.540000000000001,10.7,0.15999999999999837,0.07999999999999918,gamble,win,10.7,189.97208333333336,1126.0393693153164,None,1126.0393693153164,None,1126.0393693153164,None,1126.0393693153164,None,1126.0393693153164,None,1126.0393693153164,None,1126.0393693153164,None,1,1.6508128344430588,1126.0393693153164,None,1127.7233242938528,None,1127.7233242938528,None,1127.7233242938528,None,1127.7233242938528,None,1127.7233242938528,None,1127.7233242938528,None,1127.7233242938528,None,1131.7248026110465,None,1131.7248026110465,None,1131.7248026110465,None,1131.7248026110465,None,1131.7248026110465,None,1131.7248026110465,None,1131.7248026110465,None,1132.7085715199937,None,,,,,,,,,,,,,,,,,,,,,,,,,,,,,,23927,2020_Feb_10_1637,Mmi_3levels,3.1.5,59.97668236856065,
,,,3,1,7.7,,,,,,,,,0,2,2,2,0,26,26,15,,,,,,,,,,,,,,,,,,,,,,,,,,,,,,,,,,,,,,,,,,,,,,,,,,,,,,,,,,,,,True,True,False,0.76,-0.24,-7.420000000000001,10.780000000000001,7.7,-3.080000000000001,-1.5400000000000005,gamble,win,7.7,197.67208333333335,1134.7259990240564,None,1134.7259990240564,None,1134.7259990240564,None,1134.7259990240564,None,1134.7259990240564,None,1134.7259990240564,None,1134.7259990240564,None,1,1.4507945955265313,1134.7259990240564,None,1136.209884246462,None,1136.209884246462,None,1136.209884246462,None,1136.209884246462,None,1136.209884246462,None,1136.209884246462,None,1136.209884246462,None,1140.211405761307,None,1140.211405761307,None,1140.211405761307,None,1140.211405761307,None,1140.211405761307,None,1140.211405761307,None,1140.211405761307,None,1149.6983384930645,None,1141.195078035642,None,1142.195470653649,None,0.73,7.50282208196586,1145.1965813114657,None,None,1145.1965813114657,None,,,,,,,,,,,,,,,,,,,23927,2020_Feb_10_1637,Mmi_3levels,3.1.5,59.97668236856065,
,,,,,,,,,,,,,,,,,,,,,,,,,,,,,,0,0,0,0,,,,,,,,,,,,,,,,,,,,,,,,,,,,,,,,,,,,,,,,,,,,,,,,,,,,,,,,,,,,,,,,,,,,,,,,,,,,,,,,,,,,,,,,,,,,,,,,,,,,,,,,,,,,,,,,,,,,,,,,,,1151.6990725319483,None,4,1.417455022514332,1151.6990725319483,None,197.67208333333335,4,1153.1496418600436,None,1153.1496418600436,None,1153.1496418600436,None,4,5.118730951100588,1153.1496418600436,None,23927,2020_Feb_10_1637,Mmi_3levels,3.1.5,59.97668236856065,
