currSlide,currImage,currText,blockNum,targetHappiness,highAmount,instructionLoop1.thisRepN,instructionLoop1.thisTrialN,instructionLoop1.thisN,instructionLoop1.thisIndex,instructionLoop2.thisRepN,instructionLoop2.thisTrialN,instructionLoop2.thisN,instructionLoop2.thisIndex,blockLoop.thisRepN,blockLoop.thisTrialN,blockLoop.thisN,blockLoop.thisIndex,trialLoop.thisRepN,trialLoop.thisTrialN,trialLoop.thisN,trialLoop.thisIndex,doRatingLoop.thisRepN,doRatingLoop.thisTrialN,doRatingLoop.thisN,doRatingLoop.thisIndex,trialHappyLoop.thisRepN,trialHappyLoop.thisTrialN,trialHappyLoop.thisN,trialHappyLoop.thisIndex,logWinningsLoop.thisRepN,logWinningsLoop.thisTrialN,logWinningsLoop.thisN,logWinningsLoop.thisIndex,instrImage.started,instrImage.stopped,instrText.started,instrText.stopped,instrContinueText.started,instrContinueText.stopped,instrKeyResp.keys,instrKeyResp.rt,instrKeyResp.started,instrKeyResp.stopped,lifeHappyText.started,lifeHappyText.stopped,lifeHappySlider.response,lifeHappySlider.rt,lifeHappySlider.started,lifeHappySlider.stopped,lifeHappyResp.keys,lifeHappyResp.started,lifeHappyResp.stopped,instrImage_2.started,instrImage_2.stopped,instrText_2.started,instrText_2.stopped,instrContinueText_2.started,instrContinueText_2.stopped,instrKeyResp_2.keys,instrKeyResp_2.rt,instrKeyResp_2.started,instrKeyResp_2.stopped,localizing.started,localizing.stopped,start_exp.keys,start_exp.rt,start_exp.started,start_exp.stopped,blockHappyText.started,blockHappyText.stopped,blockHappySlider.response,blockHappySlider.rt,blockHappySlider.started,blockHappySlider.stopped,blockHappyResp.keys,blockHappyResp.started,blockHappyResp.stopped,blankText.started,blankText.stopped,isHappyBlock,isCongruent,isWinOnTop,lastHappyRating,diff,sumDiff,RPE,winAmount,loseAmount,certainAmount,choice,outcome,outcomeAmount,currentWinnings,fixCross.started,fixCross.stopped,certainBox.started,certainBox.stopped,outcome1Box.started,outcome1Box.stopped,outcome2Box.started,outcome2Box.stopped,certainText.started,certainText.stopped,outcome1Text.started,outcome1Text.stopped,outcome2Text.started,outcome2Text.stopped,choiceKey.keys,choiceKey.started,choiceKey.stopped,fixCross_2.started,fixCross_2.stopped,certainBox_2.started,certainBox_2.stopped,outcome1Box_2.started,outcome1Box_2.stopped,outcome2Box_2.started,outcome2Box_2.stopped,certainText_2.started,certainText_2.stopped,outcome1Text_2.started,outcome1Text_2.stopped,outcome2Text_2.started,outcome2Text_2.stopped,fixCross_3.started,fixCross_3.stopped,certainBox_3.started,certainBox_3.stopped,outcome1Box_3.started,outcome1Box_3.stopped,outcome2Box_3.started,outcome2Box_3.stopped,certainText_3.started,certainText_3.stopped,outcome1Text_3.started,outcome1Text_3.stopped,outcome2Text_3.started,outcome2Text_3.stopped,fixCross_ITI.started,fixCross_ITI.stopped,choiceKey.rt,fixCross_ISI.started,fixCross_ISI.stopped,happyText.started,happyText.stopped,happySlider.response,happySlider.rt,happySlider.started,happySlider.stopped,happyResp.keys,happyResp.started,happyResp.stopped,endOfBlockText.started,endOfBlockText.stopped,restKeyResp.keys,restKeyResp.rt,restKeyResp.started,restKeyResp.stopped,finalWinnings,cashBonus,goodbyeText.started,goodbyeText.stopped,finalWinningsText.started,finalWinningsText.stopped,spaceToContinue.started,spaceToContinue.stopped,goodbyeKeyResp_2.keys,goodbyeKeyResp_2.rt,goodbyeKeyResp_2.started,goodbyeKeyResp_2.stopped,participant,date,expName,psychopyVersion,frameRate,
1,black.png,"Welcome! You are about to play our gambling task.
This task has 3 blocks and takes about 15 minutes.",,,,0,0,0,0,,,,,,,,,,,,,,,,,,,,,,,,,21.068012284828,None,21.068012284828,None,21.068012284828,None,4,21.058502359559498,21.068012284828,None,,,,,,,,,,,,,,,,,,,,,,,,,,,,,,,,,,,,,,,,,,,,,,,,,,,,,,,,,,,,,,,,,,,,,,,,,,,,,,,,,,,,,,,,,,,,,,,,,,,,,,,,,,,,,,,,,,,,,,,,,,,,,,,,23656,2019_Nov_07_1655,Mmi_3levels,3.1.5,59.98080709971365,
2,black.png,"In this game, you may win or lose points. Your goal is to get as many points as possible. These points will be converted to a cash bonus at the end.
Sometimes we will ask you to rate your mood.",,,,0,1,1,1,,,,,,,,,,,,,,,,,,,,,,,,,42.17620816368799,None,42.17620816368799,None,42.17620816368799,None,4,10.254251627757185,42.17620816368799,None,,,,,,,,,,,,,,,,,,,,,,,,,,,,,,,,,,,,,,,,,,,,,,,,,,,,,,,,,,,,,,,,,,,,,,,,,,,,,,,,,,,,,,,,,,,,,,,,,,,,,,,,,,,,,,,,,,,,,,,,,,,,,,,,23656,2019_Nov_07_1655,Mmi_3levels,3.1.5,59.98080709971365,
3,black.png,"On the next screen, please rate how you feel about your life these days. Use the LEFT (green) and RIGHT (blue) buttons to move the slider (you can press and hold them to slide gradually) and the TOP (red) button to lock in your response.
Make your rating as accurately and quickly as you can!",,,,0,2,2,2,,,,,,,,,,,,,,,,,,,,,,,,,52.48016387021926,None,52.48016387021926,None,52.48016387021926,None,4,2.8012883196861367,52.48016387021926,None,,,,,,,,,,,,,,,,,,,,,,,,,,,,,,,,,,,,,,,,,,,,,,,,,,,,,,,,,,,,,,,,,,,,,,,,,,,,,,,,,,,,,,,,,,,,,,,,,,,,,,,,,,,,,,,,,,,,,,,,,,,,,,,,23656,2019_Nov_07_1655,Mmi_3levels,3.1.5,59.98080709971365,
,,,,,,,,,,,,,,,,,,,,,,,,,,,,,,,,,,,,,,,,,,,,55.297917927939125,None,0.92,10.502852017627447,59.29945129139378,None,None,59.29945129139378,None,,,,,,,,,,,,,,,,,,,,,,,,,,,,,,,,,,,,,,,,,,,,,,,,,,,,,,,,,,,,,,,,,,,,,,,,,,,,,,,,,,,,,,,,,,,,,,,,,,,,,,,,,,,,,,,,,,,,,,,23656,2019_Nov_07_1655,Mmi_3levels,3.1.5,59.98080709971365,
4,black.png,"In this game you can win money by earning points according to your choices. You will decide whether to gamble a number of points or stick with a guaranteed number of points. 
Make your choice by pressing the left or right arrow key once. An example of one trial is shown on the next screen.",,,,,,,,0,0,0,0,,,,,,,,,,,,,,,,,,,,,,,,,,,,,,,,,,,,,,,,65.85199426844702,None,65.85199426844702,None,65.85199426844702,None,4,8.17008398940743,65.85199426844702,None,,,,,,,,,,,,,,,,,,,,,,,,,,,,,,,,,,,,,,,,,,,,,,,,,,,,,,,,,,,,,,,,,,,,,,,,,,,,,,,,,,,,,,,,,,,,,,,,,,,,,,,,,,,,,23656,2019_Nov_07_1655,Mmi_3levels,3.1.5,59.98080709971365,
5,example_start.png,"The GAMBLING OPTION will be shown on the RIGHT SIDE. 
Select this option using the RIGHT (blue) button on your keypad.",,,,,,,,0,1,1,1,,,,,,,,,,,,,,,,,,,,,,,,,,,,,,,,,,,,,,,,74.08847942310967,None,74.08847942310967,None,74.08847942310967,None,4,10.28752836658532,74.08847942310967,None,,,,,,,,,,,,,,,,,,,,,,,,,,,,,,,,,,,,,,,,,,,,,,,,,,,,,,,,,,,,,,,,,,,,,,,,,,,,,,,,,,,,,,,,,,,,,,,,,,,,,,,,,,,,,23656,2019_Nov_07_1655,Mmi_3levels,3.1.5,59.98080709971365,
6,example_gamble.png,"Once you select the gambling choice, the choice you made will remain on the screen.",,,,,,,,0,2,2,2,,,,,,,,,,,,,,,,,,,,,,,,,,,,,,,,,,,,,,,,84.40915237511581,None,84.40915237511581,None,84.40915237511581,None,4,2.801361916015594,84.40915237511581,None,,,,,,,,,,,,,,,,,,,,,,,,,,,,,,,,,,,,,,,,,,,,,,,,,,,,,,,,,,,,,,,,,,,,,,,,,,,,,,,,,,,,,,,,,,,,,,,,,,,,,,,,,,,,,23656,2019_Nov_07_1655,Mmi_3levels,3.1.5,59.98080709971365,
7,example_win.png,"The outcome you received will then be shown on the screen. In this example , you WON 10 points.",,,,,,,,0,3,3,3,,,,,,,,,,,,,,,,,,,,,,,,,,,,,,,,,,,,,,,,87.24354432226755,None,87.24354432226755,None,87.24354432226755,None,4,0.733777449830086,87.24354432226755,None,,,,,,,,,,,,,,,,,,,,,,,,,,,,,,,,,,,,,,,,,,,,,,,,,,,,,,,,,,,,,,,,,,,,,,,,,,,,,,,,,,,,,,,,,,,,,,,,,,,,,,,,,,,,,23656,2019_Nov_07_1655,Mmi_3levels,3.1.5,59.98080709971365,
8,example_start.png,"The GUARANTEED OPTION will be shown on the LEFT SIDE. You are 100% guaranteed to gain or lose this amount. In this example, you have a 100% chance of winning 1 point. Select this option using the LEFT (green) button on your keyboard.",,,,,,,,0,4,4,4,,,,,,,,,,,,,,,,,,,,,,,,,,,,,,,,,,,,,,,,88.02718360299696,None,88.02718360299696,None,88.02718360299696,None,4,2.2677533537535055,88.02718360299696,None,,,,,,,,,,,,,,,,,,,,,,,,,,,,,,,,,,,,,,,,,,,,,,,,,,,,,,,,,,,,,,,,,,,,,,,,,,,,,,,,,,,,,,,,,,,,,,,,,,,,,,,,,,,,,23656,2019_Nov_07_1655,Mmi_3levels,3.1.5,59.98080709971365,
9,example_certain.png,"Once you select the guaranteed choice, your selection will remain on the screen.",,,,,,,,0,5,5,5,,,,,,,,,,,,,,,,,,,,,,,,,,,,,,,,,,,,,,,,90.32801850531905,None,90.32801850531905,None,90.32801850531905,None,4,1.133974751981441,90.32801850531905,None,,,,,,,,,,,,,,,,,,,,,,,,,,,,,,,,,,,,,,,,,,,,,,,,,,,,,,,,,,,,,,,,,,,,,,,,,,,,,,,,,,,,,,,,,,,,,,,,,,,,,,,,,,,,,23656,2019_Nov_07_1655,Mmi_3levels,3.1.5,59.98080709971365,
10,black.png,"Please make your choices as fast as possible.
You will be given a break at the end of each block.
Let's play!",,,,,,,,0,6,6,6,,,,,,,,,,,,,,,,,,,,,,,,,,,,,,,,,,,,,,,,91.49511000411076,None,91.49511000411076,None,91.49511000411076,None,4,2.3511811890348326,91.49511000411076,None,,,,,,,,,,,,,,,,,,,,,,,,,,,,,,,,,,,,,,,,,,,,,,,,,,,,,,,,,,,,,,,,,,,,,,,,,,,,,,,,,,,,,,,,,,,,,,,,,,,,,,,,,,,,,23656,2019_Nov_07_1655,Mmi_3levels,3.1.5,59.98080709971365,
,,,,,,,,,,,,,,,,,,,,,,,,,,,,,,,,,,,,,,,,,,,,,,,,,,,,,,,,,,,,,,,93.86276237090351,None,space,85.98364145661981,93.86276237090351,None,,,,,,,,,,,,,,,,,,,,,,,,,,,,,,,,,,,,,,,,,,,,,,,,,,,,,,,,,,,,,,,,,,,,,,,,,,,,,,,,,,,,,,,,,,,,,,,,,,,,,,,23656,2019_Nov_07_1655,Mmi_3levels,3.1.5,59.98080709971365,
,,,1,1,7.5,,,,,,,,,0,0,0,0,0,0,0,6,,,,,,,,,,,,,,,,,,,,,,,,,,,,,,,,,,,,,,,,,,,,,,,,179.8625569411597,None,1.0,7.493270735925762,182.8803675720519,None,None,182.8803675720519,None,187.3654259179384,None,True,True,False,1.0,0.0,0.0,0.03,7.5,7.47,3.735,gamble,win,7.5,7.5,190.39994867456335,None,190.39994867456335,None,190.39994867456335,None,190.39994867456335,None,190.39994867456335,None,190.39994867456335,None,190.39994867456335,None,None,190.39994867456335,None,193.38437345207785,None,193.38437345207785,None,193.38437345207785,None,193.38437345207785,None,193.38437345207785,None,193.38437345207785,None,193.38437345207785,None,197.38591769498817,None,197.38591769498817,None,197.38591769498817,None,197.38591769498817,None,197.38591769498817,None,197.38591769498817,None,197.38591769498817,None,198.38635447318666,None,,,,,,,,,,,,,,,,,,,,,,,,,,,,,,,23656,2019_Nov_07_1655,Mmi_3levels,3.1.5,59.98080709971365,
,,,1,1,13.5,,,,,,,,,0,0,0,0,0,1,1,9,,,,,,,,,,,,,,,,,,,,,,,,,,,,,,,,,,,,,,,,,,,,,,,,,,,,,,,,,,,True,False,False,1.0,0.0,0.0,-0.03,13.5,13.47,6.735,gamble,lose,13.47,20.97,200.40378880286517,None,200.40378880286517,None,200.40378880286517,None,200.40378880286517,None,200.40378880286517,None,200.40378880286517,None,200.40378880286517,None,1,200.40378880286517,None,201.7709970318283,None,201.7709970318283,None,201.7709970318283,None,201.7709970318283,None,201.7709970318283,None,201.7709970318283,None,201.7709970318283,None,205.75585922750906,None,205.75585922750906,None,205.75585922750906,None,205.75585922750906,None,205.75585922750906,None,205.75585922750906,None,205.75585922750906,None,206.75624480826082,None,1.3341026815942314,,,,,,,,,,,,,,,,,,,,,,,,,,,,,,23656,2019_Nov_07_1655,Mmi_3levels,3.1.5,59.98080709971365,
,,,1,1,1.9,,,,,,,,,0,0,0,0,0,2,2,18,,,,,,,,,,,,,,,,,,,,,,,,,,,,,,,,,,,,,,,,,,,,,,,,,,,,,,,,,,,True,True,True,1.0,0.0,0.0,0.03,1.9,1.8699999999999999,1.8849999999999998,certain,certain,1.8849999999999998,22.854999999999997,208.7736839376994,None,208.7736839376994,None,208.7736839376994,None,208.7736839376994,None,208.7736839376994,None,208.7736839376994,None,208.7736839376994,None,3,208.7736839376994,None,211.34128952282845,None,211.34128952282845,None,211.34128952282845,None,211.34128952282845,None,211.34128952282845,None,211.34128952282845,None,211.34128952282845,None,215.32621667526473,None,215.32621667526473,None,215.32621667526473,None,215.32621667526473,None,215.32621667526473,None,215.32621667526473,None,215.32621667526473,None,224.8298644931674,None,2.5345765139391006,216.32652673978737,None,217.3269286397226,None,1.0,7.5028366583937895,220.32811930028402,None,None,220.32811930028402,None,,,,,,,,,,,,,,,,,,,23656,2019_Nov_07_1655,Mmi_3levels,3.1.5,59.98080709971365,
,,,1,1,3.9,,,,,,,,,0,0,0,0,0,3,3,19,,,,,,,,,,,,,,,,,,,,,,,,,,,,,,,,,,,,,,,,,,,,,,,,,,,,,,,,,,,True,True,False,1.0,0.0,0.0,0.03,3.9,3.87,1.935,gamble,win,3.9,26.754999999999995,226.84731194219057,None,226.84731194219057,None,226.84731194219057,None,226.84731194219057,None,226.84731194219057,None,226.84731194219057,None,226.84731194219057,None,1,226.84731194219057,None,228.43119063496488,None,228.43119063496488,None,228.43119063496488,None,228.43119063496488,None,228.43119063496488,None,228.43119063496488,None,228.43119063496488,None,232.41609026877632,None,232.41609026877632,None,232.41609026877632,None,232.41609026877632,None,232.41609026877632,None,232.41609026877632,None,232.41609026877632,None,233.41647872938483,None,1.550791064510122,,,,,,,,,,,,,,,,,,,,,,,,,,,,,,23656,2019_Nov_07_1655,Mmi_3levels,3.1.5,59.98080709971365,
,,,1,1,12.5,,,,,,,,,0,0,0,0,0,4,4,7,,,,,,,,,,,,,,,,,,,,,,,,,,,,,,,,,,,,,,,,,,,,,,,,,,,,,,,,,,,True,True,True,1.0,0.0,0.0,0.03,12.5,12.47,6.235,gamble,win,12.5,39.254999999999995,235.43394857728708,None,235.43394857728708,None,235.43394857728708,None,235.43394857728708,None,235.43394857728708,None,235.43394857728708,None,235.43394857728708,None,1,235.43394857728708,None,236.58439066721985,None,236.58439066721985,None,236.58439066721985,None,236.58439066721985,None,236.58439066721985,None,236.58439066721985,None,236.58439066721985,None,240.5859339501767,None,240.5859339501767,None,240.5859339501767,None,240.5859339501767,None,240.5859339501767,None,240.5859339501767,None,240.5859339501767,None,250.0728725222034,None,1.1173416623059893,241.56964900312232,None,242.57002882416418,None,1.0,7.502933933537861,245.57117276705685,None,None,245.57117276705685,None,,,,,,,,,,,,,,,,,,,23656,2019_Nov_07_1655,Mmi_3levels,3.1.5,59.98080709971365,
,,,1,1,4.9,,,,,,,,,0,0,0,0,0,5,5,24,,,,,,,,,,,,,,,,,,,,,,,,,,,,,,,,,,,,,,,,,,,,,,,,,,,,,,,,,,,True,True,False,1.0,0.0,0.0,0.03,4.9,4.87,2.435,gamble,win,4.9,44.154999999999994,252.09035292958288,None,252.09035292958288,None,252.09035292958288,None,252.09035292958288,None,252.09035292958288,None,252.09035292958288,None,252.09035292958288,None,1,252.09035292958288,None,253.5408670799152,None,253.5408670799152,None,253.5408670799152,None,253.5408670799152,None,253.5408670799152,None,253.5408670799152,None,253.5408670799152,None,257.5257590341098,None,257.5257590341098,None,257.5257590341098,None,257.5257590341098,None,257.5257590341098,None,257.5257590341098,None,257.5257590341098,None,258.52622045107637,None,1.4174310018424876,,,,,,,,,,,,,,,,,,,,,,,,,,,,,,23656,2019_Nov_07_1655,Mmi_3levels,3.1.5,59.98080709971365,
,,,1,1,13.1,,,,,,,,,0,0,0,0,0,6,6,23,,,,,,,,,,,,,,,,,,,,,,,,,,,,,,,,,,,,,,,,,,,,,,,,,,,,,,,,,,,True,False,True,1.0,0.0,0.0,-0.03,13.1,13.07,6.535,gamble,lose,13.07,57.224999999999994,260.54356646516317,None,260.54356646516317,None,260.54356646516317,None,260.54356646516317,None,260.54356646516317,None,260.54356646516317,None,260.54356646516317,None,1,260.54356646516317,None,261.7940496410447,None,261.7940496410447,None,261.7940496410447,None,261.7940496410447,None,261.7940496410447,None,261.7940496410447,None,261.7940496410447,None,265.79564060162375,None,265.79564060162375,None,265.79564060162375,None,265.79564060162375,None,265.79564060162375,None,265.79564060162375,None,265.79564060162375,None,266.7793470149991,None,1.217438425475848,,,,,,,,,,,,,,,,,,,,,,,,,,,,,,23656,2019_Nov_07_1655,Mmi_3levels,3.1.5,59.98080709971365,
,,,1,1,8.1,,,,,,,,,0,0,0,0,0,7,7,14,,,,,,,,,,,,,,,,,,,,,,,,,,,,,,,,,,,,,,,,,,,,,,,,,,,,,,,,,,,True,True,False,1.0,0.0,0.0,0.03,8.1,8.07,4.035,gamble,win,8.1,65.32499999999999,268.7967935040688,None,268.7967935040688,None,268.7967935040688,None,268.7967935040688,None,268.7967935040688,None,268.7967935040688,None,268.7967935040688,None,1,268.7967935040688,None,270.0139237849253,None,270.0139237849253,None,270.0139237849253,None,270.0139237849253,None,270.0139237849253,None,270.0139237849253,None,270.0139237849253,None,274.01549810633514,None,274.01549810633514,None,274.01549810633514,None,274.01549810633514,None,274.01549810633514,None,274.01549810633514,None,274.01549810633514,None,283.5024459578999,None,1.1840503322091536,274.99918244081346,None,275.99953666313013,None,0.99,7.502809139765304,279.0007122844436,None,None,279.0007122844436,None,,,,,,,,,,,,,,,,,,,23656,2019_Nov_07_1655,Mmi_3levels,3.1.5,59.98080709971365,
,,,1,1,12.7,,,,,,,,,0,0,0,0,0,8,8,8,,,,,,,,,,,,,,,,,,,,,,,,,,,,,,,,,,,,,,,,,,,,,,,,,,,,,,,,,,,True,True,True,0.99,-0.010000000000000009,-0.010000000000000009,0.15000000000000013,12.7,12.549999999999999,6.2749999999999995,gamble,win,12.7,78.02499999999999,285.51984700924004,None,285.51984700924004,None,285.51984700924004,None,285.51984700924004,None,285.51984700924004,None,285.51984700924004,None,285.51984700924004,None,1,285.51984700924004,None,286.48693505220217,None,286.48693505220217,None,286.48693505220217,None,286.48693505220217,None,286.48693505220217,None,286.48693505220217,None,286.48693505220217,None,290.4884031389156,None,290.4884031389156,None,290.4884031389156,None,290.4884031389156,None,290.4884031389156,None,290.4884031389156,None,290.4884031389156,None,291.47218570849145,None,0.933972256105335,,,,,,,,,,,,,,,,,,,,,,,,,,,,,,23656,2019_Nov_07_1655,Mmi_3levels,3.1.5,59.98080709971365,
,,,1,1,8.5,,,,,,,,,0,0,0,0,0,9,9,21,,,,,,,,,,,,,,,,,,,,,,,,,,,,,,,,,,,,,,,,,,,,,,,,,,,,,,,,,,,True,True,False,0.99,-0.010000000000000009,-0.020000000000000018,0.16000000000000014,8.5,8.34,4.17,gamble,win,8.5,86.52499999999999,293.4896334774967,None,293.4896334774967,None,293.4896334774967,None,293.4896334774967,None,293.4896334774967,None,293.4896334774967,None,293.4896334774967,None,1,293.4896334774967,None,295.1902817011396,None,295.1902817011396,None,295.1902817011396,None,295.1902817011396,None,295.1902817011396,None,295.1902817011396,None,295.1902817011396,None,299.17509909905493,None,299.17509909905493,None,299.17509909905493,None,299.17509909905493,None,299.17509909905493,None,299.17509909905493,None,299.17509909905493,None,308.6788083538886,None,1.6675132377422415,300.17554067700985,None,301.175915698288,None,1.0,7.502758902275673,304.17703372247706,None,None,304.17703372247706,None,,,,,,,,,,,,,,,,,,,23656,2019_Nov_07_1655,Mmi_3levels,3.1.5,59.98080709971365,
,,,1,1,1.5,,,,,,,,,0,0,0,0,0,10,10,22,,,,,,,,,,,,,,,,,,,,,,,,,,,,,,,,,,,,,,,,,,,,,,,,,,,,,,,,,,,True,False,False,1.0,0.0,-0.020000000000000018,-0.03,1.5,1.47,1.4849999999999999,certain,certain,1.4849999999999999,88.00999999999999,310.6962138850031,None,310.6962138850031,None,310.6962138850031,None,310.6962138850031,None,310.6962138850031,None,310.6962138850031,None,310.6962138850031,None,3,310.6962138850031,None,313.33060205634683,None,313.33060205634683,None,313.33060205634683,None,313.33060205634683,None,313.33060205634683,None,313.33060205634683,None,313.33060205634683,None,317.3154146545021,None,317.3154146545021,None,317.3154146545021,None,317.3154146545021,None,317.3154146545021,None,317.3154146545021,None,317.3154146545021,None,318.3158687118339,None,2.601295103348093,,,,,,,,,,,,,,,,,,,,,,,,,,,,,,23656,2019_Nov_07_1655,Mmi_3levels,3.1.5,59.98080709971365,
,,,1,1,8.9,,,,,,,,,0,0,0,0,0,11,11,5,,,,,,,,,,,,,,,,,,,,,,,,,,,,,,,,,,,,,,,,,,,,,,,,,,,,,,,,,,,True,False,True,1.0,0.0,-0.020000000000000018,-0.03,8.9,8.870000000000001,4.4350000000000005,gamble,lose,8.870000000000001,96.88,320.3332924820388,None,320.3332924820388,None,320.3332924820388,None,320.3332924820388,None,320.3332924820388,None,320.3332924820388,None,320.3332924820388,None,1,320.3332924820388,None,322.11732150331227,None,322.11732150331227,None,322.11732150331227,None,322.11732150331227,None,322.11732150331227,None,322.11732150331227,None,322.11732150331227,None,326.10210914271374,None,326.10210914271374,None,326.10210914271374,None,326.10210914271374,None,326.10210914271374,None,326.10210914271374,None,326.10210914271374,None,335.60577263983214,None,1.7508991551148938,327.1025040029999,None,328.10295006073284,None,0.99,7.502733623539825,331.10409592353244,None,None,331.10409592353244,None,,,,,,,,,,,,,,,,,,,23656,2019_Nov_07_1655,Mmi_3levels,3.1.5,59.98080709971365,
,,,1,1,0.1,,,,,,,,,0,0,0,0,0,12,12,0,,,,,,,,,,,,,,,,,,,,,,,,,,,,,,,,,,,,,,,,,,,,,,,,,,,,,,,,,,,True,True,True,0.99,-0.010000000000000009,-0.030000000000000027,0.17000000000000015,0.1,-0.07000000000000015,0.01499999999999993,gamble,win,0.1,96.97999999999999,337.623281845772,None,337.623281845772,None,337.623281845772,None,337.623281845772,None,337.623281845772,None,337.623281845772,None,337.623281845772,None,1,337.623281845772,None,339.84080794686815,None,339.84080794686815,None,339.84080794686815,None,339.84080794686815,None,339.84080794686815,None,339.84080794686815,None,339.84080794686815,None,343.8423419502906,None,343.8423419502906,None,343.8423419502906,None,343.8423419502906,None,343.8423419502906,None,343.8423419502906,None,343.8423419502906,None,344.8260998810947,None,2.1844304732330784,,,,,,,,,,,,,,,,,,,,,,,,,,,,,,23656,2019_Nov_07_1655,Mmi_3levels,3.1.5,59.98080709971365,
,,,1,1,3.7,,,,,,,,,0,0,0,0,0,13,13,25,,,,,,,,,,,,,,,,,,,,,,,,,,,,,,,,,,,,,,,,,,,,,,,,,,,,,,,,,,,True,True,True,0.99,-0.010000000000000009,-0.040000000000000036,0.18000000000000016,3.7,3.52,1.76,gamble,win,3.7,100.67999999999999,346.8434983725638,None,346.8434983725638,None,346.8434983725638,None,346.8434983725638,None,346.8434983725638,None,346.8434983725638,None,346.8434983725638,None,1,346.8434983725638,None,348.87762050918536,None,348.87762050918536,None,348.87762050918536,None,348.87762050918536,None,348.87762050918536,None,348.87762050918536,None,348.87762050918536,None,352.86244494674975,None,352.86244494674975,None,352.86244494674975,None,352.86244494674975,None,352.86244494674975,None,352.86244494674975,None,352.86244494674975,None,353.8628609259831,None,2.00103706822847,,,,,,,,,,,,,,,,,,,,,,,,,,,,,,23656,2019_Nov_07_1655,Mmi_3levels,3.1.5,59.98080709971365,
,,,1,1,9.7,,,,,,,,,0,0,0,0,0,14,14,17,,,,,,,,,,,,,,,,,,,,,,,,,,,,,,,,,,,,,,,,,,,,,,,,,,,,,,,,,,,True,True,True,0.99,-0.010000000000000009,-0.050000000000000044,0.19000000000000017,9.7,9.51,4.755,gamble,win,9.7,110.38,355.8802974955506,None,355.8802974955506,None,355.8802974955506,None,355.8802974955506,None,355.8802974955506,None,355.8802974955506,None,355.8802974955506,None,1,355.8802974955506,None,357.6476620687099,None,357.6476620687099,None,357.6476620687099,None,357.6476620687099,None,357.6476620687099,None,357.6476620687099,None,357.6476620687099,None,361.63246698724834,None,361.63246698724834,None,361.63246698724834,None,361.63246698724834,None,361.63246698724834,None,361.63246698724834,None,361.63246698724834,None,371.13609944591735,None,1.7342126281037054,362.6329085652069,None,363.6332954258942,None,0.98,7.50276306206797,366.6344035305774,None,None,366.6344035305774,None,,,,,,,,,,,,,,,,,,,23656,2019_Nov_07_1655,Mmi_3levels,3.1.5,59.98080709971365,
,,,1,1,3.1,,,,,,,,,0,0,0,0,0,15,15,13,,,,,,,,,,,,,,,,,,,,,,,,,,,,,,,,,,,,,,,,,,,,,,,,,,,,,,,,,,,True,False,True,0.98,-0.020000000000000018,-0.07000000000000006,-0.0758333333333334,3.1,3.024166666666667,1.5120833333333334,gamble,lose,3.024166666666667,113.40416666666667,373.15359105273455,None,373.15359105273455,None,373.15359105273455,None,373.15359105273455,None,373.15359105273455,None,373.15359105273455,None,373.15359105273455,None,1,373.15359105273455,None,374.5874788330584,None,374.5874788330584,None,374.5874788330584,None,374.5874788330584,None,374.5874788330584,None,374.5874788330584,None,374.5874788330584,None,378.5723755870131,None,378.5723755870131,None,378.5723755870131,None,378.5723755870131,None,378.5723755870131,None,378.5723755870131,None,378.5723755870131,None,379.57276500757143,None,1.4007953522959724,,,,,,,,,,,,,,,,,,,,,,,,,,,,,,23656,2019_Nov_07_1655,Mmi_3levels,3.1.5,59.98080709971365,
,,,1,1,7.9,,,,,,,,,0,0,0,0,0,16,16,10,,,,,,,,,,,,,,,,,,,,,,,,,,,,,,,,,,,,,,,,,,,,,,,,,,,,,,,,,,,True,True,False,0.98,-0.020000000000000018,-0.09000000000000008,0.37000000000000033,7.9,7.53,3.765,gamble,win,7.9,121.30416666666667,381.5901516596314,None,381.5901516596314,None,381.5901516596314,None,381.5901516596314,None,381.5901516596314,None,381.5901516596314,None,381.5901516596314,None,1,381.5901516596314,None,383.4075418955108,None,383.4075418955108,None,383.4075418955108,None,383.4075418955108,None,383.4075418955108,None,383.4075418955108,None,383.4075418955108,None,387.4090714191552,None,387.4090714191552,None,387.4090714191552,None,387.4090714191552,None,387.4090714191552,None,387.4090714191552,None,387.4090714191552,None,396.91271795712237,None,1.800947536699823,388.4094553999894,None,389.4098131421306,None,0.96,7.50270610491134,392.41093820596507,None,None,392.41093820596507,None,,,,,,,,,,,,,,,,,,,23656,2019_Nov_07_1655,Mmi_3levels,3.1.5,59.98080709971365,
,,,1,1,11.1,,,,,,,,,0,0,0,0,0,17,17,2,,,,,,,,,,,,,,,,,,,,,,,,,,,,,,,,,,,,,,,,,,,,,,,,,,,,,,,,,,,True,True,True,0.96,-0.040000000000000036,-0.13000000000000012,0.6900000000000006,11.1,10.409999999999998,5.204999999999999,gamble,win,11.1,132.40416666666667,398.93017948544,None,398.93017948544,None,398.93017948544,None,398.93017948544,None,398.93017948544,None,398.93017948544,None,398.93017948544,None,1,398.93017948544,None,401.13101521972203,None,401.13101521972203,None,401.13101521972203,None,401.13101521972203,None,401.13101521972203,None,401.13101521972203,None,401.13101521972203,None,405.115867815879,None,405.115867815879,None,405.115867815879,None,405.115867815879,None,405.115867815879,None,405.115867815879,None,405.115867815879,None,406.1162466769674,None,2.167736906576465,,,,,,,,,,,,,,,,,,,,,,,,,,,,,,23656,2019_Nov_07_1655,Mmi_3levels,3.1.5,59.98080709971365,
,,,1,1,0.3,,,,,,,,,0,0,0,0,0,18,18,4,,,,,,,,,,,,,,,,,,,,,,,,,,,,,,,,,,,,,,,,,,,,,,,,,,,,,,,,,,,True,True,False,0.96,-0.040000000000000036,-0.17000000000000015,0.7300000000000006,0.3,-0.43000000000000066,-0.06500000000000034,gamble,win,0.3,132.70416666666668,408.1337184447766,None,408.1337184447766,None,408.1337184447766,None,408.1337184447766,None,408.1337184447766,None,408.1337184447766,None,408.1337184447766,None,None,408.1337184447766,None,411.1348767869531,None,411.1348767869531,None,411.1348767869531,None,411.1348767869531,None,411.1348767869531,None,411.1348767869531,None,411.1348767869531,None,415.1197213835112,None,415.1197213835112,None,415.1197213835112,None,415.1197213835112,None,415.1197213835112,None,415.1197213835112,None,415.1197213835112,None,416.12014632229693,None,,,,,,,,,,,,,,,,,,,,,,,,,,,,,,,23656,2019_Nov_07_1655,Mmi_3levels,3.1.5,59.98080709971365,
,,,1,1,-1.5,,,,,,,,,0,0,0,0,0,19,19,1,,,,,,,,,,,,,,,,,,,,,,,,,,,,,,,,,,,,,,,,,,,,,,,,,,,,,,,,,,,True,True,False,0.96,-0.040000000000000036,-0.2100000000000002,0.7700000000000007,-1.5,-2.2700000000000005,-1.8850000000000002,gamble,win,-1.5,131.20416666666668,418.13757041248755,None,418.13757041248755,None,418.13757041248755,None,418.13757041248755,None,418.13757041248755,None,418.13757041248755,None,418.13757041248755,None,None,418.13757041248755,None,421.1386919564975,None,421.1386919564975,None,421.1386919564975,None,421.1386919564975,None,421.1386919564975,None,421.1386919564975,None,421.1386919564975,None,425.1402675578465,None,425.1402675578465,None,425.1402675578465,None,425.1402675578465,None,425.1402675578465,None,425.1402675578465,None,425.1402675578465,None,434.6272493277138,None,,426.1239870905665,None,427.1243121943371,None,0.99,7.502899375263951,430.1255047748018,None,None,430.1255047748018,None,,,,,,,,,,,,,,,,,,,23656,2019_Nov_07_1655,Mmi_3levels,3.1.5,59.98080709971365,
,,,1,1,4.5,,,,,,,,,0,0,0,0,0,20,20,12,,,,,,,,,,,,,,,,,,,,,,,,,,,,,,,,,,,,,,,,,,,,,,,,,,,,,,,,,,,True,True,True,0.99,-0.010000000000000009,-0.2200000000000002,0.3600000000000003,4.5,4.14,2.07,gamble,win,4.5,135.70416666666668,436.6447639733851,None,436.6447639733851,None,436.6447639733851,None,436.6447639733851,None,436.6447639733851,None,436.6447639733851,None,436.6447639733851,None,1,436.6447639733851,None,438.06190570966646,None,438.06190570966646,None,438.06190570966646,None,438.06190570966646,None,438.06190570966646,None,438.06190570966646,None,438.06190570966646,None,442.0468155829658,None,442.0468155829658,None,442.0468155829658,None,442.0468155829658,None,442.0468155829658,None,442.0468155829658,None,442.0468155829658,None,443.0471278873774,None,1.3840467483860266,,,,,,,,,,,,,,,,,,,,,,,,,,,,,,23656,2019_Nov_07_1655,Mmi_3levels,3.1.5,59.98080709971365,
,,,1,1,11.5,,,,,,,,,0,0,0,0,0,21,21,20,,,,,,,,,,,,,,,,,,,,,,,,,,,,,,,,,,,,,,,,,,,,,,,,,,,,,,,,,,,True,True,True,0.99,-0.010000000000000009,-0.2300000000000002,0.37000000000000033,11.5,11.129999999999999,5.5649999999999995,gamble,win,11.5,147.20416666666668,445.0645977352833,None,445.0645977352833,None,445.0645977352833,None,445.0645977352833,None,445.0645977352833,None,445.0645977352833,None,445.0645977352833,None,1,445.0645977352833,None,446.1316775866544,None,446.1316775866544,None,446.1316775866544,None,446.1316775866544,None,446.1316775866544,None,446.1316775866544,None,446.1316775866544,None,450.1331799116597,None,450.1331799116597,None,450.1331799116597,None,450.1331799116597,None,450.1331799116597,None,450.1331799116597,None,450.1331799116597,None,459.62020007961473,None,1.0338024725788273,451.1169212032946,None,452.11732118332657,None,0.96,7.502807219865645,455.1184440072757,None,None,455.1184440072757,None,,,,,,,,,,,,,,,,,,,23656,2019_Nov_07_1655,Mmi_3levels,3.1.5,59.98080709971365,
,,,1,1,-0.3,,,,,,,,,0,0,0,0,0,22,22,15,,,,,,,,,,,,,,,,,,,,,,,,,,,,,,,,,,,,,,,,,,,,,,,,,,,,,,,,,,,True,False,False,0.96,-0.040000000000000036,-0.27000000000000024,-0.16250000000000014,-0.3,-0.46250000000000013,-0.3812500000000001,certain,certain,-0.3812500000000001,146.82291666666669,461.63764688867013,None,461.63764688867013,None,461.63764688867013,None,461.63764688867013,None,461.63764688867013,None,461.63764688867013,None,461.63764688867013,None,3,461.63764688867013,None,463.50500359022044,None,463.50500359022044,None,463.50500359022044,None,463.50500359022044,None,463.50500359022044,None,463.50500359022044,None,463.50500359022044,None,467.50660991003315,None,467.50660991003315,None,467.50660991003315,None,467.50660991003315,None,467.50660991003315,None,467.50660991003315,None,467.50660991003315,None,468.49028592492687,None,1.8343346700130496,,,,,,,,,,,,,,,,,,,,,,,,,,,,,,23656,2019_Nov_07_1655,Mmi_3levels,3.1.5,59.98080709971365,
,,,1,1,6.1,,,,,,,,,0,0,0,0,0,23,23,11,,,,,,,,,,,,,,,,,,,,,,,,,,,,,,,,,,,,,,,,,,,,,,,,,,,,,,,,,,,True,True,False,0.96,-0.040000000000000036,-0.3100000000000003,0.8700000000000008,6.1,5.229999999999999,2.6149999999999993,gamble,win,6.1,152.92291666666668,470.50772313446214,None,470.50772313446214,None,470.50772313446214,None,470.50772313446214,None,470.50772313446214,None,470.50772313446214,None,470.50772313446214,None,1,470.50772313446214,None,472.4917687309062,None,472.4917687309062,None,472.4917687309062,None,472.4917687309062,None,472.4917687309062,None,472.4917687309062,None,472.4917687309062,None,476.47671444241496,None,476.47671444241496,None,476.47671444241496,None,476.47671444241496,None,476.47671444241496,None,476.47671444241496,None,476.47671444241496,None,485.9803449811807,None,1.9509618079864595,477.47707666433416,None,478.4774600051969,None,0.96,7.502782901075989,481.47862154721224,None,None,481.47862154721224,None,,,,,,,,,,,,,,,,,,,23656,2019_Nov_07_1655,Mmi_3levels,3.1.5,59.98080709971365,
,,,1,1,8.3,,,,,,,,,0,0,0,0,0,24,24,3,,,,,,,,,,,,,,,,,,,,,,,,,,,,,,,,,,,,,,,,,,,,,,,,,,,,,,,,,,,True,True,True,0.96,-0.040000000000000036,-0.3500000000000003,0.9100000000000008,8.3,7.39,3.695,gamble,win,8.3,161.2229166666667,487.9977914702504,None,487.9977914702504,None,487.9977914702504,None,487.9977914702504,None,487.9977914702504,None,487.9977914702504,None,487.9977914702504,None,1,487.9977914702504,None,489.2316005984976,None,489.2316005984976,None,489.2316005984976,None,489.2316005984976,None,489.2316005984976,None,489.2316005984976,None,489.2316005984976,None,493.2164621542106,None,493.2164621542106,None,493.2164621542106,None,493.2164621542106,None,493.2164621542106,None,493.2164621542106,None,493.2164621542106,None,494.2167987774046,None,1.2007554182891909,,,,,,,,,,,,,,,,,,,,,,,,,,,,,,23656,2019_Nov_07_1655,Mmi_3levels,3.1.5,59.98080709971365,
,,,1,1,6.5,,,,,,,,,0,0,0,0,0,25,25,26,,,,,,,,,,,,,,,,,,,,,,,,,,,,,,,,,,,,,,,,,,,,,,,,,,,,,,,,,,,True,True,True,0.96,-0.040000000000000036,-0.39000000000000035,0.9500000000000008,6.5,5.549999999999999,2.7749999999999995,gamble,win,6.5,167.7229166666667,496.23429230412876,None,496.23429230412876,None,496.23429230412876,None,496.23429230412876,None,496.23429230412876,None,496.23429230412876,None,496.23429230412876,None,1,496.23429230412876,None,497.8348991218372,None,497.8348991218372,None,497.8348991218372,None,497.8348991218372,None,497.8348991218372,None,497.8348991218372,None,497.8348991218372,None,501.8197750768304,None,501.8197750768304,None,501.8197750768304,None,501.8197750768304,None,501.8197750768304,None,501.8197750768304,None,501.8197750768304,None,502.82016481737446,None,1.5675195094263472,,,,,,,,,,,,,,,,,,,,,,,,,,,,,,23656,2019_Nov_07_1655,Mmi_3levels,3.1.5,59.98080709971365,
,,,1,1,3.3,,,,,,,,,0,0,0,0,0,26,26,16,,,,,,,,,,,,,,,,,,,,,,,,,,,,,,,,,,,,,,,,,,,,,,,,,,,,,,,,,,,True,True,False,0.96,-0.040000000000000036,-0.4300000000000004,0.9900000000000009,3.3,2.3099999999999987,1.1549999999999994,gamble,win,3.3,171.0229166666667,504.83759658717827,None,504.83759658717827,None,504.83759658717827,None,504.83759658717827,None,504.83759658717827,None,504.83759658717827,None,504.83759658717827,None,1,504.83759658717827,None,506.5549287779577,None,506.5549287779577,None,506.5549287779577,None,506.5549287779577,None,506.5549287779577,None,506.5549287779577,None,506.5549287779577,None,510.5397996132051,None,510.5397996132051,None,510.5397996132051,None,510.5397996132051,None,510.5397996132051,None,510.5397996132051,None,510.5397996132051,None,520.0434608704345,None,1.6842506422071892,511.5401515956328,None,512.5405672548841,None,0.93,7.50278546095069,515.5416894388654,None,None,515.5416894388654,None,,,,,,,,,,,,,,,,,,,23656,2019_Nov_07_1655,Mmi_3levels,3.1.5,59.98080709971365,
,,,2,0,13.7,,,,,,,,,0,1,1,1,0,0,0,19,,,,,,,,,,,,,,,,,,,,,,,,,,,,,,,,,,,,,,,,,,,,,,,,589.9369897054748,None,0.95,7.5016885557051864,592.9548320147878,None,None,592.9548320147878,None,597.4399274788229,None,False,True,False,0.95,0.95,0.95,-14.249999999999998,13.7,-0.5499999999999989,-0.27499999999999947,gamble,lose,-0.5499999999999989,170.4729166666667,600.4744006379224,None,600.4744006379224,None,600.4744006379224,None,600.4744006379224,None,600.4744006379224,None,600.4744006379224,None,600.4744006379224,None,1,600.4744006379224,None,602.5418337516603,None,602.5418337516603,None,602.5418337516603,None,602.5418337516603,None,602.5418337516603,None,602.5418337516603,None,602.5418337516603,None,606.5434163926548,None,606.5434163926548,None,606.5434163926548,None,606.5434163926548,None,606.5434163926548,None,606.5434163926548,None,606.5434163926548,None,607.5271167263345,None,2.0343614846751734,,,,,,,,,,,,522.0442176326578,None,4,67.87642888867049,522.0442176326578,None,,,,,,,,,,,,,23656,2019_Nov_07_1655,Mmi_3levels,3.1.5,59.98080709971365,
,,,2,0,8.5,,,,,,,,,0,1,1,1,0,1,1,13,,,,,,,,,,,,,,,,,,,,,,,,,,,,,,,,,,,,,,,,,,,,,,,,,,,,,,,,,,,False,True,True,0.95,0.95,1.9,-15.2,8.5,-6.699999999999999,0.9000000000000004,gamble,lose,-6.699999999999999,163.7729166666667,609.5445651353111,None,609.5445651353111,None,609.5445651353111,None,609.5445651353111,None,609.5445651353111,None,609.5445651353111,None,609.5445651353111,None,None,609.5445651353111,None,612.5457231575019,None,612.5457231575019,None,612.5457231575019,None,612.5457231575019,None,612.5457231575019,None,612.5457231575019,None,612.5457231575019,None,616.5305831132937,None,616.5305831132937,None,616.5305831132937,None,616.5305831132937,None,616.5305831132937,None,616.5305831132937,None,616.5305831132937,None,626.0342478903476,None,,617.530972533852,None,618.531352994858,None,0.88,7.50279666039205,621.5324431804365,None,None,621.5324431804365,None,,,,,,,,,,,,,,,,,,,23656,2019_Nov_07_1655,Mmi_3levels,3.1.5,59.98080709971365,
,,,2,0,13.5,,,,,,,,,0,1,1,1,0,2,2,14,,,,,,,,,,,,,,,,,,,,,,,,,,,,,,,,,,,,,,,,,,,,,,,,,,,,,,,,,,,False,True,False,0.88,0.88,2.78,-15.1,13.5,-1.5999999999999996,-0.7999999999999998,gamble,lose,-1.5999999999999996,162.1729166666667,628.0516870197862,None,628.0516870197862,None,628.0516870197862,None,628.0516870197862,None,628.0516870197862,None,628.0516870197862,None,628.0516870197862,None,1,628.0516870197862,None,629.719019146567,None,629.719019146567,None,629.719019146567,None,629.719019146567,None,629.719019146567,None,629.719019146567,None,629.719019146567,None,633.7204859533413,None,633.7204859533413,None,633.7204859533413,None,633.7204859533413,None,633.7204859533413,None,633.7204859533413,None,633.7204859533413,None,634.7042429241956,None,1.6341974608621967,,,,,,,,,,,,,,,,,,,,,,,,,,,,,,23656,2019_Nov_07_1655,Mmi_3levels,3.1.5,59.98080709971365,
,,,2,0,7.1,,,,,,,,,0,1,1,1,0,3,3,10,,,,,,,,,,,,,,,,,,,,,,,,,,,,,,,,,,,,,,,,,,,,,,,,,,,,,,,,,,,False,False,True,0.88,0.88,3.6599999999999997,3.3850000000000002,1.775,-1.6100000000000003,0.0824999999999998,gamble,win,1.775,163.9479166666667,636.7216890932832,None,636.7216890932832,None,636.7216890932832,None,636.7216890932832,None,636.7216890932832,None,636.7216890932832,None,636.7216890932832,None,1,636.7216890932832,None,639.0725182998867,None,639.0725182998867,None,639.0725182998867,None,639.0725182998867,None,639.0725182998867,None,639.0725182998867,None,639.0725182998867,None,643.0574009745433,None,643.0574009745433,None,643.0574009745433,None,643.0574009745433,None,643.0574009745433,None,643.0574009745433,None,643.0574009745433,None,652.5610913503224,None,2.31779437570367,644.0577929549763,None,645.0582847704245,None,0.94,7.50279762034188,648.0593714361785,None,None,648.0593714361785,None,,,,,,,,,,,,,,,,,,,23656,2019_Nov_07_1655,Mmi_3levels,3.1.5,59.98080709971365,
,,,2,0,5.5,,,,,,,,,0,1,1,1,0,4,4,18,,,,,,,,,,,,,,,,,,,,,,,,,,,,,,,,,,,,,,,,,,,,,,,,,,,,,,,,,,,False,True,False,0.94,0.94,4.6,-17.759999999999998,5.5,-12.259999999999998,-3.379999999999999,certain,certain,-3.379999999999999,160.56791666666672,654.5785605582569,None,654.5785605582569,None,654.5785605582569,None,654.5785605582569,None,654.5785605582569,None,654.5785605582569,None,654.5785605582569,None,3,654.5785605582569,None,657.2962261723915,None,657.2962261723915,None,657.2962261723915,None,657.2962261723915,None,657.2962261723915,None,657.2962261723915,None,657.2962261723915,None,661.281084528262,None,661.281084528262,None,661.281084528262,None,661.281084528262,None,661.281084528262,None,661.281084528262,None,661.281084528262,None,662.2815184266001,None,2.6846512622105365,,,,,,,,,,,,,,,,,,,,,,,,,,,,,,23656,2019_Nov_07_1655,Mmi_3levels,3.1.5,59.98080709971365,
,,,2,0,4.5,,,,,,,,,0,1,1,1,0,5,5,20,,,,,,,,,,,,,,,,,,,,,,,,,,,,,,,,,,,,,,,,,,,,,,,,,,,,,,,,,,,False,False,False,0.94,0.94,5.539999999999999,3.7516666666666665,1.125,-2.6266666666666665,-0.7508333333333332,gamble,win,1.125,161.69291666666672,664.2989921143162,None,664.2989921143162,None,664.2989921143162,None,664.2989921143162,None,664.2989921143162,None,664.2989921143162,None,664.2989921143162,None,1,664.2989921143162,None,666.5164865369916,None,666.5164865369916,None,666.5164865369916,None,666.5164865369916,None,666.5164865369916,None,666.5164865369916,None,666.5164865369916,None,670.517987902047,None,670.517987902047,None,670.517987902047,None,670.517987902047,None,670.517987902047,None,670.517987902047,None,670.517987902047,None,671.5017039149425,None,2.1844010346976575,,,,,,,,,,,,,,,,,,,,,,,,,,,,,,23656,2019_Nov_07_1655,Mmi_3levels,3.1.5,59.98080709971365,
,,,2,0,0.3,,,,,,,,,0,1,1,1,0,6,6,11,,,,,,,,,,,,,,,,,,,,,,,,,,,,,,,,,,,,,,,,,,,,,,,,,,,,,,,,,,,False,False,True,0.94,0.94,6.479999999999999,3.83,0.075,-3.755,-1.8399999999999999,certain,certain,-1.8399999999999999,159.85291666666672,673.5191574436612,None,673.5191574436612,None,673.5191574436612,None,673.5191574436612,None,673.5191574436612,None,673.5191574436612,None,673.5191574436612,None,3,673.5191574436612,None,675.3365550391754,None,675.3365550391754,None,675.3365550391754,None,675.3365550391754,None,675.3365550391754,None,675.3365550391754,None,675.3365550391754,None,679.3380509644958,None,679.3380509644958,None,679.3380509644958,None,679.3380509644958,None,679.3380509644958,None,679.3380509644958,None,679.3380509644958,None,688.8250724123864,None,1.7843077273573726,680.3217999357475,None,681.3221317591851,None,0.96,7.50276306206797,684.3233275394923,None,None,684.3233275394923,None,,,,,,,,,,,,,,,,,,,23656,2019_Nov_07_1655,Mmi_3levels,3.1.5,59.98080709971365,
,,,2,0,12.9,,,,,,,,,0,1,1,1,0,7,7,2,,,,,,,,,,,,,,,,,,,,,,,,,,,,,,,,,,,,,,,,,,,,,,,,,,,,,,,,,,,False,False,True,0.96,0.96,7.439999999999999,3.9799999999999995,3.225,-0.7549999999999994,1.2350000000000003,gamble,win,3.225,163.0779166666667,690.8425099419037,None,690.8425099419037,None,690.8425099419037,None,690.8425099419037,None,690.8425099419037,None,690.8425099419037,None,690.8425099419037,None,1,690.8425099419037,None,692.8766247188942,None,692.8766247188942,None,692.8766247188942,None,692.8766247188942,None,692.8766247188942,None,692.8766247188942,None,692.8766247188942,None,696.878227838868,None,696.878227838868,None,696.878227838868,None,696.878227838868,None,696.878227838868,None,696.878227838868,None,696.878227838868,None,697.8618059386499,None,2.0010297085973434,,,,,,,,,,,,,,,,,,,,,,,,,,,,,,23656,2019_Nov_07_1655,Mmi_3levels,3.1.5,59.98080709971365,
,,,2,0,-0.1,,,,,,,,,0,1,1,1,0,8,8,4,,,,,,,,,,,,,,,,,,,,,,,,,,,,,,,,,,,,,,,,,,,,,,,,,,,,,,,,,,,False,True,False,0.96,0.96,8.399999999999999,-21.839999999999996,-0.1,-21.939999999999998,-11.02,certain,certain,-11.02,152.0579166666667,699.8793157845575,None,699.8793157845575,None,699.8793157845575,None,699.8793157845575,None,699.8793157845575,None,699.8793157845575,None,699.8793157845575,None,3,699.8793157845575,None,702.0968479653493,None,702.0968479653493,None,702.0968479653493,None,702.0968479653493,None,702.0968479653493,None,702.0968479653493,None,702.0968479653493,None,706.0983826087431,None,706.0983826087431,None,706.0983826087431,None,706.0983826087431,None,706.0983826087431,None,706.0983826087431,None,706.0983826087431,None,715.5853659785316,None,2.1844586318256916,707.0820963817496,None,708.0824301250905,None,0.92,7.502809139768942,711.0836220655874,None,None,711.0836220655874,None,,,,,,,,,,,,,,,,,,,23656,2019_Nov_07_1655,Mmi_3levels,3.1.5,59.98080709971365,
,,,2,0,0.7,,,,,,,,,0,1,1,1,0,9,9,22,,,,,,,,,,,,,,,,,,,,,,,,,,,,,,,,,,,,,,,,,,,,,,,,,,,,,,,,,,,False,False,True,0.92,0.92,9.319999999999999,3.9966666666666666,0.175,-3.8216666666666668,-1.8233333333333335,certain,certain,-1.8233333333333335,150.23458333333338,717.6028089477804,None,717.6028089477804,None,717.6028089477804,None,717.6028089477804,None,717.6028089477804,None,717.6028089477804,None,717.6028089477804,None,3,717.6028089477804,None,719.9037011272412,None,719.9037011272412,None,719.9037011272412,None,719.9037011272412,None,719.9037011272412,None,719.9037011272412,None,719.9037011272412,None,723.9052325707926,None,723.9052325707926,None,723.9052325707926,None,723.9052325707926,None,723.9052325707926,None,723.9052325707926,None,723.9052325707926,None,724.8890013810524,None,2.26773927445538,,,,,,,,,,,,,,,,,,,,,,,,,,,,,,23656,2019_Nov_07_1655,Mmi_3levels,3.1.5,59.98080709971365,
,,,2,0,1.9,,,,,,,,,0,1,1,1,0,10,10,26,,,,,,,,,,,,,,,,,,,,,,,,,,,,,,,,,,,,,,,,,,,,,,,,,,,,,,,,,,,False,True,True,0.92,0.92,10.239999999999998,-23.119999999999997,1.9,-21.22,-9.66,gamble,lose,-21.22,129.01458333333338,726.9064161917049,None,726.9064161917049,None,726.9064161917049,None,726.9064161917049,None,726.9064161917049,None,726.9064161917049,None,726.9064161917049,None,1,726.9064161917049,None,729.4907249430107,None,729.4907249430107,None,729.4907249430107,None,729.4907249430107,None,729.4907249430107,None,729.4907249430107,None,729.4907249430107,None,733.4922480669775,None,733.4922480669775,None,733.4922480669775,None,733.4922480669775,None,733.4922480669775,None,733.4922480669775,None,733.4922480669775,None,734.4759666397476,None,2.551198724158894,,,,,,,,,,,,,,,,,,,,,,,,,,,,,,23656,2019_Nov_07_1655,Mmi_3levels,3.1.5,59.98080709971365,
,,,2,0,10.3,,,,,,,,,0,1,1,1,0,11,11,24,,,,,,,,,,,,,,,,,,,,,,,,,,,,,,,,,,,,,,,,,,,,,,,,,,,,,,,,,,,False,True,True,0.92,0.92,11.159999999999998,-24.04,10.3,-13.739999999999998,-1.7199999999999989,gamble,lose,-13.739999999999998,115.27458333333338,736.4934032093115,None,736.4934032093115,None,736.4934032093115,None,736.4934032093115,None,736.4934032093115,None,736.4934032093115,None,736.4934032093115,None,None,736.4934032093115,None,739.4945689111228,None,739.4945689111228,None,739.4945689111228,None,739.4945689111228,None,739.4945689111228,None,739.4945689111228,None,739.4945689111228,None,743.4793808693066,None,743.4793808693066,None,743.4793808693066,None,743.4793808693066,None,743.4793808693066,None,743.4793808693066,None,743.4793808693066,None,752.9830350868906,None,,744.4797683699653,None,745.4801968285756,None,0.88,7.502773621541564,748.4813426913752,None,None,748.4813426913752,None,,,,,,,,,,,,,,,,,,,23656,2019_Nov_07_1655,Mmi_3levels,3.1.5,59.98080709971365,
,,,2,0,12.3,,,,,,,,,0,1,1,1,0,12,12,15,,,,,,,,,,,,,,,,,,,,,,,,,,,,,,,,,,,,,,,,,,,,,,,,,,,,,,,,,,,False,True,True,0.88,0.88,12.04,-24.36,12.3,-12.059999999999999,0.120000000000001,certain,certain,0.120000000000001,115.39458333333339,755.0005292535825,None,755.0005292535825,None,755.0005292535825,None,755.0005292535825,None,755.0005292535825,None,755.0005292535825,None,755.0005292535825,None,3,755.0005292535825,None,757.067995005691,None,757.067995005691,None,757.067995005691,None,757.067995005691,None,757.067995005691,None,757.067995005691,None,757.067995005691,None,761.069549808075,None,761.069549808075,None,761.069549808075,None,761.069549808075,None,761.069549808075,None,761.069549808075,None,761.069549808075,None,762.0531938245658,None,2.03435764486494,,,,,,,,,,,,,,,,,,,,,,,,,,,,,,23656,2019_Nov_07_1655,Mmi_3levels,3.1.5,59.98080709971365,
,,,2,0,12.5,,,,,,,,,0,1,1,1,0,13,13,3,,,,,,,,,,,,,,,,,,,,,,,,,,,,,,,,,,,,,,,,,,,,,,,,,,,,,,,,,,,False,False,True,0.88,0.88,12.92,4.156666666666666,3.125,-1.0316666666666663,1.0466666666666669,gamble,win,3.125,118.51958333333339,764.0706684722318,None,764.0706684722318,None,764.0706684722318,None,764.0706684722318,None,764.0706684722318,None,764.0706684722318,None,764.0706684722318,None,1,764.0706684722318,None,765.7880157022591,None,765.7880157022591,None,765.7880157022591,None,765.7880157022591,None,765.7880157022591,None,765.7880157022591,None,765.7880157022591,None,769.772880777793,None,769.772880777793,None,769.772880777793,None,769.772880777793,None,769.772880777793,None,769.772880777793,None,769.772880777793,None,779.276488917676,None,1.6842535220639547,770.7732685984338,None,771.773643619712,None,0.95,7.502808179815474,774.7747478845886,None,None,774.7747478845886,None,,,,,,,,,,,,,,,,,,,23656,2019_Nov_07_1655,Mmi_3levels,3.1.5,59.98080709971365,
,,,2,0,0.9,,,,,,,,,0,1,1,1,0,14,14,17,,,,,,,,,,,,,,,,,,,,,,,,,,,,,,,,,,,,,,,,,,,,,,,,,,,,,,,,,,,False,True,True,0.95,0.95,13.87,-27.169999999999998,0.9,-26.27,-12.685,certain,certain,-12.685,105.83458333333338,781.2939824443965,None,781.2939824443965,None,781.2939824443965,None,781.2939824443965,None,781.2939824443965,None,781.2939824443965,None,781.2939824443965,None,3,781.2939824443965,None,784.09505733474,None,784.09505733474,None,784.09505733474,None,784.09505733474,None,784.09505733474,None,784.09505733474,None,784.09505733474,None,788.0966028575858,None,788.0966028575858,None,788.0966028575858,None,788.0966028575858,None,788.0966028575858,None,788.0966028575858,None,788.0966028575858,None,789.0803147106926,None,2.7679754226664954,,,,,,,,,,,,,,,,,,,,,,,,,,,,,,23656,2019_Nov_07_1655,Mmi_3levels,3.1.5,59.98080709971365,
,,,2,0,3.7,,,,,,,,,0,1,1,1,0,15,15,6,,,,,,,,,,,,,,,,,,,,,,,,,,,,,,,,,,,,,,,,,,,,,,,,,,,,,,,,,,,False,False,False,0.95,0.95,14.819999999999999,4.56,0.925,-3.635,-1.355,certain,certain,-1.355,104.47958333333338,791.0977532001598,None,791.0977532001598,None,791.0977532001598,None,791.0977532001598,None,791.0977532001598,None,791.0977532001598,None,791.0977532001598,None,3,791.0977532001598,None,793.0985477204995,None,793.0985477204995,None,793.0985477204995,None,793.0985477204995,None,793.0985477204995,None,793.0985477204995,None,793.0985477204995,None,797.100064444785,None,797.100064444785,None,797.100064444785,None,797.100064444785,None,797.100064444785,None,797.100064444785,None,797.100064444785,None,806.5869969371124,None,1.9676819333180902,798.0837711781423,None,799.0841481193274,None,0.94,7.502627388839755,802.0853051815684,None,None,802.0853051815684,None,,,,,,,,,,,,,,,,,,,23656,2019_Nov_07_1655,Mmi_3levels,3.1.5,59.98080709971365,
,,,2,0,8.7,,,,,,,,,0,1,1,1,0,16,16,16,,,,,,,,,,,,,,,,,,,,,,,,,,,,,,,,,,,,,,,,,,,,,,,,,,,,,,,,,,,False,True,True,0.94,0.94,15.759999999999998,-28.919999999999998,8.7,-20.22,-5.76,certain,certain,-5.76,98.71958333333338,808.6044923837399,None,808.6044923837399,None,808.6044923837399,None,808.6044923837399,None,808.6044923837399,None,808.6044923837399,None,808.6044923837399,None,3,808.6044923837399,None,811.4222477213953,None,811.4222477213953,None,811.4222477213953,None,811.4222477213953,None,811.4222477213953,None,811.4222477213953,None,811.4222477213953,None,815.4237311673423,None,815.4237311673423,None,815.4237311673423,None,815.4237311673423,None,815.4237311673423,None,815.4237311673423,None,815.4237311673423,None,816.4074634994249,None,2.7847048275361885,,,,,,,,,,,,,,,,,,,,,,,,,,,,,,23656,2019_Nov_07_1655,Mmi_3levels,3.1.5,59.98080709971365,
,,,2,0,2.9,,,,,,,,,0,1,1,1,0,17,17,0,,,,,,,,,,,,,,,,,,,,,,,,,,,,,,,,,,,,,,,,,,,,,,,,,,,,,,,,,,,False,True,True,0.94,0.94,16.7,-29.86,2.9,-26.96,-12.030000000000001,gamble,lose,-26.96,71.75958333333338,818.4249407069619,None,818.4249407069619,None,818.4249407069619,None,818.4249407069619,None,818.4249407069619,None,818.4249407069619,None,818.4249407069619,None,1,818.4249407069619,None,820.5924433852269,None,820.5924433852269,None,820.5924433852269,None,820.5924433852269,None,820.5924433852269,None,820.5924433852269,None,820.5924433852269,None,824.5939617094336,None,824.5939617094336,None,824.5939617094336,None,824.5939617094336,None,824.5939617094336,None,824.5939617094336,None,824.5939617094336,None,825.5776895617382,None,2.1344313691879506,,,,,,,,,,,,,,,,,,,,,,,,,,,,,,23656,2019_Nov_07_1655,Mmi_3levels,3.1.5,59.98080709971365,
,,,2,0,1.3,,,,,,,,,0,1,1,1,0,18,18,12,,,,,,,,,,,,,,,,,,,,,,,,,,,,,,,,,,,,,,,,,,,,,,,,,,,,,,,,,,,False,True,True,0.94,0.94,17.64,-30.8,1.3,-29.5,-14.1,gamble,lose,-29.5,42.25958333333338,827.5951309310658,None,827.5951309310658,None,827.5951309310658,None,827.5951309310658,None,827.5951309310658,None,827.5951309310658,None,827.5951309310658,None,1,827.5951309310658,None,830.0460735400084,None,830.0460735400084,None,830.0460735400084,None,830.0460735400084,None,830.0460735400084,None,830.0460735400084,None,830.0460735400084,None,834.0475614657335,None,834.0475614657335,None,834.0475614657335,None,834.0475614657335,None,834.0475614657335,None,834.0475614657335,None,834.0475614657335,None,843.534544835522,None,2.4178393014626636,835.0313248362654,None,836.0317145768095,None,0.9,7.502733943521889,839.0328521200245,None,None,839.0328521200245,None,,,,,,,,,,,,,,,,,,,23656,2019_Nov_07_1655,Mmi_3levels,3.1.5,59.98080709971365,
,,,2,0,10.9,,,,,,,,,0,1,1,1,0,19,19,5,,,,,,,,,,,,,,,,,,,,,,,,,,,,,,,,,,,,,,,,,,,,,,,,,,,,,,,,,,,False,True,True,0.9,0.9,18.54,-31.14,10.9,-20.240000000000002,-4.670000000000001,certain,certain,-4.670000000000001,37.58958333333338,845.5519980442587,None,845.5519980442587,None,845.5519980442587,None,845.5519980442587,None,845.5519980442587,None,845.5519980442587,None,845.5519980442587,None,3,845.5519980442587,None,847.4027552544576,None,847.4027552544576,None,847.4027552544576,None,847.4027552544576,None,847.4027552544576,None,847.4027552544576,None,847.4027552544576,None,851.4042886179122,None,851.4042886179122,None,851.4042886179122,None,851.4042886179122,None,851.4042886179122,None,851.4042886179122,None,851.4042886179122,None,852.3879687925983,None,1.8176571025578596,,,,,,,,,,,,,,,,,,,,,,,,,,,,,,23656,2019_Nov_07_1655,Mmi_3levels,3.1.5,59.98080709971365,
,,,2,0,11.3,,,,,,,,,0,1,1,1,0,20,20,21,,,,,,,,,,,,,,,,,,,,,,,,,,,,,,,,,,,,,,,,,,,,,,,,,,,,,,,,,,,False,True,False,0.9,0.9,19.439999999999998,-32.04,11.3,-20.74,-4.719999999999999,certain,certain,-4.719999999999999,32.86958333333338,854.4054639192436,None,854.4054639192436,None,854.4054639192436,None,854.4054639192436,None,854.4054639192436,None,854.4054639192436,None,854.4054639192436,None,3,854.4054639192436,None,856.2394754053894,None,856.2394754053894,None,856.2394754053894,None,856.2394754053894,None,856.2394754053894,None,856.2394754053894,None,856.2394754053894,None,860.2243769591041,None,860.2243769591041,None,860.2243769591041,None,860.2243769591041,None,860.2243769591041,None,860.2243769591041,None,860.2243769591041,None,869.7446399475739,None,1.8009395371009305,861.2247206219472,None,862.2250742042961,None,0.87,7.519490547034366,865.2262645448754,None,None,865.2262645448754,None,,,,,,,,,,,,,,,,,,,23656,2019_Nov_07_1655,Mmi_3levels,3.1.5,59.98080709971365,
,,,2,0,5.7,,,,,,,,,0,1,1,1,0,21,21,23,,,,,,,,,,,,,,,,,,,,,,,,,,,,,,,,,,,,,,,,,,,,,,,,,,,,,,,,,,,False,False,True,0.87,0.87,20.31,4.7375,1.425,-3.3125,-0.94375,certain,certain,-0.94375,31.92583333333338,871.7621251547134,None,871.7621251547134,None,871.7621251547134,None,871.7621251547134,None,871.7621251547134,None,871.7621251547134,None,871.7621251547134,None,3,871.7621251547134,None,873.1460544689617,None,873.1460544689617,None,873.1460544689617,None,873.1460544689617,None,873.1460544689617,None,873.1460544689617,None,873.1460544689617,None,877.1475708732651,None,877.1475708732651,None,877.1475708732651,None,877.1475708732651,None,877.1475708732651,None,877.1475708732651,None,877.1475708732651,None,878.131193450823,None,1.3508164072445652,,,,,,,,,,,,,,,,,,,,,,,,,,,,,,23656,2019_Nov_07_1655,Mmi_3levels,3.1.5,59.98080709971365,
,,,2,0,9.9,,,,,,,,,0,1,1,1,0,22,22,25,,,,,,,,,,,,,,,,,,,,,,,,,,,,,,,,,,,,,,,,,,,,,,,,,,,,,,,,,,,False,True,True,0.87,0.87,21.18,-33.36,9.9,-23.46,-6.78,certain,certain,-6.78,25.14583333333338,880.1486892174362,None,880.1486892174362,None,880.1486892174362,None,880.1486892174362,None,880.1486892174362,None,880.1486892174362,None,880.1486892174362,None,3,880.1486892174362,None,882.2661678329023,None,882.2661678329023,None,882.2661678329023,None,882.2661678329023,None,882.2661678329023,None,882.2661678329023,None,882.2661678329023,None,886.2509823509608,None,886.2509823509608,None,886.2509823509608,None,886.2509823509608,None,886.2509823509608,None,886.2509823509608,None,886.2509823509608,None,895.7546919257802,None,2.084385867459787,887.2514069697645,None,888.2517992701833,None,0.92,7.502820339210302,891.2529438530437,None,None,891.2529438530437,None,,,,,,,,,,,,,,,,,,,23656,2019_Nov_07_1655,Mmi_3levels,3.1.5,59.98080709971365,
,,,2,0,1.1,,,,,,,,,0,1,1,1,0,23,23,9,,,,,,,,,,,,,,,,,,,,,,,,,,,,,,,,,,,,,,,,,,,,,,,,,,,,,,,,,,,False,False,True,0.92,0.92,22.1,5.061666666666667,0.275,-4.786666666666667,-2.2558333333333334,certain,certain,-2.2558333333333334,22.890000000000043,897.7721396947891,None,897.7721396947891,None,897.7721396947891,None,897.7721396947891,None,897.7721396947891,None,897.7721396947891,None,897.7721396947891,None,3,897.7721396947891,None,899.1393133654783,None,899.1393133654783,None,899.1393133654783,None,899.1393133654783,None,899.1393133654783,None,899.1393133654783,None,899.1393133654783,None,903.124137483057,None,903.124137483057,None,903.124137483057,None,903.124137483057,None,903.124137483057,None,903.124137483057,None,903.124137483057,None,904.1245726613342,None,1.3340726030946826,,,,,,,,,,,,,,,,,,,,,,,,,,,,,,23656,2019_Nov_07_1655,Mmi_3levels,3.1.5,59.98080709971365,
,,,2,0,6.7,,,,,,,,,0,1,1,1,0,24,24,1,,,,,,,,,,,,,,,,,,,,,,,,,,,,,,,,,,,,,,,,,,,,,,,,,,,,,,,,,,,False,True,True,0.92,0.92,23.020000000000003,-35.900000000000006,6.7,-29.200000000000006,-11.250000000000004,gamble,lose,-29.200000000000006,-6.309999999999963,906.1420789874173,None,906.1420789874173,None,906.1420789874173,None,906.1420789874173,None,906.1420789874173,None,906.1420789874173,None,906.1420789874173,None,1,906.1420789874173,None,908.876408089709,None,908.876408089709,None,908.876408089709,None,908.876408089709,None,908.876408089709,None,908.876408089709,None,908.876408089709,None,912.8778707366946,None,912.8778707366946,None,912.8778707366946,None,912.8778707366946,None,912.8778707366946,None,912.8778707366946,None,912.8778707366946,None,913.8616833847664,None,2.7012193951304653,,,,,,,,,,,,,,,,,,,,,,,,,,,,,,23656,2019_Nov_07_1655,Mmi_3levels,3.1.5,59.98080709971365,
,,,2,0,-0.7,,,,,,,,,0,1,1,1,0,25,25,7,,,,,,,,,,,,,,,,,,,,,,,,,,,,,,,,,,,,,,,,,,,,,,,,,,,,,,,,,,,False,False,False,0.92,0.92,23.940000000000005,5.215000000000001,-0.175,-5.390000000000001,-2.7825,certain,certain,-2.7825,-9.092499999999964,915.8790997953402,None,915.8790997953402,None,915.8790997953402,None,915.8790997953402,None,915.8790997953402,None,915.8790997953402,None,915.8790997953402,None,3,915.8790997953402,None,918.2967016686525,None,918.2967016686525,None,918.2967016686525,None,918.2967016686525,None,918.2967016686525,None,918.2967016686525,None,918.2967016686525,None,922.298244631631,None,922.298244631631,None,922.298244631631,None,922.298244631631,None,922.298244631631,None,922.298244631631,None,922.298244631631,None,931.7852228816737,None,2.3845766419362917,923.2819385656294,None,924.2823619044939,None,0.94,7.502767861828033,927.2834741689694,None,None,927.2834741689694,None,,,,,,,,,,,,,,,,,,,23656,2019_Nov_07_1655,Mmi_3levels,3.1.5,59.98080709971365,
,,,2,0,2.7,,,,,,,,,0,1,1,1,0,26,26,8,,,,,,,,,,,,,,,,,,,,,,,,,,,,,,,,,,,,,,,,,,,,,,,,,,,,,,,,,,,False,False,True,0.94,0.94,24.880000000000006,5.363333333333333,0.675,-4.6883333333333335,-2.006666666666667,certain,certain,-2.006666666666667,-11.09916666666663,933.80265785132,None,933.80265785132,None,933.80265785132,None,933.80265785132,None,933.80265785132,None,933.80265785132,None,933.80265785132,None,3,933.80265785132,None,936.1869177090703,None,936.1869177090703,None,936.1869177090703,None,936.1869177090703,None,936.1869177090703,None,936.1869177090703,None,936.1869177090703,None,940.1717955839667,None,940.1717955839667,None,940.1717955839667,None,940.1717955839667,None,940.1717955839667,None,940.1717955839667,None,940.1717955839667,None,941.1721600457713,None,2.351151110535284,,,,,,,,,,,,,,,,,,,,,,,,,,,,,,23656,2019_Nov_07_1655,Mmi_3levels,3.1.5,59.98080709971365,
,,,3,1,9.3,,,,,,,,,0,2,2,2,0,0,0,5,,,,,,,,,,,,,,,,,,,,,,,,,,,,,,,,,,,,,,,,,,,,,,,,945.2737437747128,None,0.93,7.502095575386193,948.274854119285,None,None,948.274854119285,None,952.7766095516527,None,True,True,True,0.93,-0.06999999999999995,-0.06999999999999995,1.0499999999999994,9.3,8.250000000000002,4.125000000000001,gamble,win,9.3,-1.799166666666629,955.8111131092337,None,955.8111131092337,None,955.8111131092337,None,955.8111131092337,None,955.8111131092337,None,955.8111131092337,None,955.8111131092337,None,1,955.8111131092337,None,957.5451183876903,None,957.5451183876903,None,957.5451183876903,None,957.5451183876903,None,957.5451183876903,None,957.5451183876903,None,957.5451183876903,None,961.529969063944,None,961.529969063944,None,961.529969063944,None,961.529969063944,None,961.529969063944,None,961.529969063944,None,961.529969063944,None,971.0336028025486,None,1.7009285296480812,962.530380243421,None,963.5307635842837,None,0.98,7.502749942723312,966.5319065672265,None,None,966.5319065672265,None,943.1729340871316,None,4,2.0843695482690237,943.1729340871316,None,,,,,,,,,,,,,23656,2019_Nov_07_1655,Mmi_3levels,3.1.5,59.98080709971365,
,,,3,1,11.3,,,,,,,,,0,2,2,2,0,1,1,10,,,,,,,,,,,,,,,,,,,,,,,,,,,,,,,,,,,,,,,,,,,,,,,,,,,,,,,,,,,True,True,True,0.98,-0.020000000000000018,-0.08999999999999997,0.3700000000000002,11.3,10.93,5.465,gamble,win,11.3,9.500833333333372,973.0511068887463,None,973.0511068887463,None,973.0511068887463,None,973.0511068887463,None,973.0511068887463,None,973.0511068887463,None,973.0511068887463,None,1,973.0511068887463,None,974.3182948307222,None,974.3182948307222,None,974.3182948307222,None,974.3182948307222,None,974.3182948307222,None,974.3182948307222,None,974.3182948307222,None,978.3197926759494,None,978.3197926759494,None,978.3197926759494,None,978.3197926759494,None,978.3197926759494,None,978.3197926759494,None,978.3197926759494,None,979.3035042090705,None,1.233910883169301,,,,,,,,,,,,,,,,,,,,,,,,,,,,,,23656,2019_Nov_07_1655,Mmi_3levels,3.1.5,59.98080709971365,
,,,3,1,0.1,,,,,,,,,0,2,2,2,0,2,2,3,,,,,,,,,,,,,,,,,,,,,,,,,,,,,,,,,,,,,,,,,,,,,,,,,,,,,,,,,,,True,True,False,0.98,-0.020000000000000018,-0.10999999999999999,0.39000000000000024,0.1,-0.29000000000000026,-0.09500000000000013,gamble,win,0.1,9.600833333333371,981.3209468583336,None,981.3209468583336,None,981.3209468583336,None,981.3209468583336,None,981.3209468583336,None,981.3209468583336,None,981.3209468583336,None,1,981.3209468583336,None,982.8715427325878,None,982.8715427325878,None,982.8715427325878,None,982.8715427325878,None,982.8715427325878,None,982.8715427325878,None,982.8715427325878,None,986.8564055682364,None,986.8564055682364,None,986.8564055682364,None,986.8564055682364,None,986.8564055682364,None,986.8564055682364,None,986.8564055682364,None,987.8568020284438,None,1.5174909668530745,,,,,,,,,,,,,,,,,,,,,,,,,,,,,,23656,2019_Nov_07_1655,Mmi_3levels,3.1.5,59.98080709971365,
,,,3,1,12.3,,,,,,,,,0,2,2,2,0,3,3,14,,,,,,,,,,,,,,,,,,,,,,,,,,,,,,,,,,,,,,,,,,,,,,,,,,,,,,,,,,,True,True,False,0.98,-0.020000000000000018,-0.13,0.41000000000000025,12.3,11.89,5.945,gamble,win,12.3,21.900833333333374,989.8742363581223,None,989.8742363581223,None,989.8742363581223,None,989.8742363581223,None,989.8742363581223,None,989.8742363581223,None,989.8742363581223,None,1,989.8742363581223,None,991.074702830836,None,991.074702830836,None,991.074702830836,None,991.074702830836,None,991.074702830836,None,991.074702830836,None,991.074702830836,None,995.0762400340973,None,995.0762400340973,None,995.0762400340973,None,995.0762400340973,None,995.0762400340973,None,995.0762400340973,None,995.0762400340973,None,1004.5631677266683,None,1.1673785244638566,996.0599109292489,None,997.0603371479701,None,1.0,7.5027205041915295,1000.0614750111672,None,None,1000.0614750111672,None,,,,,,,,,,,,,,,,,,,23656,2019_Nov_07_1655,Mmi_3levels,3.1.5,59.98080709971365,
,,,3,1,11.7,,,,,,,,,0,2,2,2,0,4,4,6,,,,,,,,,,,,,,,,,,,,,,,,,,,,,,,,,,,,,,,,,,,,,,,,,,,,,,,,,,,True,False,True,1.0,0.0,-0.13,-0.03,11.7,11.67,5.835,gamble,lose,11.67,33.570833333333375,1006.5806670131024,None,1006.5806670131024,None,1006.5806670131024,None,1006.5806670131024,None,1006.5806670131024,None,1006.5806670131024,None,1006.5806670131024,None,1,1006.5806670131024,None,1007.6143952493912,None,1007.6143952493912,None,1007.6143952493912,None,1007.6143952493912,None,1007.6143952493912,None,1007.6143952493912,None,1007.6143952493912,None,1011.6159020541709,None,1011.6159020541709,None,1011.6159020541709,None,1011.6159020541709,None,1011.6159020541709,None,1011.6159020541709,None,1011.6159020541709,None,1012.5996484655516,None,1.000677086198266,,,,,,,,,,,,,,,,,,,,,,,,,,,,,,23656,2019_Nov_07_1655,Mmi_3levels,3.1.5,59.98080709971365,
,,,3,1,10.5,,,,,,,,,0,2,2,2,0,5,5,2,,,,,,,,,,,,,,,,,,,,,,,,,,,,,,,,,,,,,,,,,,,,,,,,,,,,,,,,,,,True,True,True,1.0,0.0,-0.13,0.13,10.5,10.37,5.185,gamble,win,10.5,44.070833333333375,1014.6171410323223,None,1014.6171410323223,None,1014.6171410323223,None,1014.6171410323223,None,1014.6171410323223,None,1014.6171410323223,None,1014.6171410323223,None,1,1014.6171410323223,None,1015.3673851801323,None,1015.3673851801323,None,1015.3673851801323,None,1015.3673851801323,None,1015.3673851801323,None,1015.3673851801323,None,1015.3673851801323,None,1019.352240656146,None,1019.352240656146,None,1019.352240656146,None,1019.352240656146,None,1019.352240656146,None,1019.352240656146,None,1019.352240656146,None,1028.8559140727702,None,0.7171434002011665,1020.3526294367402,None,1021.353017257381,None,1.0,7.5027317036328895,1024.3541580004348,None,None,1024.3541580004348,None,,,,,,,,,,,,,,,,,,,23656,2019_Nov_07_1655,Mmi_3levels,3.1.5,59.98080709971365,
,,,3,1,2.5,,,,,,,,,0,2,2,2,0,6,6,11,,,,,,,,,,,,,,,,,,,,,,,,,,,,,,,,,,,,,,,,,,,,,,,,,,,,,,,,,,,True,True,False,1.0,0.0,-0.13,0.13,2.5,2.37,1.185,gamble,win,2.5,46.570833333333375,1030.873380080866,None,1030.873380080866,None,1030.873380080866,None,1030.873380080866,None,1030.873380080866,None,1030.873380080866,None,1030.873380080866,None,1,1030.873380080866,None,1032.4072759887822,None,1032.4072759887822,None,1032.4072759887822,None,1032.4072759887822,None,1032.4072759887822,None,1032.4072759887822,None,1032.4072759887822,None,1036.3921369045274,None,1036.3921369045274,None,1036.3921369045274,None,1036.3921369045274,None,1036.3921369045274,None,1036.3921369045274,None,1036.3921369045274,None,1037.3925263250858,None,1.500804439841886,,,,,,,,,,,,,,,,,,,,,,,,,,,,,,23656,2019_Nov_07_1655,Mmi_3levels,3.1.5,59.98080709971365,
,,,3,1,12.1,,,,,,,,,0,2,2,2,0,7,7,17,,,,,,,,,,,,,,,,,,,,,,,,,,,,,,,,,,,,,,,,,,,,,,,,,,,,,,,,,,,True,True,False,1.0,0.0,-0.13,0.13,12.1,11.969999999999999,5.984999999999999,gamble,win,12.1,58.67083333333338,1039.4099872134393,None,1039.4099872134393,None,1039.4099872134393,None,1039.4099872134393,None,1039.4099872134393,None,1039.4099872134393,None,1039.4099872134393,None,1,1039.4099872134393,None,1040.3436606044634,None,1040.3436606044634,None,1040.3436606044634,None,1040.3436606044634,None,1040.3436606044634,None,1040.3436606044634,None,1040.3436606044634,None,1044.3452013275528,None,1044.3452013275528,None,1044.3452013275528,None,1044.3452013275528,None,1044.3452013275528,None,1044.3452013275528,None,1044.3452013275528,None,1053.8321715779966,None,0.9003438548352278,1045.3288943015978,None,1046.329239564362,None,1.0,7.50284465799632,1049.330382867287,None,None,1049.330382867287,None,,,,,,,,,,,,,,,,,,,23656,2019_Nov_07_1655,Mmi_3levels,3.1.5,59.98080709971365,
,,,3,1,4.1,,,,,,,,,0,2,2,2,0,8,8,4,,,,,,,,,,,,,,,,,,,,,,,,,,,,,,,,,,,,,,,,,,,,,,,,,,,,,,,,,,,True,True,False,1.0,0.0,-0.13,0.13,4.1,3.9699999999999998,1.9849999999999999,gamble,win,4.1,62.77083333333338,1055.8496279865722,None,1055.8496279865722,None,1055.8496279865722,None,1055.8496279865722,None,1055.8496279865722,None,1055.8496279865722,None,1055.8496279865722,None,1,1055.8496279865722,None,1056.8499796490178,None,1056.8499796490178,None,1056.8499796490178,None,1056.8499796490178,None,1056.8499796490178,None,1056.8499796490178,None,1056.8499796490178,None,1060.8348959219984,None,1060.8348959219984,None,1060.8348959219984,None,1060.8348959219984,None,1060.8348959219984,None,1060.8348959219984,None,1060.8348959219984,None,1061.835258143914,None,0.9672889929315716,,,,,,,,,,,,,,,,,,,,,,,,,,,,,,23656,2019_Nov_07_1655,Mmi_3levels,3.1.5,59.98080709971365,
,,,3,1,1.3,,,,,,,,,0,2,2,2,0,9,9,21,,,,,,,,,,,,,,,,,,,,,,,,,,,,,,,,,,,,,,,,,,,,,,,,,,,,,,,,,,,True,True,False,1.0,0.0,-0.13,0.13,1.3,1.17,1.2349999999999999,gamble,win,1.3,64.07083333333338,1063.8527001532093,None,1063.8527001532093,None,1063.8527001532093,None,1063.8527001532093,None,1063.8527001532093,None,1063.8527001532093,None,1063.8527001532093,None,1,1063.8527001532093,None,1065.9034825781528,None,1065.9034825781528,None,1065.9034825781528,None,1065.9034825781528,None,1065.9034825781528,None,1065.9034825781528,None,1065.9034825781528,None,1069.9050316208231,None,1069.9050316208231,None,1069.9050316208231,None,1069.9050316208231,None,1069.9050316208231,None,1069.9050316208231,None,1069.9050316208231,None,1070.8887418740087,None,2.0177015163390024,,,,,,,,,,,,,,,,,,,,,,,,,,,,,,23656,2019_Nov_07_1655,Mmi_3levels,3.1.5,59.98080709971365,
,,,3,1,3.3,,,,,,,,,0,2,2,2,0,10,10,1,,,,,,,,,,,,,,,,,,,,,,,,,,,,,,,,,,,,,,,,,,,,,,,,,,,,,,,,,,,True,True,False,1.0,0.0,-0.13,0.13,3.3,3.17,1.585,gamble,win,3.3,67.37083333333338,1072.9061861231894,None,1072.9061861231894,None,1072.9061861231894,None,1072.9061861231894,None,1072.9061861231894,None,1072.9061861231894,None,1072.9061861231894,None,1,1072.9061861231894,None,1073.8398780732896,None,1073.8398780732896,None,1073.8398780732896,None,1073.8398780732896,None,1073.8398780732896,None,1073.8398780732896,None,1073.8398780732896,None,1077.824744108777,None,1077.824744108777,None,1077.824744108777,None,1077.824744108777,None,1077.824744108777,None,1077.824744108777,None,1077.824744108777,None,1087.3283999262785,None,0.9005492845790286,1078.8251296895287,None,1079.8254803920208,None,0.98,7.502873776542401,1082.8266595331588,None,None,1082.8266595331588,None,,,,,,,,,,,,,,,,,,,23656,2019_Nov_07_1655,Mmi_3levels,3.1.5,59.98080709971365,
,,,3,1,13.7,,,,,,,,,0,2,2,2,0,11,11,9,,,,,,,,,,,,,,,,,,,,,,,,,,,,,,,,,,,,,,,,,,,,,,,,,,,,,,,,,,,True,True,False,0.98,-0.020000000000000018,-0.15000000000000002,0.43000000000000027,13.7,13.27,6.635,gamble,win,13.7,81.07083333333338,1089.3458096171853,None,1089.3458096171853,None,1089.3458096171853,None,1089.3458096171853,None,1089.3458096171853,None,1089.3458096171853,None,1089.3458096171853,None,1,1089.3458096171853,None,1090.2295207023271,None,1090.2295207023271,None,1090.2295207023271,None,1090.2295207023271,None,1090.2295207023271,None,1090.2295207023271,None,1090.2295207023271,None,1094.2310614254166,None,1094.2310614254166,None,1094.2310614254166,None,1094.2310614254166,None,1094.2310614254166,None,1094.2310614254166,None,1094.2310614254166,None,1095.2148254359163,None,0.8506141773395939,,,,,,,,,,,,,,,,,,,,,,,,,,,,,,23656,2019_Nov_07_1655,Mmi_3levels,3.1.5,59.98080709971365,
,,,3,1,7.5,,,,,,,,,0,2,2,2,0,12,12,23,,,,,,,,,,,,,,,,,,,,,,,,,,,,,,,,,,,,,,,,,,,,,,,,,,,,,,,,,,,True,False,True,0.98,-0.020000000000000018,-0.17000000000000004,-0.08416666666666674,7.5,7.4158333333333335,3.7079166666666667,gamble,lose,7.4158333333333335,88.48666666666672,1097.2321772097166,None,1097.2321772097166,None,1097.2321772097166,None,1097.2321772097166,None,1097.2321772097166,None,1097.2321772097166,None,1097.2321772097166,None,1,1097.2321772097166,None,1098.4659904977561,None,1098.4659904977561,None,1098.4659904977561,None,1098.4659904977561,None,1098.4659904977561,None,1098.4659904977561,None,1098.4659904977561,None,1102.4508837318863,None,1102.4508837318863,None,1102.4508837318863,None,1102.4508837318863,None,1102.4508837318863,None,1102.4508837318863,None,1102.4508837318863,None,1111.9544893118946,None,1.2007797370752087,1103.451228674665,None,1104.4516603331176,None,0.98,7.502804979976645,1107.4527988362825,None,None,1107.4527988362825,None,,,,,,,,,,,,,,,,,,,23656,2019_Nov_07_1655,Mmi_3levels,3.1.5,59.98080709971365,
,,,3,1,7.3,,,,,,,,,0,2,2,2,0,13,13,12,,,,,,,,,,,,,,,,,,,,,,,,,,,,,,,,,,,,,,,,,,,,,,,,,,,,,,,,,,,True,True,True,0.98,-0.020000000000000018,-0.19000000000000006,0.4700000000000003,7.3,6.829999999999999,3.4149999999999996,gamble,win,7.3,95.78666666666672,1113.9719889183143,None,1113.9719889183143,None,1113.9719889183143,None,1113.9719889183143,None,1113.9719889183143,None,1113.9719889183143,None,1113.9719889183143,None,1,1113.9719889183143,None,1115.0056678770598,None,1115.0056678770598,None,1115.0056678770598,None,1115.0056678770598,None,1115.0056678770598,None,1115.0056678770598,None,1115.0056678770598,None,1118.9906071888909,None,1118.9906071888909,None,1118.9906071888909,None,1118.9906071888909,None,1118.9906071888909,None,1118.9906071888909,None,1118.9906071888909,None,1119.9909674909031,None,1.0006367682108248,,,,,,,,,,,,,,,,,,,,,,,,,,,,,,23656,2019_Nov_07_1655,Mmi_3levels,3.1.5,59.98080709971365,
,,,3,1,6.7,,,,,,,,,0,2,2,2,0,14,14,22,,,,,,,,,,,,,,,,,,,,,,,,,,,,,,,,,,,,,,,,,,,,,,,,,,,,,,,,,,,True,True,False,0.98,-0.020000000000000018,-0.21000000000000008,0.4900000000000003,6.7,6.21,3.105,gamble,win,6.7,102.48666666666672,1122.0084165398475,None,1122.0084165398475,None,1122.0084165398475,None,1122.0084165398475,None,1122.0084165398475,None,1122.0084165398475,None,1122.0084165398475,None,1,1122.0084165398475,None,1123.2921978934828,None,1123.2921978934828,None,1123.2921978934828,None,1123.2921978934828,None,1123.2921978934828,None,1123.2921978934828,None,1123.2921978934828,None,1127.277091447595,None,1127.277091447595,None,1127.277091447595,None,1127.277091447595,None,1127.277091447595,None,1127.277091447595,None,1127.277091447595,None,1128.2774427900586,None,1.250699165098922,,,,,,,,,,,,,,,,,,,,,,,,,,,,,,23656,2019_Nov_07_1655,Mmi_3levels,3.1.5,59.98080709971365,
,,,3,1,5.5,,,,,,,,,0,2,2,2,0,15,15,15,,,,,,,,,,,,,,,,,,,,,,,,,,,,,,,,,,,,,,,,,,,,,,,,,,,,,,,,,,,True,True,False,0.98,-0.020000000000000018,-0.2300000000000001,0.5100000000000003,5.5,4.989999999999999,2.4949999999999997,gamble,win,5.5,107.98666666666672,1130.2949590356475,None,1130.2949590356475,None,1130.2949590356475,None,1130.2949590356475,None,1130.2949590356475,None,1130.2949590356475,None,1130.2949590356475,None,1,1130.2949590356475,None,1131.1119108934108,None,1131.1119108934108,None,1131.1119108934108,None,1131.1119108934108,None,1131.1119108934108,None,1131.1119108934108,None,1131.1119108934108,None,1135.096782688608,None,1135.096782688608,None,1135.096782688608,None,1135.096782688608,None,1135.096782688608,None,1135.096782688608,None,1135.096782688608,None,1144.600403307868,None,0.7838127120703575,1136.097191948178,None,1137.0975311312468,None,1.0,7.502844657992682,1140.09869331323,None,None,1140.09869331323,None,,,,,,,,,,,,,,,,,,,23656,2019_Nov_07_1655,Mmi_3levels,3.1.5,59.98080709971365,
,,,3,1,9.5,,,,,,,,,0,2,2,2,0,16,16,25,,,,,,,,,,,,,,,,,,,,,,,,,,,,,,,,,,,,,,,,,,,,,,,,,,,,,,,,,,,True,True,True,1.0,0.0,-0.2300000000000001,0.2300000000000001,9.5,9.27,4.635,gamble,win,9.5,117.48666666666672,1146.6179102739188,None,1146.6179102739188,None,1146.6179102739188,None,1146.6179102739188,None,1146.6179102739188,None,1146.6179102739188,None,1146.6179102739188,None,1,1146.6179102739188,None,1147.6682879190666,None,1147.6682879190666,None,1147.6682879190666,None,1147.6682879190666,None,1147.6682879190666,None,1147.6682879190666,None,1147.6682879190666,None,1151.6531552344932,None,1151.6531552344932,None,1151.6531552344932,None,1151.6531552344932,None,1151.6531552344932,None,1151.6531552344932,None,1151.6531552344932,None,1152.6535401752772,None,1.0175072860365617,,,,,,,,,,,,,,,,,,,,,,,,,,,,,,23656,2019_Nov_07_1655,Mmi_3levels,3.1.5,59.98080709971365,
,,,3,1,11.5,,,,,,,,,0,2,2,2,0,17,17,7,,,,,,,,,,,,,,,,,,,,,,,,,,,,,,,,,,,,,,,,,,,,,,,,,,,,,,,,,,,True,True,True,1.0,0.0,-0.2300000000000001,0.2300000000000001,11.5,11.27,5.635,gamble,win,11.5,128.98666666666674,1154.6709383467605,None,1154.6709383467605,None,1154.6709383467605,None,1154.6709383467605,None,1154.6709383467605,None,1154.6709383467605,None,1154.6709383467605,None,1,1154.6709383467605,None,1155.5212690182525,None,1155.5212690182525,None,1155.5212690182525,None,1155.5212690182525,None,1155.5212690182525,None,1155.5212690182525,None,1155.5212690182525,None,1159.5228487793902,None,1159.5228487793902,None,1159.5228487793902,None,1159.5228487793902,None,1159.5228487793902,None,1159.5228487793902,None,1159.5228487793902,None,1169.0098910262423,None,0.8172286439476011,1160.5065647922856,None,1161.5069846113292,None,1.0,7.5027317036328895,1164.508125354383,None,None,1164.508125354383,None,,,,,,,,,,,,,,,,,,,23656,2019_Nov_07_1655,Mmi_3levels,3.1.5,59.98080709971365,
,,,3,1,3.1,,,,,,,,,0,2,2,2,0,18,18,24,,,,,,,,,,,,,,,,,,,,,,,,,,,,,,,,,,,,,,,,,,,,,,,,,,,,,,,,,,,True,False,False,1.0,0.0,-0.2300000000000001,-0.03,3.1,3.0700000000000003,1.5350000000000001,gamble,lose,3.0700000000000003,132.05666666666673,1171.0272747984418,None,1171.0272747984418,None,1171.0272747984418,None,1171.0272747984418,None,1171.0272747984418,None,1171.0272747984418,None,1171.0272747984418,None,1,1171.0272747984418,None,1171.8275871668484,None,1171.8275871668484,None,1171.8275871668484,None,1171.8275871668484,None,1171.8275871668484,None,1171.8275871668484,None,1171.8275871668484,None,1175.8124464826724,None,1175.8124464826724,None,1175.8124464826724,None,1175.8124464826724,None,1175.8124464826724,None,1175.8124464826724,None,1175.8124464826724,None,1176.8128314234564,None,0.7671860220725648,,,,,,,,,,,,,,,,,,,,,,,,,,,,,,23656,2019_Nov_07_1655,Mmi_3levels,3.1.5,59.98080709971365,
,,,3,1,2.1,,,,,,,,,0,2,2,2,0,19,19,26,,,,,,,,,,,,,,,,,,,,,,,,,,,,,,,,,,,,,,,,,,,,,,,,,,,,,,,,,,,True,True,False,1.0,0.0,-0.2300000000000001,0.2300000000000001,2.1,1.87,1.985,gamble,win,2.1,134.15666666666672,1178.8302702329129,None,1178.8302702329129,None,1178.8302702329129,None,1178.8302702329129,None,1178.8302702329129,None,1178.8302702329129,None,1178.8302702329129,None,1,1178.8302702329129,None,1179.8473167419506,None,1179.8473167419506,None,1179.8473167419506,None,1179.8473167419506,None,1179.8473167419506,None,1179.8473167419506,None,1179.8473167419506,None,1183.848834426186,None,1183.848834426186,None,1183.848834426186,None,1183.848834426186,None,1183.848834426186,None,1183.848834426186,None,1183.848834426186,None,1193.3358590739153,None,0.9839691202614631,1184.832580517581,None,1185.8329712180785,None,1.0,7.502937453362392,1188.834120280717,None,None,1188.834120280717,None,,,,,,,,,,,,,,,,,,,23656,2019_Nov_07_1655,Mmi_3levels,3.1.5,59.98080709971365,
,,,3,1,-1.1,,,,,,,,,0,2,2,2,0,20,20,18,,,,,,,,,,,,,,,,,,,,,,,,,,,,,,,,,,,,,,,,,,,,,,,,,,,,,,,,,,,True,False,False,1.0,0.0,-0.2300000000000001,-0.03,-1.1,-1.1300000000000001,-1.1150000000000002,certain,certain,-1.1150000000000002,133.0416666666667,1195.3532998032751,None,1195.3532998032751,None,1195.3532998032751,None,1195.3532998032751,None,1195.3532998032751,None,1195.3532998032751,None,1195.3532998032751,None,3,1195.3532998032751,None,1198.2043958765607,None,1198.2043958765607,None,1198.2043958765607,None,1198.2043958765607,None,1198.2043958765607,None,1198.2043958765607,None,1198.2043958765607,None,1202.2059314799008,None,1202.2059314799008,None,1202.2059314799008,None,1202.2059314799008,None,1202.2059314799008,None,1202.2059314799008,None,1202.2059314799008,None,1203.1895927755286,None,2.8180020453364705,,,,,,,,,,,,,,,,,,,,,,,,,,,,,,23656,2019_Nov_07_1655,Mmi_3levels,3.1.5,59.98080709971365,
,,,3,1,13.5,,,,,,,,,0,2,2,2,0,21,21,16,,,,,,,,,,,,,,,,,,,,,,,,,,,,,,,,,,,,,,,,,,,,,,,,,,,,,,,,,,,True,False,False,1.0,0.0,-0.2300000000000001,-0.03,13.5,13.47,6.735,gamble,lose,13.47,146.5116666666667,1205.2070898220773,None,1205.2070898220773,None,1205.2070898220773,None,1205.2070898220773,None,1205.2070898220773,None,1205.2070898220773,None,1205.2070898220773,None,1,1205.2070898220773,None,1206.2241379310362,None,1206.2241379310362,None,1206.2241379310362,None,1206.2241379310362,None,1206.2241379310362,None,1206.2241379310362,None,1206.2241379310362,None,1210.209017725836,None,1210.209017725836,None,1210.209017725836,None,1210.209017725836,None,1210.209017725836,None,1210.209017725836,None,1210.209017725836,None,1211.2094257054705,None,0.9839553609454015,,,,,,,,,,,,,,,,,,,,,,,,,,,,,,23656,2019_Nov_07_1655,Mmi_3levels,3.1.5,59.98080709971365,
,,,3,1,3.5,,,,,,,,,0,2,2,2,0,22,22,13,,,,,,,,,,,,,,,,,,,,,,,,,,,,,,,,,,,,,,,,,,,,,,,,,,,,,,,,,,,True,True,True,1.0,0.0,-0.2300000000000001,0.2300000000000001,3.5,3.27,1.635,gamble,win,3.5,150.0116666666667,1213.2268424360263,None,1213.2268424360263,None,1213.2268424360263,None,1213.2268424360263,None,1213.2268424360263,None,1213.2268424360263,None,1213.2268424360263,None,1,1213.2268424360263,None,1214.9441384686106,None,1214.9441384686106,None,1214.9441384686106,None,1214.9441384686106,None,1214.9441384686106,None,1214.9441384686106,None,1214.9441384686106,None,1218.9290598613334,None,1218.9290598613334,None,1218.9290598613334,None,1218.9290598613334,None,1218.9290598613334,None,1218.9290598613334,None,1218.9290598613334,None,1228.4326420825091,None,1.6842445625115943,1219.9294230432024,None,1220.9298041441798,None,0.97,7.502766261910438,1223.9309464871512,None,None,1223.9309464871512,None,,,,,,,,,,,,,,,,,,,23656,2019_Nov_07_1655,Mmi_3levels,3.1.5,59.98080709971365,
,,,3,1,-0.5,,,,,,,,,0,2,2,2,0,23,23,19,,,,,,,,,,,,,,,,,,,,,,,,,,,,,,,,,,,,,,,,,,,,,,,,,,,,,,,,,,,True,False,True,0.97,-0.030000000000000027,-0.2600000000000001,-0.12666666666666676,-0.5,-0.6266666666666667,-0.5633333333333334,gamble,lose,-0.6266666666666667,149.38500000000005,1230.4501298495197,None,1230.4501298495197,None,1230.4501298495197,None,1230.4501298495197,None,1230.4501298495197,None,1230.4501298495197,None,1230.4501298495197,None,1,1230.4501298495197,None,1231.6672793294165,None,1231.6672793294165,None,1231.6672793294165,None,1231.6672793294165,None,1231.6672793294165,None,1231.6672793294165,None,1231.6672793294165,None,1235.6687646952669,None,1235.6687646952669,None,1235.6687646952669,None,1235.6687646952669,None,1235.6687646952669,None,1235.6687646952669,None,1235.6687646952669,None,1236.6524746284667,None,1.1838641015056055,,,,,,,,,,,,,,,,,,,,,,,,,,,,,,23656,2019_Nov_07_1655,Mmi_3levels,3.1.5,59.98080709971365,
,,,3,1,-0.1,,,,,,,,,0,2,2,2,0,24,24,0,,,,,,,,,,,,,,,,,,,,,,,,,,,,,,,,,,,,,,,,,,,,,,,,,,,,,,,,,,,True,False,False,0.97,-0.030000000000000027,-0.29000000000000015,-0.12916666666666676,-0.1,-0.22916666666666677,-0.1645833333333334,certain,certain,-0.1645833333333334,149.22041666666672,1238.6699646353663,None,1238.6699646353663,None,1238.6699646353663,None,1238.6699646353663,None,1238.6699646353663,None,1238.6699646353663,None,1238.6699646353663,None,3,1238.6699646353663,None,1240.8874910564482,None,1240.8874910564482,None,1240.8874910564482,None,1240.8874910564482,None,1240.8874910564482,None,1240.8874910564482,None,1240.8874910564482,None,1244.8890704976038,None,1244.8890704976038,None,1244.8890704976038,None,1244.8890704976038,None,1244.8890704976038,None,1244.8890704976038,None,1244.8890704976038,None,1254.3759757912885,None,2.184480070754944,1245.8727429926694,None,1246.8731090543988,None,0.97,7.5028132995612395,1249.8742449976926,None,None,1249.8742449976926,None,,,,,,,,,,,,,,,,,,,23656,2019_Nov_07_1655,Mmi_3levels,3.1.5,59.98080709971365,
,,,3,1,5.3,,,,,,,,,0,2,2,2,0,25,25,8,,,,,,,,,,,,,,,,,,,,,,,,,,,,,,,,,,,,,,,,,,,,,,,,,,,,,,,,,,,True,True,False,0.97,-0.030000000000000027,-0.3200000000000002,0.7400000000000005,5.3,4.56,2.28,gamble,win,5.3,154.52041666666673,1256.393449159019,None,1256.393449159019,None,1256.393449159019,None,1256.393449159019,None,1256.393449159019,None,1256.393449159019,None,1256.393449159019,None,1,1256.393449159019,None,1258.3275689277616,None,1258.3275689277616,None,1258.3275689277616,None,1258.3275689277616,None,1258.3275689277616,None,1258.3275689277616,None,1258.3275689277616,None,1262.3123392880225,None,1262.3123392880225,None,1262.3123392880225,None,1262.3123392880225,None,1262.3123392880225,None,1262.3123392880225,None,1262.3123392880225,None,1263.3127795860455,None,1.9010292606180883,,,,,,,,,,,,,,,,,,,,,,,,,,,,,,23656,2019_Nov_07_1655,Mmi_3levels,3.1.5,59.98080709971365,
,,,3,1,7.9,,,,,,,,,0,2,2,2,0,26,26,20,,,,,,,,,,,,,,,,,,,,,,,,,,,,,,,,,,,,,,,,,,,,,,,,,,,,,,,,,,,True,True,False,0.97,-0.030000000000000027,-0.3500000000000002,0.7700000000000006,7.9,7.13,3.565,gamble,win,7.9,162.42041666666674,1265.3302228752764,None,1265.3302228752764,None,1265.3302228752764,None,1265.3302228752764,None,1265.3302228752764,None,1265.3302228752764,None,1265.3302228752764,None,1,1265.3302228752764,None,1266.3473215417107,None,1266.3473215417107,None,1266.3473215417107,None,1266.3473215417107,None,1266.3473215417107,None,1266.3473215417107,None,1266.3473215417107,None,1270.3321434194004,None,1270.3321434194004,None,1270.3321434194004,None,1270.3321434194004,None,1270.3321434194004,None,1270.3321434194004,None,1270.3321434194004,None,1279.8357857975752,None,0.9840529560788127,1271.3325344398836,None,1272.3328541039227,None,1.0,7.502787380853988,1275.334056603897,None,None,1275.334056603897,None,,,,,,,,,,,,,,,,,,,23656,2019_Nov_07_1655,Mmi_3levels,3.1.5,59.98080709971365,
,,,,,,,,,,,,,,,,,,,,,,,,,,,,,,0,0,0,0,,,,,,,,,,,,,,,,,,,,,,,,,,,,,,,,,,,,,,,,,,,,,,,,,,,,,,,,,,,,,,,,,,,,,,,,,,,,,,,,,,,,,,,,,,,,,,,,,,,,,,,,,,,,,,,,,,,,,,,,1281.83656911847,None,4,2.734587329399801,1281.83656911847,None,162.42041666666674,4,1284.604311272782,None,1284.604311272782,None,1284.604311272782,None,4,7.169614252856263,1284.604311272782,None,23656,2019_Nov_07_1655,Mmi_3levels,3.1.5,59.98080709971365,
