currSlide,currImage,currText,blockNum,targetHappiness,highAmount,instructionLoop1.thisRepN,instructionLoop1.thisTrialN,instructionLoop1.thisN,instructionLoop1.thisIndex,instructionLoop2.thisRepN,instructionLoop2.thisTrialN,instructionLoop2.thisN,instructionLoop2.thisIndex,blockLoop.thisRepN,blockLoop.thisTrialN,blockLoop.thisN,blockLoop.thisIndex,trialLoop.thisRepN,trialLoop.thisTrialN,trialLoop.thisN,trialLoop.thisIndex,doRatingLoop.thisRepN,doRatingLoop.thisTrialN,doRatingLoop.thisN,doRatingLoop.thisIndex,trialHappyLoop.thisRepN,trialHappyLoop.thisTrialN,trialHappyLoop.thisN,trialHappyLoop.thisIndex,logWinningsLoop.thisRepN,logWinningsLoop.thisTrialN,logWinningsLoop.thisN,logWinningsLoop.thisIndex,instrImage.started,instrImage.stopped,instrText.started,instrText.stopped,instrContinueText.started,instrContinueText.stopped,instrKeyResp.keys,instrKeyResp.rt,instrKeyResp.started,instrKeyResp.stopped,lifeHappyText.started,lifeHappyText.stopped,lifeHappySlider.response,lifeHappySlider.rt,lifeHappySlider.started,lifeHappySlider.stopped,lifeHappyResp.keys,lifeHappyResp.started,lifeHappyResp.stopped,instrImage_2.started,instrImage_2.stopped,instrText_2.started,instrText_2.stopped,instrContinueText_2.started,instrContinueText_2.stopped,instrKeyResp_2.keys,instrKeyResp_2.rt,instrKeyResp_2.started,instrKeyResp_2.stopped,localizing.started,localizing.stopped,start_exp.keys,start_exp.rt,start_exp.started,start_exp.stopped,blockHappyText.started,blockHappyText.stopped,blockHappySlider.response,blockHappySlider.rt,blockHappySlider.started,blockHappySlider.stopped,blockHappyResp.keys,blockHappyResp.rt,blockHappyResp.started,blockHappyResp.stopped,blankText.started,blankText.stopped,isHappyBlock,isCongruent,isWinOnTop,lastHappyRating,diff,sumDiff,RPE,winAmount,loseAmount,certainAmount,choice,outcome,outcomeAmount,currentWinnings,fixCross.started,fixCross.stopped,certainBox.started,certainBox.stopped,outcome1Box.started,outcome1Box.stopped,outcome2Box.started,outcome2Box.stopped,certainText.started,certainText.stopped,outcome1Text.started,outcome1Text.stopped,outcome2Text.started,outcome2Text.stopped,choiceKey.keys,choiceKey.started,choiceKey.stopped,fixCross_2.started,fixCross_2.stopped,certainBox_2.started,certainBox_2.stopped,outcome1Box_2.started,outcome1Box_2.stopped,outcome2Box_2.started,outcome2Box_2.stopped,certainText_2.started,certainText_2.stopped,outcome1Text_2.started,outcome1Text_2.stopped,outcome2Text_2.started,outcome2Text_2.stopped,fixCross_3.started,fixCross_3.stopped,certainBox_3.started,certainBox_3.stopped,outcome1Box_3.started,outcome1Box_3.stopped,outcome2Box_3.started,outcome2Box_3.stopped,certainText_3.started,certainText_3.stopped,outcome1Text_3.started,outcome1Text_3.stopped,outcome2Text_3.started,outcome2Text_3.stopped,fixCross_ITI.started,fixCross_ITI.stopped,choiceKey.rt,fixCross_ISI.started,fixCross_ISI.stopped,happyText.started,happyText.stopped,happySlider.response,happySlider.rt,happySlider.started,happySlider.stopped,happyResp.keys,happyResp.started,happyResp.stopped,endOfBlockText.started,endOfBlockText.stopped,restKeyResp.keys,restKeyResp.rt,restKeyResp.started,restKeyResp.stopped,finalWinnings,cashBonus,goodbyeText.started,goodbyeText.stopped,finalWinningsText.started,finalWinningsText.stopped,spaceToContinue.started,spaceToContinue.stopped,goodbyeKeyResp_2.keys,goodbyeKeyResp_2.rt,goodbyeKeyResp_2.started,goodbyeKeyResp_2.stopped,participant,date,expName,psychopyVersion,frameRate,
1,black.png,"Welcome! You are about to play our gambling task.
This task has 3 blocks and takes about 15 minutes.",,,,0,0,0,0,,,,,,,,,,,,,,,,,,,,,,,,,13.286428760038689,None,13.286428760038689,None,13.286428760038689,None,4,25.994639660115354,13.286428760038689,None,,,,,,,,,,,,,,,,,,,,,,,,,,,,,,,,,,,,,,,,,,,,,,,,,,,,,,,,,,,,,,,,,,,,,,,,,,,,,,,,,,,,,,,,,,,,,,,,,,,,,,,,,,,,,,,,,,,,,,,,,,,,,,,,,24229,2019_Dec_31_1132,Mmi_3levels,3.1.5,59.961377444898496,
2,black.png,"In this game, you may win or lose points. Your goal is to get as many points as possible. These points will be converted to a cash bonus at the end.
Sometimes we will ask you to rate your mood.",,,,0,1,1,1,,,,,,,,,,,,,,,,,,,,,,,,,39.33075235784054,None,39.33075235784054,None,39.33075235784054,None,4,17.92383466521278,39.33075235784054,None,,,,,,,,,,,,,,,,,,,,,,,,,,,,,,,,,,,,,,,,,,,,,,,,,,,,,,,,,,,,,,,,,,,,,,,,,,,,,,,,,,,,,,,,,,,,,,,,,,,,,,,,,,,,,,,,,,,,,,,,,,,,,,,,,24229,2019_Dec_31_1132,Mmi_3levels,3.1.5,59.961377444898496,
3,black.png,"On the next screen, please rate how you feel about your life these days. Use the LEFT (green) and RIGHT (blue) buttons to move the slider (you can press and hold them to slide gradually) and the TOP (red) button to lock in your response.
Make your rating as accurately and quickly as you can!",,,,0,2,2,2,,,,,,,,,,,,,,,,,,,,,,,,,57.304221043596044,None,57.304221043596044,None,57.304221043596044,None,4,15.739612021716312,57.304221043596044,None,,,,,,,,,,,,,,,,,,,,,,,,,,,,,,,,,,,,,,,,,,,,,,,,,,,,,,,,,,,,,,,,,,,,,,,,,,,,,,,,,,,,,,,,,,,,,,,,,,,,,,,,,,,,,,,,,,,,,,,,,,,,,,,,,24229,2019_Dec_31_1132,Mmi_3levels,3.1.5,59.961377444898496,
,,,,,,,,,,,,,,,,,,,,,,,,,,,,,,,,,,,,,,,,,,,,73.06027758447453,None,0.39,10.502699208795093,77.06175942148548,None,None,77.06175942148548,None,,,,,,,,,,,,,,,,,,,,,,,,,,,,,,,,,,,,,,,,,,,,,,,,,,,,,,,,,,,,,,,,,,,,,,,,,,,,,,,,,,,,,,,,,,,,,,,,,,,,,,,,,,,,,,,,,,,,,,,,24229,2019_Dec_31_1132,Mmi_3levels,3.1.5,59.961377444898496,
4,black.png,"In this game you can win money by earning points according to your choices. You will decide whether to gamble a number of points or stick with a guaranteed number of points. 
Make your choice by pressing the left or right arrow key once. An example of one trial is shown on the next screen.",,,,,,,,0,0,0,0,,,,,,,,,,,,,,,,,,,,,,,,,,,,,,,,,,,,,,,,83.5975927747786,None,83.5975927747786,None,83.5975927747786,None,4,13.50518738955725,83.5975927747786,None,,,,,,,,,,,,,,,,,,,,,,,,,,,,,,,,,,,,,,,,,,,,,,,,,,,,,,,,,,,,,,,,,,,,,,,,,,,,,,,,,,,,,,,,,,,,,,,,,,,,,,,,,,,,,,24229,2019_Dec_31_1132,Mmi_3levels,3.1.5,59.961377444898496,
5,example_start.png,"The GAMBLING OPTION will be shown on the RIGHT SIDE. 
Select this option using the RIGHT (blue) button on your keypad.",,,,,,,,0,1,1,1,,,,,,,,,,,,,,,,,,,,,,,,,,,,,,,,,,,,,,,,97.16942955192644,None,97.16942955192644,None,97.16942955192644,None,4,6.569409073097631,97.16942955192644,None,,,,,,,,,,,,,,,,,,,,,,,,,,,,,,,,,,,,,,,,,,,,,,,,,,,,,,,,,,,,,,,,,,,,,,,,,,,,,,,,,,,,,,,,,,,,,,,,,,,,,,,,,,,,,,24229,2019_Dec_31_1132,Mmi_3levels,3.1.5,59.961377444898496,
6,example_gamble.png,"Once you select the gambling choice, the choice you made will remain on the screen.",,,,,,,,0,2,2,2,,,,,,,,,,,,,,,,,,,,,,,,,,,,,,,,,,,,,,,,103.77191997249611,None,103.77191997249611,None,103.77191997249611,None,4,2.918096106615849,103.77191997249611,None,,,,,,,,,,,,,,,,,,,,,,,,,,,,,,,,,,,,,,,,,,,,,,,,,,,,,,,,,,,,,,,,,,,,,,,,,,,,,,,,,,,,,,,,,,,,,,,,,,,,,,,,,,,,,,24229,2019_Dec_31_1132,Mmi_3levels,3.1.5,59.961377444898496,
7,example_win.png,"The outcome you received will then be shown on the screen. In this example , you WON 10 points.",,,,,,,,0,3,3,3,,,,,,,,,,,,,,,,,,,,,,,,,,,,,,,,,,,,,,,,106.72299887205008,None,106.72299887205008,None,106.72299887205008,None,4,4.335193389211781,106.72299887205008,None,,,,,,,,,,,,,,,,,,,,,,,,,,,,,,,,,,,,,,,,,,,,,,,,,,,,,,,,,,,,,,,,,,,,,,,,,,,,,,,,,,,,,,,,,,,,,,,,,,,,,,,,,,,,,,24229,2019_Dec_31_1132,Mmi_3levels,3.1.5,59.961377444898496,
8,example_start.png,"The GUARANTEED OPTION will be shown on the LEFT SIDE. You are 100% guaranteed to gain or lose this amount. In this example, you have a 100% chance of winning 1 point. Select this option using the LEFT (green) button on your keyboard.",,,,,,,,0,4,4,4,,,,,,,,,,,,,,,,,,,,,,,,,,,,,,,,,,,,,,,,111.10798851260915,None,111.10798851260915,None,111.10798851260915,None,4,11.1212872879114,111.10798851260915,None,,,,,,,,,,,,,,,,,,,,,,,,,,,,,,,,,,,,,,,,,,,,,,,,,,,,,,,,,,,,,,,,,,,,,,,,,,,,,,,,,,,,,,,,,,,,,,,,,,,,,,,,,,,,,,24229,2019_Dec_31_1132,Mmi_3levels,3.1.5,59.961377444898496,
9,example_certain.png,"Once you select the guaranteed choice, your selection will remain on the screen.",,,,,,,,0,5,5,5,,,,,,,,,,,,,,,,,,,,,,,,,,,,,,,,,,,,,,,,122.26226915291045,None,122.26226915291045,None,122.26226915291045,None,4,3.834988440736197,122.26226915291045,None,,,,,,,,,,,,,,,,,,,,,,,,,,,,,,,,,,,,,,,,,,,,,,,,,,,,,,,,,,,,,,,,,,,,,,,,,,,,,,,,,,,,,,,,,,,,,,,,,,,,,,,,,,,,,,24229,2019_Dec_31_1132,Mmi_3levels,3.1.5,59.961377444898496,
10,black.png,"Please make your choices as fast as possible.
You will be given a break at the end of each block.
Let's play!",,,,,,,,0,6,6,6,,,,,,,,,,,,,,,,,,,,,,,,,,,,,,,,,,,,,,,,126.13034054089803,None,126.13034054089803,None,126.13034054089803,None,4,25.743531482177787,126.13034054089803,None,,,,,,,,,,,,,,,,,,,,,,,,,,,,,,,,,,,,,,,,,,,,,,,,,,,,,,,,,,,,,,,,,,,,,,,,,,,,,,,,,,,,,,,,,,,,,,,,,,,,,,,,,,,,,,24229,2019_Dec_31_1132,Mmi_3levels,3.1.5,59.961377444898496,
,,,,,,,,,,,,,,,,,,,,,,,,,,,,,,,,,,,,,,,,,,,,,,,,,,,,,,,,,,,,,,,151.8901258329861,None,space,26.84382282581646,151.8901258329861,None,,,,,,,,,,,,,,,,,,,,,,,,,,,,,,,,,,,,,,,,,,,,,,,,,,,,,,,,,,,,,,,,,,,,,,,,,,,,,,,,,,,,,,,,,,,,,,,,,,,,,,,,24229,2019_Dec_31_1132,Mmi_3levels,3.1.5,59.961377444898496,
,,,1,1,10.7,,,,,,,,,0,0,0,0,0,0,0,22,,,,,,,,,,,,,,,,,,,,,,,,,,,,,,,,,,,,,,,,,,,,,,,,178.75029014376923,None,0.47,6.411975009483285,181.7680872271303,None,4,3.3849019655026495,181.7680872271303,None,185.16937899484765,None,True,True,True,0.47,-0.53,-0.53,7.95,10.7,2.749999999999999,1.3749999999999996,gamble,win,10.7,10.7,188.20387114328332,None,188.20387114328332,None,188.20387114328332,None,188.20387114328332,None,188.20387114328332,None,188.20387114328332,None,188.20387114328332,None,None,188.20387114328332,None,191.20500899956096,None,191.20500899956096,None,191.20500899956096,None,191.20500899956096,None,191.20500899956096,None,191.20500899956096,None,191.20500899956096,None,195.1898552881321,None,195.1898552881321,None,195.1898552881321,None,195.1898552881321,None,195.1898552881321,None,195.1898552881321,None,195.1898552881321,None,196.19023254700005,None,,,,,,,,,,,,,,,,,,,,,,,,,,,,,,,24229,2019_Dec_31_1132,Mmi_3levels,3.1.5,59.961377444898496,
,,,1,1,6.3,,,,,,,,,0,0,0,0,0,1,1,6,,,,,,,,,,,,,,,,,,,,,,,,,,,,,,,,,,,,,,,,,,,,,,,,,,,,,,,,,,,,True,False,True,0.47,-0.53,-1.06,-1.9433333333333334,6.3,4.3566666666666665,2.1783333333333332,gamble,lose,4.3566666666666665,15.056666666666665,198.20766837056726,None,198.20766837056726,None,198.20766837056726,None,198.20766837056726,None,198.20766837056726,None,198.20766837056726,None,198.20766837056726,None,1,198.20766837056726,None,199.64154455356766,None,199.64154455356766,None,199.64154455356766,None,199.64154455356766,None,199.64154455356766,None,199.64154455356766,None,199.64154455356766,None,203.6263818825828,None,203.6263818825828,None,203.6263818825828,None,203.6263818825828,None,203.6263818825828,None,203.6263818825828,None,203.6263818825828,None,204.62676138139796,None,1.4007893957896158,,,,,,,,,,,,,,,,,,,,,,,,,,,,,,24229,2019_Dec_31_1132,Mmi_3levels,3.1.5,59.961377444898496,
,,,1,1,12.7,,,,,,,,,0,0,0,0,0,2,2,0,,,,,,,,,,,,,,,,,,,,,,,,,,,,,,,,,,,,,,,,,,,,,,,,,,,,,,,,,,,,True,True,True,0.47,-0.53,-1.59,9.01,12.7,3.6899999999999995,1.8449999999999998,gamble,win,12.7,27.756666666666664,206.64419240527786,None,206.64419240527786,None,206.64419240527786,None,206.64419240527786,None,206.64419240527786,None,206.64419240527786,None,206.64419240527786,None,1,206.64419240527786,None,208.14481621026061,None,208.14481621026061,None,208.14481621026061,None,208.14481621026061,None,208.14481621026061,None,208.14481621026061,None,208.14481621026061,None,212.1295831433963,None,212.1295831433963,None,212.1295831433963,None,212.1295831433963,None,212.1295831433963,None,212.1295831433963,None,212.1295831433963,None,221.63319878093898,None,1.4675264584366232,213.1299818410771,None,214.13036325969733,None,0.5,7.5027456062380224,217.1315337541746,None,None,217.1315337541746,None,,,,,,,,,,,,,,,,,,,24229,2019_Dec_31_1132,Mmi_3levels,3.1.5,59.961377444898496,
,,,1,1,12.3,,,,,,,,,0,0,0,0,0,3,3,5,,,,,,,,,,,,,,,,,,,,,,,,,,,,,,,,,,,,,,,,,,,,,,,,,,,,,,,,,,,,True,False,True,0.5,-0.5,-2.09,-1.9241666666666666,12.3,10.375833333333334,5.187916666666667,gamble,lose,10.375833333333334,38.1325,223.65068644157145,None,223.65068644157145,None,223.65068644157145,None,223.65068644157145,None,223.65068644157145,None,223.65068644157145,None,223.65068644157145,None,1,223.65068644157145,None,225.21794715500437,None,225.21794715500437,None,225.21794715500437,None,225.21794715500437,None,225.21794715500437,None,225.21794715500437,None,225.21794715500437,None,229.2194149127463,None,229.2194149127463,None,229.2194149127463,None,229.2194149127463,None,229.2194149127463,None,229.2194149127463,None,229.2194149127463,None,230.2031163055217,None,1.5342276832088828,,,,,,,,,,,,,,,,,,,,,,,,,,,,,,24229,2019_Dec_31_1132,Mmi_3levels,3.1.5,59.961377444898496,
,,,1,1,4.9,,,,,,,,,0,0,0,0,0,4,4,4,,,,,,,,,,,,,,,,,,,,,,,,,,,,,,,,,,,,,,,,,,,,,,,,,,,,,,,,,,,,True,True,False,0.5,-0.5,-2.59,9.59,4.9,-4.6899999999999995,0.10500000000000043,certain,certain,0.10500000000000043,38.2375,232.2206026862841,None,232.2206026862841,None,232.2206026862841,None,232.2206026862841,None,232.2206026862841,None,232.2206026862841,None,232.2206026862841,None,3,232.2206026862841,None,234.38803618995007,None,234.38803618995007,None,234.38803618995007,None,234.38803618995007,None,234.38803618995007,None,234.38803618995007,None,234.38803618995007,None,238.37292887596413,None,238.37292887596413,None,238.37292887596413,None,238.37292887596413,None,238.37292887596413,None,238.37292887596413,None,238.37292887596413,None,247.87648083711974,None,2.134355996036902,239.37325493770186,None,240.37365171557758,None,0.5,7.502702088677324,243.37475885357708,None,None,243.37475885357708,None,,,,,,,,,,,,,,,,,,,24229,2019_Dec_31_1132,Mmi_3levels,3.1.5,59.961377444898496,
,,,1,1,12.1,,,,,,,,,0,0,0,0,0,5,5,1,,,,,,,,,,,,,,,,,,,,,,,,,,,,,,,,,,,,,,,,,,,,,,,,,,,,,,,,,,,,True,False,True,0.5,-0.5,-3.09,-2.0075,12.1,10.0925,5.04625,gamble,lose,10.0925,48.33,249.8939198604785,None,249.8939198604785,None,249.8939198604785,None,249.8939198604785,None,249.8939198604785,None,249.8939198604785,None,249.8939198604785,None,1,249.8939198604785,None,251.14443543169182,None,251.14443543169182,None,251.14443543169182,None,251.14443543169182,None,251.14443543169182,None,251.14443543169182,None,251.14443543169182,None,255.145897749695,None,255.145897749695,None,255.145897749695,None,255.145897749695,None,255.145897749695,None,255.145897749695,None,255.145897749695,None,256.12961386167444,None,1.2174243042245507,,,,,,,,,,,,,,,,,,,,,,,,,,,,,,24229,2019_Dec_31_1132,Mmi_3levels,3.1.5,59.961377444898496,
,,,1,1,10.1,,,,,,,,,0,0,0,0,0,6,6,21,,,,,,,,,,,,,,,,,,,,,,,,,,,,,,,,,,,,,,,,,,,,,,,,,,,,,,,,,,,,True,False,True,0.5,-0.5,-3.59,-2.049166666666667,10.1,8.050833333333333,4.025416666666667,gamble,lose,8.050833333333333,56.38083333333333,258.14708840311505,None,258.14708840311505,None,258.14708840311505,None,258.14708840311505,None,258.14708840311505,None,258.14708840311505,None,258.14708840311505,None,1,258.14708840311505,None,259.2141019302653,None,259.2141019302653,None,259.2141019302653,None,259.2141019302653,None,259.2141019302653,None,259.2141019302653,None,259.2141019302653,None,263.2156010463368,None,263.2156010463368,None,263.2156010463368,None,263.2156010463368,None,263.2156010463368,None,263.2156010463368,None,263.2156010463368,None,264.1993065988645,None,1.0339299399638548,,,,,,,,,,,,,,,,,,,,,,,,,,,,,,24229,2019_Dec_31_1132,Mmi_3levels,3.1.5,59.961377444898496,
,,,1,1,1.7,,,,,,,,,0,0,0,0,0,7,7,11,,,,,,,,,,,,,,,,,,,,,,,,,,,,,,,,,,,,,,,,,,,,,,,,,,,,,,,,,,,,True,True,True,0.5,-0.5,-4.09,11.09,1.7,-9.39,-3.845,gamble,win,1.7,58.08083333333333,266.21675682161003,None,266.21675682161003,None,266.21675682161003,None,266.21675682161003,None,266.21675682161003,None,266.21675682161003,None,266.21675682161003,None,1,266.21675682161003,None,267.750674122246,None,267.750674122246,None,267.750674122246,None,267.750674122246,None,267.750674122246,None,267.750674122246,None,267.750674122246,None,271.73551401123405,None,271.73551401123405,None,271.73551401123405,None,271.73551401123405,None,271.73551401123405,None,271.73551401123405,None,271.73551401123405,None,281.23911236971617,None,1.5008247538935393,272.7358938299585,None,273.7363248458132,None,0.49,7.502781444229186,276.73740062559955,None,None,276.73740062559955,None,,,,,,,,,,,,,,,,,,,24229,2019_Dec_31_1132,Mmi_3levels,3.1.5,59.961377444898496,
,,,1,1,4.1,,,,,,,,,0,0,0,0,0,8,8,19,,,,,,,,,,,,,,,,,,,,,,,,,,,,,,,,,,,,,,,,,,,,,,,,,,,,,,,,,,,,True,False,False,0.49,-0.51,-4.6,-2.1683333333333334,4.1,1.9316666666666662,0.9658333333333331,gamble,lose,1.9316666666666662,60.012499999999996,283.25659587059636,None,283.25659587059636,None,283.25659587059636,None,283.25659587059636,None,283.25659587059636,None,283.25659587059636,None,283.25659587059636,None,1,283.25659587059636,None,284.45705504494254,None,284.45705504494254,None,284.45705504494254,None,284.45705504494254,None,284.45705504494254,None,284.45705504494254,None,284.45705504494254,None,288.45856568031013,None,288.45856568031013,None,288.45856568031013,None,288.45856568031013,None,288.45856568031013,None,288.45856568031013,None,288.45856568031013,None,289.4422152360203,None,1.1673663074616343,,,,,,,,,,,,,,,,,,,,,,,,,,,,,,24229,2019_Dec_31_1132,Mmi_3levels,3.1.5,59.961377444898496,
,,,1,1,1.1,,,,,,,,,0,0,0,0,0,9,9,18,,,,,,,,,,,,,,,,,,,,,,,,,,,,,,,,,,,,,,,,,,,,,,,,,,,,,,,,,,,,True,False,True,0.49,-0.51,-5.109999999999999,-2.2108333333333334,1.1,-1.1108333333333333,-0.005416666666666625,gamble,lose,-1.1108333333333333,58.901666666666664,291.459649139666,None,291.459649139666,None,291.459649139666,None,291.459649139666,None,291.459649139666,None,291.459649139666,None,291.459649139666,None,1,291.459649139666,None,292.8101632709149,None,292.8101632709149,None,292.8101632709149,None,292.8101632709149,None,292.8101632709149,None,292.8101632709149,None,292.8101632709149,None,296.7950537169818,None,296.7950537169818,None,296.7950537169818,None,296.7950537169818,None,296.7950537169818,None,296.7950537169818,None,296.7950537169818,None,306.29860247822944,None,1.3174081451725215,297.7953612197889,None,298.7957624773262,None,0.49,7.502735046786256,301.79686833533924,None,None,301.79686833533924,None,,,,,,,,,,,,,,,,,,,24229,2019_Dec_31_1132,Mmi_3levels,3.1.5,59.961377444898496,
,,,1,1,-1.5,,,,,,,,,0,0,0,0,0,10,10,15,,,,,,,,,,,,,,,,,,,,,,,,,,,,,,,,,,,,,,,,,,,,,,,,,,,,,,,,,,,,True,False,True,0.49,-0.51,-5.619999999999999,-2.2533333333333334,-1.5,-3.7533333333333334,-2.626666666666667,certain,certain,-2.626666666666667,56.275,308.3160690201912,None,308.3160690201912,None,308.3160690201912,None,308.3160690201912,None,308.3160690201912,None,308.3160690201912,None,308.3160690201912,None,3,308.3160690201912,None,309.93330997461453,None,309.93330997461453,None,309.93330997461453,None,309.93330997461453,None,309.93330997461453,None,309.93330997461453,None,309.93330997461453,None,313.93481133063324,None,313.93481133063324,None,313.93481133063324,None,313.93481133063324,None,313.93481133063324,None,313.93481133063324,None,313.93481133063324,None,314.9185354420915,None,1.5841538473032415,,,,,,,,,,,,,,,,,,,,,,,,,,,,,,24229,2019_Dec_31_1132,Mmi_3levels,3.1.5,59.961377444898496,
,,,1,1,-0.1,,,,,,,,,0,0,0,0,0,11,11,26,,,,,,,,,,,,,,,,,,,,,,,,,,,,,,,,,,,,,,,,,,,,,,,,,,,,,,,,,,,,True,True,True,0.49,-0.51,-6.129999999999999,13.27,-0.1,-13.37,-6.734999999999999,certain,certain,-6.734999999999999,49.54,316.9359610262327,None,316.9359610262327,None,316.9359610262327,None,316.9359610262327,None,316.9359610262327,None,316.9359610262327,None,316.9359610262327,None,3,316.9359610262327,None,318.9867668211227,None,318.9867668211227,None,318.9867668211227,None,318.9867668211227,None,318.9867668211227,None,318.9867668211227,None,318.9867668211227,None,322.97158047149424,None,322.97158047149424,None,322.97158047149424,None,322.97158047149424,None,322.97158047149424,None,322.97158047149424,None,322.97158047149424,None,332.4751836297801,None,2.017674210248515,323.9720127673354,None,324.97233722917736,None,0.48,7.5027462461730465,327.9734642059775,None,None,327.9734642059775,None,,,,,,,,,,,,,,,,,,,24229,2019_Dec_31_1132,Mmi_3levels,3.1.5,59.961377444898496,
,,,1,1,12.9,,,,,,,,,0,0,0,0,0,12,12,7,,,,,,,,,,,,,,,,,,,,,,,,,,,,,,,,,,,,,,,,,,,,,,,,,,,,,,,,,,,,True,True,False,0.48,-0.52,-6.649999999999999,13.93,12.9,-1.0299999999999994,-0.5149999999999997,gamble,win,12.9,62.44,334.4926127337385,None,334.4926127337385,None,334.4926127337385,None,334.4926127337385,None,334.4926127337385,None,334.4926127337385,None,334.4926127337385,None,1,334.4926127337385,None,335.7597641731845,None,335.7597641731845,None,335.7597641731845,None,335.7597641731845,None,335.7597641731845,None,335.7597641731845,None,335.7597641731845,None,339.7613228058908,None,339.7613228058908,None,339.7613228058908,None,339.7613228058908,None,339.7613228058908,None,339.7613228058908,None,339.7613228058908,None,340.744978121249,None,1.2340883311117068,,,,,,,,,,,,,,,,,,,,,,,,,,,,,,24229,2019_Dec_31_1132,Mmi_3levels,3.1.5,59.961377444898496,
,,,1,1,3.3,,,,,,,,,0,0,0,0,0,13,13,14,,,,,,,,,,,,,,,,,,,,,,,,,,,,,,,,,,,,,,,,,,,,,,,,,,,,,,,,,,,,True,True,True,0.48,-0.52,-7.169999999999998,14.45,3.3,-11.149999999999999,-3.9249999999999994,certain,certain,-3.9249999999999994,58.515,342.76239122613333,None,342.76239122613333,None,342.76239122613333,None,342.76239122613333,None,342.76239122613333,None,342.76239122613333,None,342.76239122613333,None,3,342.76239122613333,None,344.19628628797363,None,344.19628628797363,None,344.19628628797363,None,344.19628628797363,None,344.19628628797363,None,344.19628628797363,None,344.19628628797363,None,348.1812128920574,None,348.1812128920574,None,348.1812128920574,None,348.1812128920574,None,348.1812128920574,None,348.1812128920574,None,348.1812128920574,None,349.1815623125294,None,1.400812114472501,,,,,,,,,,,,,,,,,,,,,,,,,,,,,,24229,2019_Dec_31_1132,Mmi_3levels,3.1.5,59.961377444898496,
,,,1,1,-1.1,,,,,,,,,0,0,0,0,0,14,14,3,,,,,,,,,,,,,,,,,,,,,,,,,,,,,,,,,,,,,,,,,,,,,,,,,,,,,,,,,,,,True,True,False,0.48,-0.52,-7.689999999999998,14.969999999999999,-1.1,-16.07,-8.585,certain,certain,-8.585,49.93,351.1989469389664,None,351.1989469389664,None,351.1989469389664,None,351.1989469389664,None,351.1989469389664,None,351.1989469389664,None,351.1989469389664,None,3,351.1989469389664,None,353.16631868621334,None,353.16631868621334,None,353.16631868621334,None,353.16631868621334,None,353.16631868621334,None,353.16631868621334,None,353.16631868621334,None,357.1678782788804,None,357.1678782788804,None,357.1678782788804,None,357.1678782788804,None,357.1678782788804,None,357.1678782788804,None,357.1678782788804,None,366.6547674930189,None,1.9342721607536077,358.15153775387444,None,359.1519559704466,None,0.48,7.502688329434022,362.1530746278586,None,None,362.1530746278586,None,,,,,,,,,,,,,,,,,,,24229,2019_Dec_31_1132,Mmi_3levels,3.1.5,59.961377444898496,
,,,1,1,7.9,,,,,,,,,0,0,0,0,0,15,15,20,,,,,,,,,,,,,,,,,,,,,,,,,,,,,,,,,,,,,,,,,,,,,,,,,,,,,,,,,,,,True,True,False,0.48,-0.52,-8.209999999999997,15.489999999999998,7.9,-7.589999999999998,0.15500000000000114,certain,certain,0.15500000000000114,50.085,368.67219275725074,None,368.67219275725074,None,368.67219275725074,None,368.67219275725074,None,368.67219275725074,None,368.67219275725074,None,368.67219275725074,None,3,368.67219275725074,None,370.7397585735889,None,370.7397585735889,None,370.7397585735889,None,370.7397585735889,None,370.7397585735889,None,370.7397585735889,None,370.7397585735889,None,374.72448134911247,None,374.72448134911247,None,374.72448134911247,None,374.72448134911247,None,374.72448134911247,None,374.72448134911247,None,374.72448134911247,None,375.72485700808465,None,2.034371195244603,,,,,,,,,,,,,,,,,,,,,,,,,,,,,,24229,2019_Dec_31_1132,Mmi_3levels,3.1.5,59.961377444898496,
,,,1,1,13.3,,,,,,,,,0,0,0,0,0,16,16,17,,,,,,,,,,,,,,,,,,,,,,,,,,,,,,,,,,,,,,,,,,,,,,,,,,,,,,,,,,,,True,False,False,0.48,-0.52,-8.729999999999997,-2.5475,13.3,10.752500000000001,5.376250000000001,gamble,lose,10.752500000000001,60.837500000000006,377.74232195003424,None,377.74232195003424,None,377.74232195003424,None,377.74232195003424,None,377.74232195003424,None,377.74232195003424,None,377.74232195003424,None,1,377.74232195003424,None,379.02615149552,None,379.02615149552,None,379.02615149552,None,379.02615149552,None,379.02615149552,None,379.02615149552,None,379.02615149552,None,383.02770852833055,None,383.02770852833055,None,383.02770852833055,None,383.02770852833055,None,383.02770852833055,None,383.02770852833055,None,383.02770852833055,None,392.5145615845686,None,1.2506880414439365,384.0113356852671,None,385.0117155039916,None,0.49,7.502711368142627,388.0128693593433,None,None,388.0128693593433,None,,,,,,,,,,,,,,,,,,,24229,2019_Dec_31_1132,Mmi_3levels,3.1.5,59.961377444898496,
,,,1,1,13.7,,,,,,,,,0,0,0,0,0,17,17,10,,,,,,,,,,,,,,,,,,,,,,,,,,,,,,,,,,,,,,,,,,,,,,,,,,,,,,,,,,,,True,True,False,0.49,-0.51,-9.239999999999997,16.379999999999995,13.7,-2.679999999999996,-1.339999999999998,gamble,win,13.7,74.53750000000001,394.53204156574793,None,394.53204156574793,None,394.53204156574793,None,394.53204156574793,None,394.53204156574793,None,394.53204156574793,None,394.53204156574793,None,1,394.53204156574793,None,396.03255465696566,None,396.03255465696566,None,396.03255465696566,None,396.03255465696566,None,396.03255465696566,None,396.03255465696566,None,396.03255465696566,None,400.0174374235794,None,400.0174374235794,None,400.0174374235794,None,400.0174374235794,None,400.0174374235794,None,400.0174374235794,None,400.0174374235794,None,401.01781436242163,None,1.4674429431324825,,,,,,,,,,,,,,,,,,,,,,,,,,,,,,24229,2019_Dec_31_1132,Mmi_3levels,3.1.5,59.961377444898496,
,,,1,1,2.3,,,,,,,,,0,0,0,0,0,18,18,16,,,,,,,,,,,,,,,,,,,,,,,,,,,,,,,,,,,,,,,,,,,,,,,,,,,,,,,,,,,,True,False,True,0.49,-0.51,-9.749999999999996,-2.5974999999999997,2.3,-0.2974999999999999,1.00125,gamble,lose,-0.2974999999999999,74.24000000000001,403.03520698845387,None,403.03520698845387,None,403.03520698845387,None,403.03520698845387,None,403.03520698845387,None,403.03520698845387,None,403.03520698845387,None,1,403.03520698845387,None,404.2189915764611,None,404.2189915764611,None,404.2189915764611,None,404.2189915764611,None,404.2189915764611,None,404.2189915764611,None,404.2189915764611,None,408.2038567439886,None,408.2038567439886,None,408.2038567439886,None,408.2038567439886,None,408.2038567439886,None,408.2038567439886,None,408.2038567439886,None,409.20420904434286,None,1.1507406785385683,,,,,,,,,,,,,,,,,,,,,,,,,,,,,,24229,2019_Dec_31_1132,Mmi_3levels,3.1.5,59.961377444898496,
,,,1,1,11.7,,,,,,,,,0,0,0,0,0,19,19,23,,,,,,,,,,,,,,,,,,,,,,,,,,,,,,,,,,,,,,,,,,,,,,,,,,,,,,,,,,,,True,True,False,0.49,-0.51,-10.259999999999996,17.4,11.7,-5.699999999999999,-2.8499999999999996,gamble,win,11.7,85.94000000000001,411.22163718834054,None,411.22163718834054,None,411.22163718834054,None,411.22163718834054,None,411.22163718834054,None,411.22163718834054,None,411.22163718834054,None,1,411.22163718834054,None,412.50545841432177,None,412.50545841432177,None,412.50545841432177,None,412.50545841432177,None,412.50545841432177,None,412.50545841432177,None,412.50545841432177,None,416.49033126141876,None,416.49033126141876,None,416.49033126141876,None,416.49033126141876,None,416.49033126141876,None,416.49033126141876,None,416.49033126141876,None,425.9939510587137,None,1.2507744366303086,417.4906778020086,None,418.49105314107146,None,0.46,7.50277792441193,421.4921778780408,None,None,421.4921778780408,None,,,,,,,,,,,,,,,,,,,24229,2019_Dec_31_1132,Mmi_3levels,3.1.5,59.961377444898496,
,,,1,1,12.5,,,,,,,,,0,0,0,0,0,20,20,24,,,,,,,,,,,,,,,,,,,,,,,,,,,,,,,,,,,,,,,,,,,,,,,,,,,,,,,,,,,,True,False,False,0.46,-0.54,-10.799999999999997,-2.79,12.5,9.71,4.855,gamble,lose,9.71,95.65,428.0113312054891,None,428.0113312054891,None,428.0113312054891,None,428.0113312054891,None,428.0113312054891,None,428.0113312054891,None,428.0113312054891,None,1,428.0113312054891,None,429.1450933148153,None,429.1450933148153,None,429.1450933148153,None,429.1450933148153,None,429.1450933148153,None,429.1450933148153,None,429.1450933148153,None,433.1466634668177,None,433.1466634668177,None,433.1466634668177,None,433.1466634668177,None,433.1466634668177,None,433.1466634668177,None,433.1466634668177,None,434.1303098226199,None,1.1004958122503012,,,,,,,,,,,,,,,,,,,,,,,,,,,,,,24229,2019_Dec_31_1132,Mmi_3levels,3.1.5,59.961377444898496,
,,,1,1,4.3,,,,,,,,,0,0,0,0,0,21,21,2,,,,,,,,,,,,,,,,,,,,,,,,,,,,,,,,,,,,,,,,,,,,,,,,,,,,,,,,,,,,True,False,True,0.46,-0.54,-11.339999999999996,-2.835,4.3,1.4649999999999999,0.7324999999999999,gamble,lose,1.4649999999999999,97.11500000000001,436.14774180646054,None,436.14774180646054,None,436.14774180646054,None,436.14774180646054,None,436.14774180646054,None,436.14774180646054,None,436.14774180646054,None,1,436.14774180646054,None,437.1481241850415,None,437.1481241850415,None,437.1481241850415,None,437.1481241850415,None,437.1481241850415,None,437.1481241850415,None,437.1481241850415,None,441.1330146312248,None,441.1330146312248,None,441.1330146312248,None,441.1330146312248,None,441.1330146312248,None,441.1330146312248,None,441.1330146312248,None,450.6365576328244,None,0.9671116017270833,442.13333941297606,None,443.13372147164773,None,0.47,7.502680329838768,446.1348439687863,None,None,446.1348439687863,None,,,,,,,,,,,,,,,,,,,24229,2019_Dec_31_1132,Mmi_3levels,3.1.5,59.961377444898496,
,,,1,1,9.3,,,,,,,,,0,0,0,0,0,22,22,9,,,,,,,,,,,,,,,,,,,,,,,,,,,,,,,,,,,,,,,,,,,,,,,,,,,,,,,,,,,,True,True,True,0.47,-0.53,-11.869999999999996,19.289999999999996,9.3,-9.989999999999995,-0.3449999999999971,certain,certain,-0.3449999999999971,96.77000000000001,452.6539902566001,None,452.6539902566001,None,452.6539902566001,None,452.6539902566001,None,452.6539902566001,None,452.6539902566001,None,452.6539902566001,None,3,452.6539902566001,None,454.3213455246296,None,454.3213455246296,None,454.3213455246296,None,454.3213455246296,None,454.3213455246296,None,454.3213455246296,None,454.3213455246296,None,458.3061889334349,None,458.3061889334349,None,458.3061889334349,None,458.3061889334349,None,458.3061889334349,None,458.3061889334349,None,458.3061889334349,None,459.3065137153026,None,1.634231682983227,,,,,,,,,,,,,,,,,,,,,,,,,,,,,,24229,2019_Dec_31_1132,Mmi_3levels,3.1.5,59.961377444898496,
,,,1,1,5.5,,,,,,,,,0,0,0,0,0,23,23,8,,,,,,,,,,,,,,,,,,,,,,,,,,,,,,,,,,,,,,,,,,,,,,,,,,,,,,,,,,,,True,False,False,0.47,-0.53,-12.399999999999995,-2.8883333333333328,5.5,2.6116666666666672,1.3058333333333336,gamble,lose,2.6116666666666672,99.38166666666667,461.323947938974,None,461.323947938974,None,461.323947938974,None,461.323947938974,None,461.323947938974,None,461.323947938974,None,461.323947938974,None,1,461.323947938974,None,462.207612053724,None,462.207612053724,None,462.207612053724,None,462.207612053724,None,462.207612053724,None,462.207612053724,None,462.207612053724,None,466.1925037797773,None,466.1925037797773,None,466.1925037797773,None,466.1925037797773,None,466.1925037797773,None,466.1925037797773,None,466.1925037797773,None,475.6960663002683,None,0.8505974864820018,467.1928141624667,None,468.1932096602395,None,0.46,7.5027350469026715,471.1943900742335,None,None,471.1943900742335,None,,,,,,,,,,,,,,,,,,,24229,2019_Dec_31_1132,Mmi_3levels,3.1.5,59.961377444898496,
,,,1,1,7.3,,,,,,,,,0,0,0,0,0,24,24,13,,,,,,,,,,,,,,,,,,,,,,,,,,,,,,,,,,,,,,,,,,,,,,,,,,,,,,,,,,,,True,True,True,0.46,-0.54,-12.939999999999994,20.499999999999993,7.3,-13.199999999999992,-2.949999999999996,certain,certain,-2.949999999999996,96.43166666666667,477.71348292496987,None,477.71348292496987,None,477.71348292496987,None,477.71348292496987,None,477.71348292496987,None,477.71348292496987,None,477.71348292496987,None,3,477.71348292496987,None,479.14740902511403,None,479.14740902511403,None,479.14740902511403,None,479.14740902511403,None,479.14740902511403,None,479.14740902511403,None,479.14740902511403,None,483.14891358080786,None,483.14891358080786,None,483.14891358080786,None,483.14891358080786,None,483.14891358080786,None,483.14891358080786,None,483.14891358080786,None,484.1326271329308,None,1.4007692369632423,,,,,,,,,,,,,,,,,,,,,,,,,,,,,,24229,2019_Dec_31_1132,Mmi_3levels,3.1.5,59.961377444898496,
,,,1,1,2.7,,,,,,,,,0,0,0,0,0,25,25,25,,,,,,,,,,,,,,,,,,,,,,,,,,,,,,,,,,,,,,,,,,,,,,,,,,,,,,,,,,,,True,True,True,0.46,-0.54,-13.479999999999993,21.039999999999992,2.7,-18.339999999999993,-7.819999999999997,certain,certain,-7.819999999999997,88.61166666666668,486.15002519858535,None,486.15002519858535,None,486.15002519858535,None,486.15002519858535,None,486.15002519858535,None,486.15002519858535,None,486.15002519858535,None,3,486.15002519858535,None,487.4004950122908,None,487.4004950122908,None,487.4004950122908,None,487.4004950122908,None,487.4004950122908,None,487.4004950122908,None,487.4004950122908,None,491.40204820537474,None,491.40204820537474,None,491.40204820537474,None,491.40204820537474,None,491.40204820537474,None,491.40204820537474,None,491.40204820537474,None,492.3857147200033,None,1.2173868663376197,,,,,,,,,,,,,,,,,,,,,,,,,,,,,,24229,2019_Dec_31_1132,Mmi_3levels,3.1.5,59.961377444898496,
,,,1,1,3.7,,,,,,,,,0,0,0,0,0,26,26,12,,,,,,,,,,,,,,,,,,,,,,,,,,,,,,,,,,,,,,,,,,,,,,,,,,,,,,,,,,,,True,True,False,0.46,-0.54,-14.019999999999992,21.57999999999999,3.7,-17.879999999999992,-7.089999999999996,certain,certain,-7.089999999999996,81.52166666666668,494.40318510169163,None,494.40318510169163,None,494.40318510169163,None,494.40318510169163,None,494.40318510169163,None,494.40318510169163,None,494.40318510169163,None,3,494.40318510169163,None,495.9537177918246,None,495.9537177918246,None,495.9537177918246,None,495.9537177918246,None,495.9537177918246,None,495.9537177918246,None,495.9537177918246,None,499.93861719744746,None,499.93861719744746,None,499.93861719744746,None,499.93861719744746,None,499.93861719744746,None,499.93861719744746,None,499.93861719744746,None,509.4422094762558,None,1.5175022198818624,500.93894229922444,None,501.93931123858783,None,0.45,7.502781444229186,504.9404410952702,None,None,504.9404410952702,None,,,,,,,,,,,,,,,,,,,24229,2019_Dec_31_1132,Mmi_3levels,3.1.5,59.961377444898496,
,,,2,0,10.3,,,,,,,,,0,1,1,1,0,0,0,6,,,,,,,,,,,,,,,,,,,,,,,,,,,,,,,,,,,,,,,,,,,,,,,,517.8620525250444,None,0.48,7.501693505211733,520.8799059252487,None,None,,520.8799059252487,None,525.3648880462861,None,False,True,False,0.48,0.48,0.48,-7.199999999999999,10.3,3.1000000000000014,1.5500000000000007,gamble,lose,3.1000000000000014,84.62166666666667,528.3993382770568,None,528.3993382770568,None,528.3993382770568,None,528.3993382770568,None,528.3993382770568,None,528.3993382770568,None,528.3993382770568,None,1,528.3993382770568,None,529.8666052301414,None,529.8666052301414,None,529.8666052301414,None,529.8666052301414,None,529.8666052301414,None,529.8666052301414,None,529.8666052301414,None,533.8513993616216,None,533.8513993616216,None,533.8513993616216,None,533.8513993616216,None,533.8513993616216,None,533.8513993616216,None,533.8513993616216,None,534.8517811002675,None,1.4341878455597907,,,,,,,,,,,,511.442915356718,None,4,6.402747686137445,511.442915356718,None,,,,,,,,,,,,,24229,2019_Dec_31_1132,Mmi_3levels,3.1.5,59.961377444898496,
,,,2,0,5.9,,,,,,,,,0,1,1,1,0,1,1,23,,,,,,,,,,,,,,,,,,,,,,,,,,,,,,,,,,,,,,,,,,,,,,,,,,,,,,,,,,,,False,True,False,0.48,0.48,0.96,-7.68,5.9,-1.7799999999999994,-0.8899999999999997,gamble,lose,-1.7799999999999994,82.84166666666667,536.8692095642909,None,536.8692095642909,None,536.8692095642909,None,536.8692095642909,None,536.8692095642909,None,536.8692095642909,None,536.8692095642909,None,1,536.8692095642909,None,538.4365246746456,None,538.4365246746456,None,538.4365246746456,None,538.4365246746456,None,538.4365246746456,None,538.4365246746456,None,538.4365246746456,None,542.4213146463735,None,542.4213146463735,None,542.4213146463735,None,542.4213146463735,None,542.4213146463735,None,542.4213146463735,None,542.4213146463735,None,551.9249110850506,None,1.5341608069138601,543.4216909452807,None,544.4221261210041,None,0.46,7.502674250165001,547.4231907012872,None,None,547.4231907012872,None,,,,,,,,,,,,,,,,,,,24229,2019_Dec_31_1132,Mmi_3levels,3.1.5,59.961377444898496,
,,,2,0,7.5,,,,,,,,,0,1,1,1,0,2,2,16,,,,,,,,,,,,,,,,,,,,,,,,,,,,,,,,,,,,,,,,,,,,,,,,,,,,,,,,,,,,False,True,True,0.46,0.46,1.42,-7.86,7.5,-0.3600000000000003,-0.18000000000000016,gamble,lose,-0.3600000000000003,82.48166666666667,553.9423430687748,None,553.9423430687748,None,553.9423430687748,None,553.9423430687748,None,553.9423430687748,None,553.9423430687748,None,553.9423430687748,None,1,553.9423430687748,None,555.242830561474,None,555.242830561474,None,555.242830561474,None,555.242830561474,None,555.242830561474,None,555.242830561474,None,555.242830561474,None,559.2276752502657,None,559.2276752502657,None,559.2276752502657,None,559.2276752502657,None,559.2276752502657,None,559.2276752502657,None,559.2276752502657,None,560.2280729879858,None,1.2674615021096542,,,,,,,,,,,,,,,,,,,,,,,,,,,,,,24229,2019_Dec_31_1132,Mmi_3levels,3.1.5,59.961377444898496,
,,,2,0,11.1,,,,,,,,,0,1,1,1,0,3,3,4,,,,,,,,,,,,,,,,,,,,,,,,,,,,,,,,,,,,,,,,,,,,,,,,,,,,,,,,,,,,False,False,False,0.46,0.46,1.88,1.7666666666666668,2.775,1.008333333333333,1.8916666666666666,gamble,win,2.775,85.25666666666667,562.2454816130921,None,562.2454816130921,None,562.2454816130921,None,562.2454816130921,None,562.2454816130921,None,562.2454816130921,None,562.2454816130921,None,1,562.2454816130921,None,563.6960362220416,None,563.6960362220416,None,563.6960362220416,None,563.6960362220416,None,563.6960362220416,None,563.6960362220416,None,563.6960362220416,None,567.6809749854729,None,567.6809749854729,None,567.6809749854729,None,567.6809749854729,None,567.6809749854729,None,567.6809749854729,None,567.6809749854729,None,577.1845170271117,None,1.4174659018171951,568.681337205111,None,569.6816850256873,None,0.43,7.502756485599093,572.6827563256957,None,None,572.6827563256957,None,,,,,,,,,,,,,,,,,,,24229,2019_Dec_31_1132,Mmi_3levels,3.1.5,59.961377444898496,
,,,2,0,0.7,,,,,,,,,0,1,1,1,0,4,4,1,,,,,,,,,,,,,,,,,,,,,,,,,,,,,,,,,,,,,,,,,,,,,,,,,,,,,,,,,,,,False,True,True,0.43,0.43,2.31,-8.33,0.7,-7.63,-3.465,certain,certain,-3.465,81.79166666666667,579.2019080531318,None,579.2019080531318,None,579.2019080531318,None,579.2019080531318,None,579.2019080531318,None,579.2019080531318,None,579.2019080531318,None,3,579.2019080531318,None,580.5857892758213,None,580.5857892758213,None,580.5857892758213,None,580.5857892758213,None,580.5857892758213,None,580.5857892758213,None,580.5857892758213,None,584.5872826322448,None,584.5872826322448,None,584.5872826322448,None,584.5872826322448,None,584.5872826322448,None,584.5872826322448,None,584.5872826322448,None,585.5709897845518,None,1.3507688370300457,,,,,,,,,,,,,,,,,,,,,,,,,,,,,,24229,2019_Dec_31_1132,Mmi_3levels,3.1.5,59.961377444898496,
,,,2,0,3.1,,,,,,,,,0,1,1,1,0,5,5,0,,,,,,,,,,,,,,,,,,,,,,,,,,,,,,,,,,,,,,,,,,,,,,,,,,,,,,,,,,,,False,True,False,0.43,0.43,2.74,-8.76,3.1,-5.66,-1.28,certain,certain,-1.28,80.51166666666667,587.5884169687051,None,587.5884169687051,None,587.5884169687051,None,587.5884169687051,None,587.5884169687051,None,587.5884169687051,None,587.5884169687051,None,3,587.5884169687051,None,589.13905397302,None,589.13905397302,None,589.13905397302,None,589.13905397302,None,589.13905397302,None,589.13905397302,None,589.13905397302,None,593.1238977017347,None,593.1238977017347,None,593.1238977017347,None,593.1238977017347,None,593.1238977017347,None,593.1238977017347,None,593.1238977017347,None,594.1242221635766,None,1.5175252585904673,,,,,,,,,,,,,,,,,,,,,,,,,,,,,,24229,2019_Dec_31_1132,Mmi_3levels,3.1.5,59.961377444898496,
,,,2,0,11.5,,,,,,,,,0,1,1,1,0,6,6,19,,,,,,,,,,,,,,,,,,,,,,,,,,,,,,,,,,,,,,,,,,,,,,,,,,,,,,,,,,,,False,False,True,0.43,0.43,3.1700000000000004,1.7691666666666666,2.875,1.1058333333333334,1.9904166666666667,gamble,win,2.875,83.38666666666667,596.1417101442348,None,596.1417101442348,None,596.1417101442348,None,596.1417101442348,None,596.1417101442348,None,596.1417101442348,None,596.1417101442348,None,1,596.1417101442348,None,596.975296743447,None,596.975296743447,None,596.975296743447,None,596.975296743447,None,596.975296743447,None,596.975296743447,None,596.975296743447,None,600.9601935892133,None,600.9601935892133,None,600.9601935892133,None,600.9601935892133,None,600.9601935892133,None,600.9601935892133,None,600.9601935892133,None,610.4637461901875,None,0.8005183709319681,601.960576927755,None,602.9609036294278,None,0.39,7.5027433664072305,605.9620808435138,None,None,605.9620808435138,None,,,,,,,,,,,,,,,,,,,24229,2019_Dec_31_1132,Mmi_3levels,3.1.5,59.961377444898496,
,,,2,0,12.7,,,,,,,,,0,1,1,1,0,7,7,9,,,,,,,,,,,,,,,,,,,,,,,,,,,,,,,,,,,,,,,,,,,,,,,,,,,,,,,,,,,,False,True,False,0.39,0.39,3.5600000000000005,-9.02,12.7,3.6799999999999997,1.8399999999999999,gamble,lose,3.6799999999999997,87.06666666666666,612.4812248913804,None,612.4812248913804,None,612.4812248913804,None,612.4812248913804,None,612.4812248913804,None,612.4812248913804,None,612.4812248913804,None,1,612.4812248913804,None,613.3481731422944,None,613.3481731422944,None,613.3481731422944,None,613.3481731422944,None,613.3481731422944,None,613.3481731422944,None,613.3481731422944,None,617.3496879375307,None,617.3496879375307,None,617.3496879375307,None,617.3496879375307,None,617.3496879375307,None,617.3496879375307,None,617.3496879375307,None,618.3333870903589,None,0.8338752229465172,,,,,,,,,,,,,,,,,,,,,,,,,,,,,,24229,2019_Dec_31_1132,Mmi_3levels,3.1.5,59.961377444898496,
,,,2,0,2.3,,,,,,,,,0,1,1,1,0,8,8,24,,,,,,,,,,,,,,,,,,,,,,,,,,,,,,,,,,,,,,,,,,,,,,,,,,,,,,,,,,,,False,True,True,0.39,0.39,3.9500000000000006,-9.41,2.3,-7.11,-2.4050000000000002,certain,certain,-2.4050000000000002,84.66166666666666,620.3508225939004,None,620.3508225939004,None,620.3508225939004,None,620.3508225939004,None,620.3508225939004,None,620.3508225939004,None,620.3508225939004,None,3,620.3508225939004,None,622.284889966133,None,622.284889966133,None,622.284889966133,None,622.284889966133,None,622.284889966133,None,622.284889966133,None,622.284889966133,None,626.2863970817998,None,626.2863970817998,None,626.2863970817998,None,626.2863970817998,None,626.2863970817998,None,626.2863970817998,None,626.2863970817998,None,635.7734190885676,None,1.9010135432472453,627.270105834119,None,628.2705464494647,None,0.4,7.502798723173328,631.2716055901255,None,None,631.2716055901255,None,,,,,,,,,,,,,,,,,,,24229,2019_Dec_31_1132,Mmi_3levels,3.1.5,59.961377444898496,
,,,2,0,11.3,,,,,,,,,0,1,1,1,0,9,9,2,,,,,,,,,,,,,,,,,,,,,,,,,,,,,,,,,,,,,,,,,,,,,,,,,,,,,,,,,,,,False,True,False,0.4,0.4,4.3500000000000005,-9.950000000000001,11.3,1.3499999999999996,0.6749999999999998,gamble,lose,1.3499999999999996,86.01166666666666,637.7907528379001,None,637.7907528379001,None,637.7907528379001,None,637.7907528379001,None,637.7907528379001,None,637.7907528379001,None,637.7907528379001,None,1,637.7907528379001,None,638.7911934532458,None,638.7911934532458,None,638.7911934532458,None,638.7911934532458,None,638.7911934532458,None,638.7911934532458,None,638.7911934532458,None,642.7759738254827,None,642.7759738254827,None,642.7759738254827,None,642.7759738254827,None,642.7759738254827,None,642.7759738254827,None,642.7759738254827,None,643.7763520443114,None,0.967280232347548,,,,,,,,,,,,,,,,,,,,,,,,,,,,,,24229,2019_Dec_31_1132,Mmi_3levels,3.1.5,59.961377444898496,
,,,2,0,4.1,,,,,,,,,0,1,1,1,0,10,10,10,,,,,,,,,,,,,,,,,,,,,,,,,,,,,,,,,,,,,,,,,,,,,,,,,,,,,,,,,,,,False,True,False,0.4,0.4,4.750000000000001,-10.350000000000001,4.1,-6.250000000000002,-1.075000000000001,certain,certain,-1.075000000000001,84.93666666666665,645.7938960219035,None,645.7938960219035,None,645.7938960219035,None,645.7938960219035,None,645.7938960219035,None,645.7938960219035,None,645.7938960219035,None,3,645.7938960219035,None,647.7612540097907,None,647.7612540097907,None,647.7612540097907,None,647.7612540097907,None,647.7612540097907,None,647.7612540097907,None,647.7612540097907,None,651.746040141792,None,651.746040141792,None,651.746040141792,None,651.746040141792,None,651.746040141792,None,651.746040141792,None,651.746040141792,None,652.7464420392644,None,1.9342555217444897,,,,,,,,,,,,,,,,,,,,,,,,,,,,,,24229,2019_Dec_31_1132,Mmi_3levels,3.1.5,59.961377444898496,
,,,2,0,8.1,,,,,,,,,0,1,1,1,0,11,11,14,,,,,,,,,,,,,,,,,,,,,,,,,,,,,,,,,,,,,,,,,,,,,,,,,,,,,,,,,,,,False,True,True,0.4,0.4,5.150000000000001,-10.750000000000002,8.1,-2.650000000000002,-1.325000000000001,gamble,lose,-2.650000000000002,82.28666666666665,654.7639012215659,None,654.7639012215659,None,654.7639012215659,None,654.7639012215659,None,654.7639012215659,None,654.7639012215659,None,654.7639012215659,None,1,654.7639012215659,None,656.2978038029978,None,656.2978038029978,None,656.2978038029978,None,656.2978038029978,None,656.2978038029978,None,656.2978038029978,None,656.2978038029978,None,660.2826561712427,None,660.2826561712427,None,660.2826561712427,None,660.2826561712427,None,660.2826561712427,None,660.2826561712427,None,660.2826561712427,None,669.7862065325025,None,1.500798195367679,661.2830382299144,None,662.2833665314829,None,0.4,7.502723527490161,665.2844861488556,None,None,665.2844861488556,None,,,,,,,,,,,,,,,,,,,24229,2019_Dec_31_1132,Mmi_3levels,3.1.5,59.961377444898496,
,,,2,0,0.5,,,,,,,,,0,1,1,1,0,12,12,5,,,,,,,,,,,,,,,,,,,,,,,,,,,,,,,,,,,,,,,,,,,,,,,,,,,,,,,,,,,,False,False,False,0.4,0.4,5.550000000000002,1.8625000000000003,0.125,-1.7375000000000003,-0.8062500000000001,certain,certain,-0.8062500000000001,81.48041666666664,671.8036609150004,None,671.8036609150004,None,671.8036609150004,None,671.8036609150004,None,671.8036609150004,None,671.8036609150004,None,671.8036609150004,None,3,671.8036609150004,None,674.4713723232271,None,674.4713723232271,None,674.4713723232271,None,674.4713723232271,None,674.4713723232271,None,674.4713723232271,None,674.4713723232271,None,678.4728535201866,None,678.4728535201866,None,678.4728535201866,None,678.4728535201866,None,678.4728535201866,None,678.4728535201866,None,678.4728535201866,None,679.4565849913051,None,2.634612781694159,,,,,,,,,,,,,,,,,,,,,,,,,,,,,,24229,2019_Dec_31_1132,Mmi_3levels,3.1.5,59.961377444898496,
,,,2,0,8.7,,,,,,,,,0,1,1,1,0,13,13,15,,,,,,,,,,,,,,,,,,,,,,,,,,,,,,,,,,,,,,,,,,,,,,,,,,,,,,,,,,,,False,True,False,0.4,0.4,5.950000000000002,-11.550000000000002,8.7,-2.850000000000003,-1.4250000000000016,gamble,lose,-2.850000000000003,78.63041666666663,681.47399297636,None,681.47399297636,None,681.47399297636,None,681.47399297636,None,681.47399297636,None,681.47399297636,None,681.47399297636,None,1,681.47399297636,None,682.7244371915003,None,682.7244371915003,None,682.7244371915003,None,682.7244371915003,None,682.7244371915003,None,682.7244371915003,None,682.7244371915003,None,686.725967665785,None,686.725967665785,None,686.725967665785,None,686.725967665785,None,686.725967665785,None,686.725967665785,None,686.725967665785,None,696.212872239179,None,1.2173427088418975,687.7096594590694,None,688.7100367179373,None,0.41,7.502711368142627,691.7112520099618,None,None,691.7112520099618,None,,,,,,,,,,,,,,,,,,,24229,2019_Dec_31_1132,Mmi_3levels,3.1.5,59.961377444898496,
,,,2,0,1.1,,,,,,,,,0,1,1,1,0,14,14,3,,,,,,,,,,,,,,,,,,,,,,,,,,,,,,,,,,,,,,,,,,,,,,,,,,,,,,,,,,,,False,False,False,0.41,0.41,6.360000000000002,1.9649999999999999,0.275,-1.69,-0.7075,certain,certain,-0.7075,77.92291666666664,698.2303061428247,None,698.2303061428247,None,698.2303061428247,None,698.2303061428247,None,698.2303061428247,None,698.2303061428247,None,698.2303061428247,None,3,698.2303061428247,None,699.9642944795778,None,699.9642944795778,None,699.9642944795778,None,699.9642944795778,None,699.9642944795778,None,699.9642944795778,None,699.9642944795778,None,703.9491682866355,None,703.9491682866355,None,703.9491682866355,None,703.9491682866355,None,703.9491682866355,None,703.9491682866355,None,703.9491682866355,None,704.9496226611082,None,1.7008967497386038,,,,,,,,,,,,,,,,,,,,,,,,,,,,,,24229,2019_Dec_31_1132,Mmi_3levels,3.1.5,59.961377444898496,
,,,2,0,4.5,,,,,,,,,0,1,1,1,0,15,15,26,,,,,,,,,,,,,,,,,,,,,,,,,,,,,,,,,,,,,,,,,,,,,,,,,,,,,,,,,,,,False,True,False,0.41,0.41,6.770000000000002,-12.510000000000002,4.5,-8.010000000000002,-1.7550000000000008,certain,certain,-1.7550000000000008,76.16791666666664,706.9669567304663,None,706.9669567304663,None,706.9669567304663,None,706.9669567304663,None,706.9669567304663,None,706.9669567304663,None,706.9669567304663,None,3,706.9669567304663,None,708.3841484077275,None,708.3841484077275,None,708.3841484077275,None,708.3841484077275,None,708.3841484077275,None,708.3841484077275,None,708.3841484077275,None,712.3857147200033,None,712.3857147200033,None,712.3857147200033,None,712.3857147200033,None,712.3857147200033,None,712.3857147200033,None,712.3857147200033,None,721.8725655364105,None,1.3841071299975738,713.3693959538359,None,714.3697482540738,None,0.5,7.5027081683510914,717.3708707512124,None,None,717.3708707512124,None,,,,,,,,,,,,,,,,,,,24229,2019_Dec_31_1132,Mmi_3levels,3.1.5,59.961377444898496,
,,,2,0,10.9,,,,,,,,,0,1,1,1,0,16,16,12,,,,,,,,,,,,,,,,,,,,,,,,,,,,,,,,,,,,,,,,,,,,,,,,,,,,,,,,,,,,False,True,True,0.5,0.5,7.270000000000002,-14.270000000000003,10.9,-3.3700000000000028,-1.6850000000000014,gamble,lose,-3.3700000000000028,72.79791666666664,723.8900765557773,None,723.8900765557773,None,723.8900765557773,None,723.8900765557773,None,723.8900765557773,None,723.8900765557773,None,723.8900765557773,None,1,723.8900765557773,None,725.1571646387456,None,725.1571646387456,None,725.1571646387456,None,725.1571646387456,None,725.1571646387456,None,725.1571646387456,None,725.1571646387456,None,729.1587309511378,None,729.1587309511378,None,729.1587309511378,None,729.1587309511378,None,729.1587309511378,None,729.1587309511378,None,729.1587309511378,None,730.1423907461576,None,1.2339865767862648,,,,,,,,,,,,,,,,,,,,,,,,,,,,,,24229,2019_Dec_31_1132,Mmi_3levels,3.1.5,59.961377444898496,
,,,2,0,12.5,,,,,,,,,0,1,1,1,0,17,17,25,,,,,,,,,,,,,,,,,,,,,,,,,,,,,,,,,,,,,,,,,,,,,,,,,,,,,,,,,,,,False,False,True,0.5,0.5,7.770000000000002,2.3975,3.125,0.7275,1.92625,gamble,win,3.125,75.92291666666664,732.159872007207,None,732.159872007207,None,732.159872007207,None,732.159872007207,None,732.159872007207,None,732.159872007207,None,732.159872007207,None,1,732.159872007207,None,733.3102952635381,None,733.3102952635381,None,733.3102952635381,None,733.3102952635381,None,733.3102952635381,None,733.3102952635381,None,733.3102952635381,None,737.2951479516923,None,737.2951479516923,None,737.2951479516923,None,737.2951479516923,None,737.2951479516923,None,737.2951479516923,None,737.2951479516923,None,738.29547273356,None,1.1173105505295098,,,,,,,,,,,,,,,,,,,,,,,,,,,,,,24229,2019_Dec_31_1132,Mmi_3levels,3.1.5,59.961377444898496,
,,,2,0,7.1,,,,,,,,,0,1,1,1,0,18,18,21,,,,,,,,,,,,,,,,,,,,,,,,,,,,,,,,,,,,,,,,,,,,,,,,,,,,,,,,,,,,False,True,False,0.5,0.5,8.270000000000003,-15.270000000000003,7.1,-8.170000000000003,-0.5350000000000019,certain,certain,-0.5350000000000019,75.38791666666664,740.312961674179,None,740.312961674179,None,740.312961674179,None,740.312961674179,None,740.312961674179,None,740.312961674179,None,740.312961674179,None,3,740.312961674179,None,742.1969547305489,None,742.1969547305489,None,742.1969547305489,None,742.1969547305489,None,742.1969547305489,None,742.1969547305489,None,742.1969547305489,None,746.1817917396547,None,746.1817917396547,None,746.1817917396547,None,746.1817917396547,None,746.1817917396547,None,746.1817917396547,None,746.1817917396547,None,755.6853878583061,None,1.8509257881669328,747.1821683585877,None,748.1825622565811,None,0.48,7.502679050085135,751.1836725943722,None,None,751.1836725943722,None,,,,,,,,,,,,,,,,,,,24229,2019_Dec_31_1132,Mmi_3levels,3.1.5,59.961377444898496,
,,,2,0,13.3,,,,,,,,,0,1,1,1,0,19,19,18,,,,,,,,,,,,,,,,,,,,,,,,,,,,,,,,,,,,,,,,,,,,,,,,,,,,,,,,,,,,False,True,True,0.48,0.48,8.750000000000004,-15.470000000000002,13.3,-2.1700000000000017,-1.0850000000000009,gamble,lose,-2.1700000000000017,73.21791666666664,757.7028719992377,None,757.7028719992377,None,757.7028719992377,None,757.7028719992377,None,757.7028719992377,None,757.7028719992377,None,757.7028719992377,None,1,757.7028719992377,None,759.0199899205472,None,759.0199899205472,None,759.0199899205472,None,759.0199899205472,None,759.0199899205472,None,759.0199899205472,None,759.0199899205472,None,763.0048355691833,None,763.0048355691833,None,763.0048355691833,None,763.0048355691833,None,763.0048355691833,None,763.0048355691833,None,763.0048355691833,None,764.0051990689244,None,1.2840628125704825,,,,,,,,,,,,,,,,,,,,,,,,,,,,,,24229,2019_Dec_31_1132,Mmi_3levels,3.1.5,59.961377444898496,
,,,2,0,8.9,,,,,,,,,0,1,1,1,0,20,20,13,,,,,,,,,,,,,,,,,,,,,,,,,,,,,,,,,,,,,,,,,,,,,,,,,,,,,,,,,,,,False,False,False,0.48,0.48,9.230000000000004,2.4491666666666667,2.225,-0.22416666666666663,1.0004166666666667,gamble,win,2.225,75.44291666666663,766.0226380922832,None,766.0226380922832,None,766.0226380922832,None,766.0226380922832,None,766.0226380922832,None,766.0226380922832,None,766.0226380922832,None,1,766.0226380922832,None,768.1401748702629,None,768.1401748702629,None,768.1401748702629,None,768.1401748702629,None,768.1401748702629,None,768.1401748702629,None,768.1401748702629,None,772.1249494828517,None,772.1249494828517,None,772.1249494828517,None,772.1249494828517,None,772.1249494828517,None,772.1249494828517,None,772.1249494828517,None,781.6285430416465,None,2.084417032659985,773.125355860102,None,774.1257062404184,None,0.48,7.502720007672906,777.1268312974134,None,None,777.1268312974134,None,,,,,,,,,,,,,,,,,,,24229,2019_Dec_31_1132,Mmi_3levels,3.1.5,59.961377444898496,
,,,2,0,3.3,,,,,,,,,0,1,1,1,0,21,21,22,,,,,,,,,,,,,,,,,,,,,,,,,,,,,,,,,,,,,,,,,,,,,,,,,,,,,,,,,,,,False,False,False,0.48,0.48,9.710000000000004,2.4891666666666667,0.825,-1.6641666666666668,-0.4195833333333334,gamble,win,0.825,76.26791666666664,783.6459772653179,None,783.6459772653179,None,783.6459772653179,None,783.6459772653179,None,783.6459772653179,None,783.6459772653179,None,783.6459772653179,None,1,783.6459772653179,None,785.0965277145151,None,785.0965277145151,None,785.0965277145151,None,785.0965277145151,None,785.0965277145151,None,785.0965277145151,None,785.0965277145151,None,789.1480611485895,None,789.1480611485895,None,789.1480611485895,None,789.1480611485895,None,789.1480611485895,None,789.1480611485895,None,789.1480611485895,None,790.0817471022019,None,1.4175673362333328,,,,,,,,,,,,,,,,,,,,,,,,,,,,,,24229,2019_Dec_31_1132,Mmi_3levels,3.1.5,59.961377444898496,
,,,2,0,-1.3,,,,,,,,,0,1,1,1,0,22,22,17,,,,,,,,,,,,,,,,,,,,,,,,,,,,,,,,,,,,,,,,,,,,,,,,,,,,,,,,,,,,False,True,False,0.48,0.48,10.190000000000005,-16.910000000000004,-1.3,-18.210000000000004,-9.755000000000003,certain,certain,-9.755000000000003,66.51291666666663,792.0991730063688,None,792.0991730063688,None,792.0991730063688,None,792.0991730063688,None,792.0991730063688,None,792.0991730063688,None,792.0991730063688,None,3,792.0991730063688,None,794.1333227739669,None,794.1333227739669,None,794.1333227739669,None,794.1333227739669,None,794.1333227739669,None,794.1333227739669,None,794.1333227739669,None,798.1347927716561,None,798.1347927716561,None,798.1347927716561,None,798.1347927716561,None,798.1347927716561,None,798.1347927716561,None,798.1347927716561,None,807.6217210236937,None,2.00101338326931,799.1184964042623,None,800.1188938219566,None,0.5,7.502685449668206,803.1200019199168,None,None,803.1200019199168,None,,,,,,,,,,,,,,,,,,,24229,2019_Dec_31_1132,Mmi_3levels,3.1.5,59.961377444898496,
,,,2,0,6.5,,,,,,,,,0,1,1,1,0,23,23,8,,,,,,,,,,,,,,,,,,,,,,,,,,,,,,,,,,,,,,,,,,,,,,,,,,,,,,,,,,,,False,True,False,0.5,0.5,10.690000000000005,-17.690000000000005,6.5,-11.190000000000005,-2.3450000000000024,certain,certain,-2.3450000000000024,64.16791666666663,809.6391494876007,None,809.6391494876007,None,809.6391494876007,None,809.6391494876007,None,809.6391494876007,None,809.6391494876007,None,809.6391494876007,None,3,809.6391494876007,None,811.7733138144249,None,811.7733138144249,None,811.7733138144249,None,811.7733138144249,None,811.7733138144249,None,811.7733138144249,None,811.7733138144249,None,815.7748529282399,None,815.7748529282399,None,815.7748529282399,None,815.7748529282399,None,815.7748529282399,None,815.7748529282399,None,815.7748529282399,None,816.7585671202978,None,2.101070500095375,,,,,,,,,,,,,,,,,,,,,,,,,,,,,,24229,2019_Dec_31_1132,Mmi_3levels,3.1.5,59.961377444898496,
,,,2,0,11.9,,,,,,,,,0,1,1,1,0,24,24,7,,,,,,,,,,,,,,,,,,,,,,,,,,,,,,,,,,,,,,,,,,,,,,,,,,,,,,,,,,,,False,True,True,0.5,0.5,11.190000000000005,-18.190000000000005,11.9,-6.2900000000000045,-3.1450000000000022,gamble,lose,-6.2900000000000045,57.87791666666662,818.775939267478,None,818.775939267478,None,818.775939267478,None,818.775939267478,None,818.775939267478,None,818.775939267478,None,818.775939267478,None,1,818.775939267478,None,819.9764505987987,None,819.9764505987987,None,819.9764505987987,None,819.9764505987987,None,819.9764505987987,None,819.9764505987987,None,819.9764505987987,None,823.9612828082172,None,823.9612828082172,None,823.9612828082172,None,823.9612828082172,None,823.9612828082172,None,823.9612828082172,None,823.9612828082172,None,824.9616296687163,None,1.167401185608469,,,,,,,,,,,,,,,,,,,,,,,,,,,,,,24229,2019_Dec_31_1132,Mmi_3levels,3.1.5,59.961377444898496,
,,,2,0,3.5,,,,,,,,,0,1,1,1,0,25,25,11,,,,,,,,,,,,,,,,,,,,,,,,,,,,,,,,,,,,,,,,,,,,,,,,,,,,,,,,,,,,False,True,False,0.5,0.5,11.690000000000005,-18.690000000000005,3.5,-15.190000000000005,-5.845000000000002,certain,certain,-5.845000000000002,52.03291666666662,826.979104210157,None,826.979104210157,None,826.979104210157,None,826.979104210157,None,826.979104210157,None,826.979104210157,None,826.979104210157,None,3,826.979104210157,None,829.4966813058127,None,829.4966813058127,None,829.4966813058127,None,829.4966813058127,None,829.4966813058127,None,829.4966813058127,None,829.4966813058127,None,833.4982207396533,None,833.4982207396533,None,833.4982207396533,None,833.4982207396533,None,833.4982207396533,None,833.4982207396533,None,833.4982207396533,None,842.9851051541045,None,2.484475909266621,834.4818872542819,None,835.4822677130578,None,0.46,7.5027356868376955,838.4833879702492,None,None,838.4833879702492,None,,,,,,,,,,,,,,,,,,,24229,2019_Dec_31_1132,Mmi_3levels,3.1.5,59.961377444898496,
,,,2,0,4.3,,,,,,,,,0,1,1,1,0,26,26,20,,,,,,,,,,,,,,,,,,,,,,,,,,,,,,,,,,,,,,,,,,,,,,,,,,,,,,,,,,,,False,True,False,0.46,0.46,12.150000000000006,-18.590000000000007,4.3,-14.290000000000006,-4.995000000000003,certain,certain,-4.995000000000003,47.03791666666662,845.0025377778802,None,845.0025377778802,None,845.0025377778802,None,845.0025377778802,None,845.0025377778802,None,845.0025377778802,None,845.0025377778802,None,3,845.0025377778802,None,847.1700506372144,None,847.1700506372144,None,847.1700506372144,None,847.1700506372144,None,847.1700506372144,None,847.1700506372144,None,847.1700506372144,None,851.1716099098558,None,851.1716099098558,None,851.1716099098558,None,851.1716099098558,None,851.1716099098558,None,851.1716099098558,None,851.1716099098558,None,852.1552479461534,None,2.134410072932951,,,,,,,,,,,,,,,,,,,,,,,,,,,,,,24229,2019_Dec_31_1132,Mmi_3levels,3.1.5,59.961377444898496,
,,,3,1,7.9,,,,,,,,,0,2,2,2,0,0,0,0,,,,,,,,,,,,,,,,,,,,,,,,,,,,,,,,,,,,,,,,,,,,,,,,859.4746982168872,None,0.5,7.50196740985848,862.4924805811606,None,None,,862.4924805811606,None,866.9775154991075,None,True,False,False,0.5,-0.5,-0.5,-1.7916666666666667,7.9,6.108333333333333,3.0541666666666667,gamble,lose,6.108333333333333,53.14624999999995,869.9953327414114,None,869.9953327414114,None,869.9953327414114,None,869.9953327414114,None,869.9953327414114,None,869.9953327414114,None,869.9953327414114,None,1,869.9953327414114,None,871.0624291440472,None,871.0624291440472,None,871.0624291440472,None,871.0624291440472,None,871.0624291440472,None,871.0624291440472,None,871.0624291440472,None,875.0472965514055,None,875.0472965514055,None,875.0472965514055,None,875.0472965514055,None,875.0472965514055,None,875.0472965514055,None,875.0472965514055,None,884.5508942699526,None,1.0339814570033923,876.0476494916948,None,877.0479982721154,None,0.5,7.502777284476906,880.0491217292147,None,None,880.0491217292147,None,854.1560450214893,None,4,5.302222755504772,854.1560450214893,None,,,,,,,,,,,,,24229,2019_Dec_31_1132,Mmi_3levels,3.1.5,59.961377444898496,
,,,3,1,12.5,,,,,,,,,0,2,2,2,0,1,1,17,,,,,,,,,,,,,,,,,,,,,,,,,,,,,,,,,,,,,,,,,,,,,,,,,,,,,,,,,,,,True,True,True,0.5,-0.5,-1.0,8.0,12.5,4.5,2.25,gamble,win,12.5,65.64624999999995,886.5682715368457,None,886.5682715368457,None,886.5682715368457,None,886.5682715368457,None,886.5682715368457,None,886.5682715368457,None,886.5682715368457,None,1,886.5682715368457,None,887.6686828738311,None,887.6686828738311,None,887.6686828738311,None,887.6686828738311,None,887.6686828738311,None,887.6686828738311,None,887.6686828738311,None,891.6703151023248,None,891.6703151023248,None,891.6703151023248,None,891.6703151023248,None,891.6703151023248,None,891.6703151023248,None,891.6703151023248,None,892.6539358595619,None,1.067324869800359,,,,,,,,,,,,,,,,,,,,,,,,,,,,,,24229,2019_Dec_31_1132,Mmi_3levels,3.1.5,59.961377444898496,
,,,3,1,3.1,,,,,,,,,0,2,2,2,0,2,2,6,,,,,,,,,,,,,,,,,,,,,,,,,,,,,,,,,,,,,,,,,,,,,,,,,,,,,,,,,,,,True,False,True,0.5,-0.5,-1.5,-1.875,3.1,1.225,0.6125,gamble,lose,1.225,66.87124999999995,894.6713457646547,None,894.6713457646547,None,894.6713457646547,None,894.6713457646547,None,894.6713457646547,None,894.6713457646547,None,894.6713457646547,None,1,894.6713457646547,None,896.0552461862098,None,896.0552461862098,None,896.0552461862098,None,896.0552461862098,None,896.0552461862098,None,896.0552461862098,None,896.0552461862098,None,900.0400339181069,None,900.0400339181069,None,900.0400339181069,None,900.0400339181069,None,900.0400339181069,None,900.0400339181069,None,900.0400339181069,None,901.0404178965837,None,1.3507912356872112,,,,,,,,,,,,,,,,,,,,,,,,,,,,,,24229,2019_Dec_31_1132,Mmi_3levels,3.1.5,59.961377444898496,
,,,3,1,11.1,,,,,,,,,0,2,2,2,0,3,3,2,,,,,,,,,,,,,,,,,,,,,,,,,,,,,,,,,,,,,,,,,,,,,,,,,,,,,,,,,,,,True,True,True,0.5,-0.5,-2.0,9.0,11.1,2.0999999999999996,1.0499999999999998,gamble,win,11.1,77.97124999999994,903.0578962778673,None,903.0578962778673,None,903.0578962778673,None,903.0578962778673,None,903.0578962778673,None,903.0578962778673,None,903.0578962778673,None,1,903.0578962778673,None,904.1249254841823,None,904.1249254841823,None,904.1249254841823,None,904.1249254841823,None,904.1249254841823,None,904.1249254841823,None,904.1249254841823,None,908.1097628133139,None,908.1097628133139,None,908.1097628133139,None,908.1097628133139,None,908.1097628133139,None,908.1097628133139,None,908.1097628133139,None,917.6133822905831,None,1.0338038669433445,909.1101541513344,None,910.1105160511797,None,0.5,7.502790723810904,913.1116363083711,None,None,913.1116363083711,None,,,,,,,,,,,,,,,,,,,24229,2019_Dec_31_1132,Mmi_3levels,3.1.5,59.961377444898496,
,,,3,1,7.1,,,,,,,,,0,2,2,2,0,4,4,15,,,,,,,,,,,,,,,,,,,,,,,,,,,,,,,,,,,,,,,,,,,,,,,,,,,,,,,,,,,,True,False,False,0.5,-0.5,-2.5,-1.9583333333333333,7.1,5.141666666666667,2.5708333333333333,gamble,lose,5.141666666666667,83.1129166666666,919.6307592374505,None,919.6307592374505,None,919.6307592374505,None,919.6307592374505,None,919.6307592374505,None,919.6307592374505,None,919.6307592374505,None,1,919.6307592374505,None,920.8479144368321,None,920.8479144368321,None,920.8479144368321,None,920.8479144368321,None,920.8479144368321,None,920.8479144368321,None,920.8479144368321,None,924.8327514459379,None,924.8327514459379,None,924.8327514459379,None,924.8327514459379,None,924.8327514459379,None,924.8327514459379,None,924.8327514459379,None,925.833153663436,None,1.1840719319880009,,,,,,,,,,,,,,,,,,,,,,,,,,,,,,24229,2019_Dec_31_1132,Mmi_3levels,3.1.5,59.961377444898496,
,,,3,1,8.9,,,,,,,,,0,2,2,2,0,5,5,10,,,,,,,,,,,,,,,,,,,,,,,,,,,,,,,,,,,,,,,,,,,,,,,,,,,,,,,,,,,,True,True,False,0.5,-0.5,-3.0,10.0,8.9,-1.0999999999999996,-0.5499999999999998,gamble,win,8.9,92.01291666666661,927.850563248503,None,927.850563248503,None,927.850563248503,None,927.850563248503,None,927.850563248503,None,927.850563248503,None,927.850563248503,None,1,927.850563248503,None,929.2511632149108,None,929.2511632149108,None,929.2511632149108,None,929.2511632149108,None,929.2511632149108,None,929.2511632149108,None,929.2511632149108,None,933.2359455070691,None,933.2359455070691,None,933.2359455070691,None,933.2359455070691,None,933.2359455070691,None,933.2359455070691,None,933.2359455070691,None,942.7395521850558,None,1.3674933403963223,934.2363160463283,None,935.2366933051962,None,0.5,7.502770564868115,938.2378218820086,None,None,938.2378218820086,None,,,,,,,,,,,,,,,,,,,24229,2019_Dec_31_1132,Mmi_3levels,3.1.5,59.961377444898496,
,,,3,1,5.1,,,,,,,,,0,2,2,2,0,6,6,21,,,,,,,,,,,,,,,,,,,,,,,,,,,,,,,,,,,,,,,,,,,,,,,,,,,,,,,,,,,,True,True,False,0.5,-0.5,-3.5,10.5,5.1,-5.4,-0.15000000000000036,certain,certain,-0.15000000000000036,91.8629166666666,944.7569422512315,None,944.7569422512315,None,944.7569422512315,None,944.7569422512315,None,944.7569422512315,None,944.7569422512315,None,944.7569422512315,None,3,944.7569422512315,None,946.6910326621728,None,946.6910326621728,None,946.6910326621728,None,946.6910326621728,None,946.6910326621728,None,946.6910326621728,None,946.6910326621728,None,950.6925240986748,None,950.6925240986748,None,950.6925240986748,None,950.6925240986748,None,950.6925240986748,None,950.6925240986748,None,950.6925240986748,None,951.6763688434148,None,1.9010129031958058,,,,,,,,,,,,,,,,,,,,,,,,,,,,,,24229,2019_Dec_31_1132,Mmi_3levels,3.1.5,59.961377444898496,
,,,3,1,12.7,,,,,,,,,0,2,2,2,0,7,7,11,,,,,,,,,,,,,,,,,,,,,,,,,,,,,,,,,,,,,,,,,,,,,,,,,,,,,,,,,,,,True,True,False,0.5,-0.5,-4.0,11.0,12.7,1.6999999999999993,0.8499999999999996,gamble,win,12.7,104.56291666666661,953.6936872334918,None,953.6936872334918,None,953.6936872334918,None,953.6936872334918,None,953.6936872334918,None,953.6936872334918,None,953.6936872334918,None,1,953.6936872334918,None,954.5440639324952,None,954.5440639324952,None,954.5440639324952,None,954.5440639324952,None,954.5440639324952,None,954.5440639324952,None,954.5440639324952,None,958.5455624085153,None,958.5455624085153,None,958.5455624085153,None,958.5455624085153,None,958.5455624085153,None,958.5455624085153,None,958.5455624085153,None,968.0324980200967,None,0.8171052820980549,959.5291991648264,None,960.5296065020375,None,0.5,7.503034870023839,963.5307792363456,None,None,963.5307792363456,None,,,,,,,,,,,,,,,,,,,24229,2019_Dec_31_1132,Mmi_3levels,3.1.5,59.961377444898496,
,,,3,1,-0.3,,,,,,,,,0,2,2,2,0,8,8,9,,,,,,,,,,,,,,,,,,,,,,,,,,,,,,,,,,,,,,,,,,,,,,,,,,,,,,,,,,,,True,True,False,0.5,-0.5,-4.5,11.5,-0.3,-11.8,-6.050000000000001,certain,certain,-6.050000000000001,98.51291666666661,970.0498772069113,None,970.0498772069113,None,970.0498772069113,None,970.0498772069113,None,970.0498772069113,None,970.0498772069113,None,970.0498772069113,None,3,970.0498772069113,None,971.8005625285441,None,971.8005625285441,None,971.8005625285441,None,971.8005625285441,None,971.8005625285441,None,971.8005625285441,None,971.8005625285441,None,975.8020750838332,None,975.8020750838332,None,975.8020750838332,None,975.8020750838332,None,975.8020750838332,None,975.8020750838332,None,975.8020750838332,None,976.7857588775223,None,1.7175777356605977,,,,,,,,,,,,,,,,,,,,,,,,,,,,,,24229,2019_Dec_31_1132,Mmi_3levels,3.1.5,59.961377444898496,
,,,3,1,6.9,,,,,,,,,0,2,2,2,0,9,9,14,,,,,,,,,,,,,,,,,,,,,,,,,,,,,,,,,,,,,,,,,,,,,,,,,,,,,,,,,,,,True,True,True,0.5,-0.5,-5.0,12.0,6.9,-5.1,0.9000000000000004,gamble,win,6.9,105.41291666666662,978.8031844616635,None,978.8031844616635,None,978.8031844616635,None,978.8031844616635,None,978.8031844616635,None,978.8031844616635,None,978.8031844616635,None,1,978.8031844616635,None,980.6872530338587,None,980.6872530338587,None,980.6872530338587,None,980.6872530338587,None,980.6872530338587,None,980.6872530338587,None,980.6872530338587,None,984.672081083525,None,984.672081083525,None,984.672081083525,None,984.672081083525,None,984.672081083525,None,984.672081083525,None,984.672081083525,None,985.6725069796667,None,1.8509638659888878,,,,,,,,,,,,,,,,,,,,,,,,,,,,,,24229,2019_Dec_31_1132,Mmi_3levels,3.1.5,59.961377444898496,
,,,3,1,7.3,,,,,,,,,0,2,2,2,0,10,10,8,,,,,,,,,,,,,,,,,,,,,,,,,,,,,,,,,,,,,,,,,,,,,,,,,,,,,,,,,,,,True,False,True,0.5,-0.5,-5.5,-2.2083333333333335,7.3,5.091666666666667,2.5458333333333334,gamble,lose,5.091666666666667,110.50458333333329,987.6898887262214,None,987.6898887262214,None,987.6898887262214,None,987.6898887262214,None,987.6898887262214,None,987.6898887262214,None,987.6898887262214,None,1,987.6898887262214,None,988.6569187325658,None,988.6569187325658,None,988.6569187325658,None,988.6569187325658,None,988.6569187325658,None,988.6569187325658,None,988.6569187325658,None,992.6417624612805,None,992.6417624612805,None,992.6417624612805,None,992.6417624612805,None,992.6417624612805,None,992.6417624612805,None,992.6417624612805,None,1002.1453588999575,None,0.9339950563153252,993.6421419600956,None,994.6425419376465,None,0.5,7.502637132303789,997.643644595868,None,None,997.643644595868,None,,,,,,,,,,,,,,,,,,,24229,2019_Dec_31_1132,Mmi_3levels,3.1.5,59.961377444898496,
,,,3,1,3.5,,,,,,,,,0,2,2,2,0,11,11,26,,,,,,,,,,,,,,,,,,,,,,,,,,,,,,,,,,,,,,,,,,,,,,,,,,,,,,,,,,,,True,True,True,0.5,-0.5,-6.0,13.0,3.5,-9.5,-3.0,certain,certain,-3.0,107.50458333333329,1004.1628449606942,None,1004.1628449606942,None,1004.1628449606942,None,1004.1628449606942,None,1004.1628449606942,None,1004.1628449606942,None,1004.1628449606942,None,3,1004.1628449606942,None,1006.4803602998145,None,1006.4803602998145,None,1006.4803602998145,None,1006.4803602998145,None,1006.4803602998145,None,1006.4803602998145,None,1006.4803602998145,None,1010.4651761901332,None,1010.4651761901332,None,1010.4651761901332,None,1010.4651761901332,None,1010.4651761901332,None,1010.4651761901332,None,1010.4651761901332,None,1011.465578727657,None,2.2842324029188603,,,,,,,,,,,,,,,,,,,,,,,,,,,,,,24229,2019_Dec_31_1132,Mmi_3levels,3.1.5,59.961377444898496,
,,,3,1,9.9,,,,,,,,,0,2,2,2,0,12,12,20,,,,,,,,,,,,,,,,,,,,,,,,,,,,,,,,,,,,,,,,,,,,,,,,,,,,,,,,,,,,True,False,True,0.5,-0.5,-6.5,-2.2916666666666665,9.9,7.608333333333334,3.804166666666667,gamble,lose,7.608333333333334,115.11291666666662,1013.4829870327376,None,1013.4829870327376,None,1013.4829870327376,None,1013.4829870327376,None,1013.4829870327376,None,1013.4829870327376,None,1013.4829870327376,None,1,1013.4829870327376,None,1014.5167121841805,None,1014.5167121841805,None,1014.5167121841805,None,1014.5167121841805,None,1014.5167121841805,None,1014.5167121841805,None,1014.5167121841805,None,1018.5015495131956,None,1018.5015495131956,None,1018.5015495131956,None,1018.5015495131956,None,1018.5015495131956,None,1018.5015495131956,None,1018.5015495131956,None,1028.005151391495,None,1.0006345245055854,1019.5019302918809,None,1020.5023062708788,None,0.5,7.5027408064343035,1023.5034281280823,None,None,1023.5034281280823,None,,,,,,,,,,,,,,,,,,,24229,2019_Dec_31_1132,Mmi_3levels,3.1.5,59.961377444898496,
,,,3,1,7.5,,,,,,,,,0,2,2,2,0,13,13,22,,,,,,,,,,,,,,,,,,,,,,,,,,,,,,,,,,,,,,,,,,,,,,,,,,,,,,,,,,,,True,True,True,0.5,-0.5,-7.0,14.0,7.5,-6.5,0.5,gamble,win,7.5,122.61291666666662,1030.0225820954656,None,1030.0225820954656,None,1030.0225820954656,None,1030.0225820954656,None,1030.0225820954656,None,1030.0225820954656,None,1030.0225820954656,None,1,1030.0225820954656,None,1031.1230215907563,None,1031.1230215907563,None,1031.1230215907563,None,1031.1230215907563,None,1031.1230215907563,None,1031.1230215907563,None,1031.1230215907563,None,1035.1244835889665,None,1035.1244835889665,None,1035.1244835889665,None,1035.1244835889665,None,1035.1244835889665,None,1035.1244835889665,None,1035.1244835889665,None,1036.108216339955,None,1.067351108416915,,,,,,,,,,,,,,,,,,,,,,,,,,,,,,24229,2019_Dec_31_1132,Mmi_3levels,3.1.5,59.961377444898496,
,,,3,1,3.3,,,,,,,,,0,2,2,2,0,14,14,16,,,,,,,,,,,,,,,,,,,,,,,,,,,,,,,,,,,,,,,,,,,,,,,,,,,,,,,,,,,,True,True,True,0.5,-0.5,-7.5,14.5,3.3,-11.2,-3.9499999999999997,certain,certain,-3.9499999999999997,118.66291666666662,1038.1256473637186,None,1038.1256473637186,None,1038.1256473637186,None,1038.1256473637186,None,1038.1256473637186,None,1038.1256473637186,None,1038.1256473637186,None,3,1038.1256473637186,None,1039.8930501491996,None,1039.8930501491996,None,1039.8930501491996,None,1039.8930501491996,None,1039.8930501491996,None,1039.8930501491996,None,1039.8930501491996,None,1043.8278195621679,None,1043.8278195621679,None,1043.8278195621679,None,1043.8278195621679,None,1043.8278195621679,None,1043.8278195621679,None,1043.8278195621679,None,1044.8282361788442,None,1.684322957880795,,,,,,,,,,,,,,,,,,,,,,,,,,,,,,24229,2019_Dec_31_1132,Mmi_3levels,3.1.5,59.961377444898496,
,,,3,1,9.1,,,,,,,,,0,2,2,2,0,15,15,13,,,,,,,,,,,,,,,,,,,,,,,,,,,,,,,,,,,,,,,,,,,,,,,,,,,,,,,,,,,,True,False,True,0.5,-0.5,-8.0,-2.4166666666666665,9.1,6.683333333333334,3.341666666666667,gamble,lose,6.683333333333334,125.34624999999996,1046.845607046038,None,1046.845607046038,None,1046.845607046038,None,1046.845607046038,None,1046.845607046038,None,1046.845607046038,None,1046.845607046038,None,1,1046.845607046038,None,1048.3629121569684,None,1048.3629121569684,None,1048.3629121569684,None,1048.3629121569684,None,1048.3629121569684,None,1048.3629121569684,None,1048.3629121569684,None,1052.3476915692445,None,1052.3476915692445,None,1052.3476915692445,None,1052.3476915692445,None,1052.3476915692445,None,1052.3476915692445,None,1052.3476915692445,None,1061.8512982473476,None,1.48423976264894,1053.3480829073815,None,1054.3484547265107,None,0.45,7.502694089198485,1057.3496021822793,None,None,1057.3496021822793,None,,,,,,,,,,,,,,,,,,,24229,2019_Dec_31_1132,Mmi_3levels,3.1.5,59.961377444898496,
,,,3,1,-1.1,,,,,,,,,0,2,2,2,0,16,16,4,,,,,,,,,,,,,,,,,,,,,,,,,,,,,,,,,,,,,,,,,,,,,,,,,,,,,,,,,,,,True,True,False,0.45,-0.55,-8.55,16.25,-1.1,-17.35,-9.225000000000001,certain,certain,-9.225000000000001,116.12124999999995,1063.8687225515023,None,1063.8687225515023,None,1063.8687225515023,None,1063.8687225515023,None,1063.8687225515023,None,1063.8687225515023,None,1063.8687225515023,None,3,1063.8687225515023,None,1065.6194417913212,None,1065.6194417913212,None,1065.6194417913212,None,1065.6194417913212,None,1065.6194417913212,None,1065.6194417913212,None,1065.6194417913212,None,1069.6209642660106,None,1069.6209642660106,None,1069.6209642660106,None,1069.6209642660106,None,1069.6209642660106,None,1069.6209642660106,None,1069.6209642660106,None,1070.604609021917,None,1.717626372934319,,,,,,,,,,,,,,,,,,,,,,,,,,,,,,24229,2019_Dec_31_1132,Mmi_3levels,3.1.5,59.961377444898496,
,,,3,1,5.9,,,,,,,,,0,2,2,2,0,17,17,5,,,,,,,,,,,,,,,,,,,,,,,,,,,,,,,,,,,,,,,,,,,,,,,,,,,,,,,,,,,,True,False,True,0.45,-0.55,-9.100000000000001,-2.6833333333333336,5.9,3.216666666666667,1.6083333333333334,gamble,lose,3.216666666666667,119.33791666666662,1072.6220723639708,None,1072.6220723639708,None,1072.6220723639708,None,1072.6220723639708,None,1072.6220723639708,None,1072.6220723639708,None,1072.6220723639708,None,1,1072.6220723639708,None,1073.9892210836988,None,1073.9892210836988,None,1073.9892210836988,None,1073.9892210836988,None,1073.9892210836988,None,1073.9892210836988,None,1073.9892210836988,None,1077.974066732335,None,1077.974066732335,None,1077.974066732335,None,1077.974066732335,None,1077.974066732335,None,1077.974066732335,None,1077.974066732335,None,1087.477723007556,None,1.3340596926864237,1078.9745044677984,None,1079.974895165884,None,0.48,7.502671690424904,1082.9759472670266,None,None,1082.9759472670266,None,,,,,,,,,,,,,,,,,,,24229,2019_Dec_31_1132,Mmi_3levels,3.1.5,59.961377444898496,
,,,3,1,1.5,,,,,,,,,0,2,2,2,0,18,18,19,,,,,,,,,,,,,,,,,,,,,,,,,,,,,,,,,,,,,,,,,,,,,,,,,,,,,,,,,,,,True,True,True,0.48,-0.52,-9.620000000000001,16.900000000000002,1.5,-15.400000000000002,-6.950000000000001,certain,certain,-6.950000000000001,112.38791666666661,1089.4951153135626,None,1089.4951153135626,None,1089.4951153135626,None,1089.4951153135626,None,1089.4951153135626,None,1089.4951153135626,None,1089.4951153135626,None,3,1089.4951153135626,None,1091.2291014103685,None,1091.2291014103685,None,1091.2291014103685,None,1091.2291014103685,None,1091.2291014103685,None,1091.2291014103685,None,1091.2291014103685,None,1095.230650123558,None,1095.230650123558,None,1095.230650123558,None,1095.230650123558,None,1095.230650123558,None,1095.230650123558,None,1095.230650123558,None,1096.2142993592424,None,1.7008612317731604,,,,,,,,,,,,,,,,,,,,,,,,,,,,,,24229,2019_Dec_31_1132,Mmi_3levels,3.1.5,59.961377444898496,
,,,3,1,5.5,,,,,,,,,0,2,2,2,0,19,19,25,,,,,,,,,,,,,,,,,,,,,,,,,,,,,,,,,,,,,,,,,,,,,,,,,,,,,,,,,,,,True,True,True,0.48,-0.52,-10.14,17.42,5.5,-11.920000000000002,-3.210000000000001,certain,certain,-3.210000000000001,109.17791666666662,1098.2317921397043,None,1098.2317921397043,None,1098.2317921397043,None,1098.2317921397043,None,1098.2317921397043,None,1098.2317921397043,None,1098.2317921397043,None,3,1098.2317921397043,None,1100.849427952082,None,1100.849427952082,None,1100.849427952082,None,1100.849427952082,None,1100.849427952082,None,1100.849427952082,None,1100.849427952082,None,1104.8509318678407,None,1104.8509318678407,None,1104.8509318678407,None,1104.8509318678407,None,1104.8509318678407,None,1104.8509318678407,None,1104.8509318678407,None,1114.337831001496,None,2.5845455054659396,1105.8346131016733,None,1106.834991960437,None,0.5,7.502745926147327,1109.8361093378626,None,None,1109.8361093378626,None,,,,,,,,,,,,,,,,,,,24229,2019_Dec_31_1132,Mmi_3levels,3.1.5,59.961377444898496,
,,,3,1,0.1,,,,,,,,,0,2,2,2,0,20,20,18,,,,,,,,,,,,,,,,,,,,,,,,,,,,,,,,,,,,,,,,,,,,,,,,,,,,,,,,,,,,True,True,False,0.5,-0.5,-10.64,17.64,0.1,-17.54,-8.719999999999999,certain,certain,-8.719999999999999,100.45791666666662,1116.3552623452852,None,1116.3552623452852,None,1116.3552623452852,None,1116.3552623452852,None,1116.3552623452852,None,1116.3552623452852,None,1116.3552623452852,None,3,1116.3552623452852,None,1118.3727122481214,None,1118.3727122481214,None,1118.3727122481214,None,1118.3727122481214,None,1118.3727122481214,None,1118.3727122481214,None,1118.3727122481214,None,1122.3742072044406,None,1122.3742072044406,None,1122.3742072044406,None,1122.3742072044406,None,1122.3742072044406,None,1122.3742072044406,None,1122.3742072044406,None,1123.3579959522467,None,1.9843979937722906,,,,,,,,,,,,,,,,,,,,,,,,,,,,,,24229,2019_Dec_31_1132,Mmi_3levels,3.1.5,59.961377444898496,
,,,3,1,8.5,,,,,,,,,0,2,2,2,0,21,21,24,,,,,,,,,,,,,,,,,,,,,,,,,,,,,,,,,,,,,,,,,,,,,,,,,,,,,,,,,,,,True,True,False,0.5,-0.5,-11.14,18.14,8.5,-9.64,-0.5700000000000003,certain,certain,-0.5700000000000003,99.88791666666663,1125.3753252218012,None,1125.3753252218012,None,1125.3753252218012,None,1125.3753252218012,None,1125.3753252218012,None,1125.3753252218012,None,1125.3753252218012,None,3,1125.3753252218012,None,1127.7596051421715,None,1127.7596051421715,None,1127.7596051421715,None,1127.7596051421715,None,1127.7596051421715,None,1127.7596051421715,None,1127.7596051421715,None,1131.7610898589483,None,1131.7610898589483,None,1131.7610898589483,None,1131.7610898589483,None,1131.7610898589483,None,1131.7610898589483,None,1131.7610898589483,None,1132.744848848437,None,2.351180653902702,,,,,,,,,,,,,,,,,,,,,,,,,,,,,,24229,2019_Dec_31_1132,Mmi_3levels,3.1.5,59.961377444898496,
,,,3,1,10.9,,,,,,,,,0,2,2,2,0,22,22,1,,,,,,,,,,,,,,,,,,,,,,,,,,,,,,,,,,,,,,,,,,,,,,,,,,,,,,,,,,,,True,True,True,0.5,-0.5,-11.64,18.64,10.9,-7.74,1.58,gamble,win,10.9,110.78791666666663,1134.7622302750824,None,1134.7622302750824,None,1134.7622302750824,None,1134.7622302750824,None,1134.7622302750824,None,1134.7622302750824,None,1134.7622302750824,None,1,1134.7622302750824,None,1135.8793241978856,None,1135.8793241978856,None,1135.8793241978856,None,1135.8793241978856,None,1135.8793241978856,None,1135.8793241978856,None,1135.8793241978856,None,1139.8808345133439,None,1139.8808345133439,None,1139.8808345133439,None,1139.8808345133439,None,1139.8808345133439,None,1139.8808345133439,None,1139.8808345133439,None,1149.3677582856035,None,1.0840039358008653,1140.8645791035378,None,1141.864943243214,None,0.45,7.502711048233323,1144.8660391818266,None,None,1144.8660391818266,None,,,,,,,,,,,,,,,,,,,24229,2019_Dec_31_1132,Mmi_3levels,3.1.5,59.961377444898496,
,,,3,1,0.5,,,,,,,,,0,2,2,2,0,23,23,3,,,,,,,,,,,,,,,,,,,,,,,,,,,,,,,,,,,,,,,,,,,,,,,,,,,,,,,,,,,,True,True,False,0.45,-0.55,-12.190000000000001,19.89,0.5,-19.39,-9.445,certain,certain,-9.445,101.34291666666664,1151.3851941091707,None,1151.3851941091707,None,1151.3851941091707,None,1151.3851941091707,None,1151.3851941091707,None,1151.3851941091707,None,1151.3851941091707,None,3,1151.3851941091707,None,1153.5860183830373,None,1153.5860183830373,None,1153.5860183830373,None,1153.5860183830373,None,1153.5860183830373,None,1153.5860183830373,None,1153.5860183830373,None,1157.5875373379095,None,1157.5875373379095,None,1157.5875373379095,None,1157.5875373379095,None,1157.5875373379095,None,1157.5875373379095,None,1157.5875373379095,None,1158.5712940875674,None,2.167720847646706,,,,,,,,,,,,,,,,,,,,,,,,,,,,,,24229,2019_Dec_31_1132,Mmi_3levels,3.1.5,59.961377444898496,
,,,3,1,9.5,,,,,,,,,0,2,2,2,0,24,24,23,,,,,,,,,,,,,,,,,,,,,,,,,,,,,,,,,,,,,,,,,,,,,,,,,,,,,,,,,,,,True,True,True,0.45,-0.55,-12.740000000000002,20.440000000000005,9.5,-10.940000000000005,-0.7200000000000024,certain,certain,-0.7200000000000024,100.62291666666664,1160.588668794604,None,1160.588668794604,None,1160.588668794604,None,1160.588668794604,None,1160.588668794604,None,1160.588668794604,None,1160.588668794604,None,3,1160.588668794604,None,1163.2563738031313,None,1163.2563738031313,None,1163.2563738031313,None,1163.2563738031313,None,1163.2563738031313,None,1163.2563738031313,None,1163.2563738031313,None,1167.2578597998945,None,1167.2578597998945,None,1167.2578597998945,None,1167.2578597998945,None,1167.2578597998945,None,1167.2578597998945,None,1167.2578597998945,None,1176.7447845321149,None,2.634572464041412,1168.241561832605,None,1169.241944211186,None,0.5,7.502729287138209,1172.2430695880903,None,None,1172.2430695880903,None,,,,,,,,,,,,,,,,,,,24229,2019_Dec_31_1132,Mmi_3levels,3.1.5,59.961377444898496,
,,,3,1,4.9,,,,,,,,,0,2,2,2,0,25,25,12,,,,,,,,,,,,,,,,,,,,,,,,,,,,,,,,,,,,,,,,,,,,,,,,,,,,,,,,,,,,True,False,False,0.5,-0.5,-13.240000000000002,-2.8533333333333335,4.9,2.046666666666667,1.0233333333333334,gamble,lose,2.046666666666667,102.6695833333333,1178.7622200356564,None,1178.7622200356564,None,1178.7622200356564,None,1178.7622200356564,None,1178.7622200356564,None,1178.7622200356564,None,1178.7622200356564,None,1,1178.7622200356564,None,1179.7126730503514,None,1179.7126730503514,None,1179.7126730503514,None,1179.7126730503514,None,1179.7126730503514,None,1179.7126730503514,None,1179.7126730503514,None,1183.6974150247406,None,1183.6974150247406,None,1183.6974150247406,None,1183.6974150247406,None,1183.6974150247406,None,1183.6974150247406,None,1183.6974150247406,None,1184.6979077971773,None,0.9173598279012367,,,,,,,,,,,,,,,,,,,,,,,,,,,,,,24229,2019_Dec_31_1132,Mmi_3levels,3.1.5,59.961377444898496,
,,,3,1,10.1,,,,,,,,,0,2,2,2,0,26,26,7,,,,,,,,,,,,,,,,,,,,,,,,,,,,,,,,,,,,,,,,,,,,,,,,,,,,,,,,,,,,True,True,False,0.5,-0.5,-13.740000000000002,20.740000000000002,10.1,-10.640000000000002,-0.27000000000000135,certain,certain,-0.27000000000000135,102.39958333333331,1186.71526778501,None,1186.71526778501,None,1186.71526778501,None,1186.71526778501,None,1186.71526778501,None,1186.71526778501,None,1186.71526778501,None,3,1186.71526778501,None,1188.7160056637367,None,1188.7160056637367,None,1188.7160056637367,None,1188.7160056637367,None,1188.7160056637367,None,1188.7160056637367,None,1188.7160056637367,None,1192.71751661913,None,1192.71751661913,None,1192.71751661913,None,1192.71751661913,None,1192.71751661913,None,1192.71751661913,None,1192.71751661913,None,1202.2044234323548,None,1.96766837046016,1193.7012048925972,None,1194.7016170294955,None,0.5,7.502647691755556,1197.7027020887472,None,None,1197.7027020887472,None,,,,,,,,,,,,,,,,,,,24229,2019_Dec_31_1132,Mmi_3levels,3.1.5,59.961377444898496,
,,,,,,,,,,,,,,,,,,,,,,,,,,,,,,0,0,0,0,,,,,,,,,,,,,,,,,,,,,,,,,,,,,,,,,,,,,,,,,,,,,,,,,,,,,,,,,,,,,,,,,,,,,,,,,,,,,,,,,,,,,,,,,,,,,,,,,,,,,,,,,,,,,,,,,,,,,,,,,1204.20517827,None,4,8.486805378925055,1204.20517827,None,102.39958333333331,3,1212.7251241931226,None,1212.7251241931226,None,1212.7251241931226,None,4,8.136587871122174,1212.7251241931226,None,24229,2019_Dec_31_1132,Mmi_3levels,3.1.5,59.961377444898496,
