currSlide,currImage,currText,blockNum,targetHappiness,highAmount,instructionLoop1.thisRepN,instructionLoop1.thisTrialN,instructionLoop1.thisN,instructionLoop1.thisIndex,instructionLoop2.thisRepN,instructionLoop2.thisTrialN,instructionLoop2.thisN,instructionLoop2.thisIndex,blockLoop.thisRepN,blockLoop.thisTrialN,blockLoop.thisN,blockLoop.thisIndex,trialLoop.thisRepN,trialLoop.thisTrialN,trialLoop.thisN,trialLoop.thisIndex,doRatingLoop.thisRepN,doRatingLoop.thisTrialN,doRatingLoop.thisN,doRatingLoop.thisIndex,trialHappyLoop.thisRepN,trialHappyLoop.thisTrialN,trialHappyLoop.thisN,trialHappyLoop.thisIndex,logWinningsLoop.thisRepN,logWinningsLoop.thisTrialN,logWinningsLoop.thisN,logWinningsLoop.thisIndex,instrImage.started,instrImage.stopped,instrText.started,instrText.stopped,instrContinueText.started,instrContinueText.stopped,instrKeyResp.keys,instrKeyResp.rt,instrKeyResp.started,instrKeyResp.stopped,lifeHappyText.started,lifeHappyText.stopped,lifeHappySlider.response,lifeHappySlider.rt,lifeHappySlider.started,lifeHappySlider.stopped,lifeHappyResp.keys,lifeHappyResp.rt,lifeHappyResp.started,lifeHappyResp.stopped,instrImage_2.started,instrImage_2.stopped,instrText_2.started,instrText_2.stopped,instrContinueText_2.started,instrContinueText_2.stopped,instrKeyResp_2.keys,instrKeyResp_2.rt,instrKeyResp_2.started,instrKeyResp_2.stopped,localizing.started,localizing.stopped,start_exp.keys,start_exp.rt,start_exp.started,start_exp.stopped,blockHappyText.started,blockHappyText.stopped,blockHappySlider.response,blockHappySlider.rt,blockHappySlider.started,blockHappySlider.stopped,blockHappyResp.keys,blockHappyResp.rt,blockHappyResp.started,blockHappyResp.stopped,blankText.started,blankText.stopped,isHappyBlock,isCongruent,isWinOnTop,lastHappyRating,diff,sumDiff,RPE,winAmount,loseAmount,certainAmount,choice,outcome,outcomeAmount,currentWinnings,fixCross.started,fixCross.stopped,certainBox.started,certainBox.stopped,outcome1Box.started,outcome1Box.stopped,outcome2Box.started,outcome2Box.stopped,certainText.started,certainText.stopped,outcome1Text.started,outcome1Text.stopped,outcome2Text.started,outcome2Text.stopped,choiceKey.keys,choiceKey.rt,choiceKey.started,choiceKey.stopped,fixCross_2.started,fixCross_2.stopped,certainBox_2.started,certainBox_2.stopped,outcome1Box_2.started,outcome1Box_2.stopped,outcome2Box_2.started,outcome2Box_2.stopped,certainText_2.started,certainText_2.stopped,outcome1Text_2.started,outcome1Text_2.stopped,outcome2Text_2.started,outcome2Text_2.stopped,fixCross_3.started,fixCross_3.stopped,certainBox_3.started,certainBox_3.stopped,outcome1Box_3.started,outcome1Box_3.stopped,outcome2Box_3.started,outcome2Box_3.stopped,certainText_3.started,certainText_3.stopped,outcome1Text_3.started,outcome1Text_3.stopped,outcome2Text_3.started,outcome2Text_3.stopped,fixCross_ITI.started,fixCross_ITI.stopped,fixCross_ISI.started,fixCross_ISI.stopped,happyText.started,happyText.stopped,happySlider.response,happySlider.rt,happySlider.started,happySlider.stopped,happyResp.keys,happyResp.started,happyResp.stopped,endOfBlockText.started,endOfBlockText.stopped,restKeyResp.keys,restKeyResp.rt,restKeyResp.started,restKeyResp.stopped,finalWinnings,cashBonus,goodbyeText.started,goodbyeText.stopped,finalWinningsText.started,finalWinningsText.stopped,spaceToContinue.started,spaceToContinue.stopped,goodbyeKeyResp_2.keys,goodbyeKeyResp_2.rt,goodbyeKeyResp_2.started,goodbyeKeyResp_2.stopped,participant,date,expName,psychopyVersion,frameRate,
1,black.png,"Welcome! You are about to play our gambling task.
This task has 3 blocks and takes about 15 minutes.",,,,0,0,0,0,,,,,,,,,,,,,,,,,,,,,,,,,20.038201095245313,None,20.038201095245313,None,20.038201095245313,None,4,26.477345698396675,20.038201095245313,None,,,,,,,,,,,,,,,,,,,,,,,,,,,,,,,,,,,,,,,,,,,,,,,,,,,,,,,,,,,,,,,,,,,,,,,,,,,,,,,,,,,,,,,,,,,,,,,,,,,,,,,,,,,,,,,,,,,,,,,,,,,,,,,,,,22695,2019_Oct_07_0952,Mmi_3levels,3.1.5,59.960015735980285,
2,black.png,"In this game, you may win or lose points. Your goal is to get as many points as possible. These points will be converted to a cash bonus at the end.
Sometimes we will ask you to rate your mood.",,,,0,1,1,1,,,,,,,,,,,,,,,,,,,,,,,,,46.5651851145376,None,46.5651851145376,None,46.5651851145376,None,4,0.28372306446544826,46.5651851145376,None,,,,,,,,,,,,,,,,,,,,,,,,,,,,,,,,,,,,,,,,,,,,,,,,,,,,,,,,,,,,,,,,,,,,,,,,,,,,,,,,,,,,,,,,,,,,,,,,,,,,,,,,,,,,,,,,,,,,,,,,,,,,,,,,,,22695,2019_Oct_07_0952,Mmi_3levels,3.1.5,59.960015735980285,
3,black.png,"On the next screen, please rate how you feel about your life these days. Use the LEFT (green) and RIGHT (blue) buttons to move the slider (you can press and hold them to slide gradually) and the TOP (red) button to lock in your response.
Make your rating as accurately and quickly as you can!",,,,0,2,2,2,,,,,,,,,,,,,,,,,,,,,,,,,46.89861945650773,None,46.89861945650773,None,46.89861945650773,None,4,0.23378587752813473,46.89861945650773,None,,,,,,,,,,,,,,,,,,,,,,,,,,,,,,,,,,,,,,,,,,,,,,,,,,,,,,,,,,,,,,,,,,,,,,,,,,,,,,,,,,,,,,,,,,,,,,,,,,,,,,,,,,,,,,,,,,,,,,,,,,,,,,,,,,22695,2019_Oct_07_0952,Mmi_3levels,3.1.5,59.960015735980285,
,,,,,,,,,,,,,,,,,,,,,,,,,,,,,,,,,,,,,,,,,,,,47.14874313073233,None,0.5,4.217388883582316,51.15029441824299,None,4,0.20039639750029892,51.15029441824299,None,,,,,,,,,,,,,,,,,,,,,,,,,,,,,,,,,,,,,,,,,,,,,,,,,,,,,,,,,,,,,,,,,,,,,,,,,,,,,,,,,,,,,,,,,,,,,,,,,,,,,,,,,,,,,,,,,,,,,,,,22695,2019_Oct_07_0952,Mmi_3levels,3.1.5,59.960015735980285,
4,black.png,"In this game you can win money by earning points according to your choices. You will decide whether to gamble a number of points or stick with a guaranteed number of points. 
Make your choice by pressing the left or right arrow key once. An example of one trial is shown on the next screen.",,,,,,,,0,0,0,0,,,,,,,,,,,,,,,,,,,,,,,,,,,,,,,,,,,,,,,,,51.41709219344193,None,51.41709219344193,None,51.41709219344193,None,4,0.5171377593069337,51.41709219344193,None,,,,,,,,,,,,,,,,,,,,,,,,,,,,,,,,,,,,,,,,,,,,,,,,,,,,,,,,,,,,,,,,,,,,,,,,,,,,,,,,,,,,,,,,,,,,,,,,,,,,,,,,,,,,,,22695,2019_Oct_07_0952,Mmi_3levels,3.1.5,59.960015735980285,
5,example_start.png,"The GAMBLING OPTION will be shown on the RIGHT SIDE. 
Select this option using the RIGHT (blue) button on your keypad.",,,,,,,,0,1,1,1,,,,,,,,,,,,,,,,,,,,,,,,,,,,,,,,,,,,,,,,,52.00058045287733,None,52.00058045287733,None,52.00058045287733,None,4,0.6339566215465311,52.00058045287733,None,,,,,,,,,,,,,,,,,,,,,,,,,,,,,,,,,,,,,,,,,,,,,,,,,,,,,,,,,,,,,,,,,,,,,,,,,,,,,,,,,,,,,,,,,,,,,,,,,,,,,,,,,,,,,,22695,2019_Oct_07_0952,Mmi_3levels,3.1.5,59.960015735980285,
6,example_gamble.png,"Once you select the gambling choice, the choice you made will remain on the screen.",,,,,,,,0,2,2,2,,,,,,,,,,,,,,,,,,,,,,,,,,,,,,,,,,,,,,,,,52.66747953536105,None,52.66747953536105,None,52.66747953536105,None,4,0.3505045844358392,52.66747953536105,None,,,,,,,,,,,,,,,,,,,,,,,,,,,,,,,,,,,,,,,,,,,,,,,,,,,,,,,,,,,,,,,,,,,,,,,,,,,,,,,,,,,,,,,,,,,,,,,,,,,,,,,,,,,,,,22695,2019_Oct_07_0952,Mmi_3levels,3.1.5,59.960015735980285,
7,example_win.png,"The outcome you received will then be shown on the screen. In this example , you WON 10 points.",,,,,,,,0,3,3,3,,,,,,,,,,,,,,,,,,,,,,,,,,,,,,,,,,,,,,,,,53.05104913498508,None,53.05104913498508,None,53.05104913498508,None,4,0.3337236084335018,53.05104913498508,None,,,,,,,,,,,,,,,,,,,,,,,,,,,,,,,,,,,,,,,,,,,,,,,,,,,,,,,,,,,,,,,,,,,,,,,,,,,,,,,,,,,,,,,,,,,,,,,,,,,,,,,,,,,,,,22695,2019_Oct_07_0952,Mmi_3levels,3.1.5,59.960015735980285,
8,example_start.png,"The GUARANTEED OPTION will be shown on the LEFT SIDE. You are 100% guaranteed to gain or lose this amount. In this example, you have a 100% chance of winning 1 point. Select this option using the LEFT (green) button on your keyboard.",,,,,,,,0,4,4,4,,,,,,,,,,,,,,,,,,,,,,,,,,,,,,,,,,,,,,,,,53.45121091941837,None,53.45121091941837,None,53.45121091941837,None,4,0.3671182082325686,53.45121091941837,None,,,,,,,,,,,,,,,,,,,,,,,,,,,,,,,,,,,,,,,,,,,,,,,,,,,,,,,,,,,,,,,,,,,,,,,,,,,,,,,,,,,,,,,,,,,,,,,,,,,,,,,,,,,,,,22695,2019_Oct_07_0952,Mmi_3levels,3.1.5,59.960015735980285,
9,example_certain.png,"Once you select the guaranteed choice, your selection will remain on the screen.",,,,,,,,0,5,5,5,,,,,,,,,,,,,,,,,,,,,,,,,,,,,,,,,,,,,,,,,53.85132758598775,None,53.85132758598775,None,53.85132758598775,None,4,0.3838729454437271,53.85132758598775,None,,,,,,,,,,,,,,,,,,,,,,,,,,,,,,,,,,,,,,,,,,,,,,,,,,,,,,,,,,,,,,,,,,,,,,,,,,,,,,,,,,,,,,,,,,,,,,,,,,,,,,,,,,,,,,22695,2019_Oct_07_0952,Mmi_3levels,3.1.5,59.960015735980285,
10,black.png,"Please make your choices as fast as possible.
You will be given a break at the end of each block.
Let's play!",,,,,,,,0,6,6,6,,,,,,,,,,,,,,,,,,,,,,,,,,,,,,,,,,,,,,,,,54.268157711660024,None,54.268157711660024,None,54.268157711660024,None,4,0.5171620781766251,54.268157711660024,None,,,,,,,,,,,,,,,,,,,,,,,,,,,,,,,,,,,,,,,,,,,,,,,,,,,,,,,,,,,,,,,,,,,,,,,,,,,,,,,,,,,,,,,,,,,,,,,,,,,,,,,,,,,,,,22695,2019_Oct_07_0952,Mmi_3levels,3.1.5,59.960015735980285,
,,,,,,,,,,,,,,,,,,,,,,,,,,,,,,,,,,,,,,,,,,,,,,,,,,,,,,,,,,,,,,,,54.80170494434424,None,space,20.891726978501538,54.80170494434424,None,,,,,,,,,,,,,,,,,,,,,,,,,,,,,,,,,,,,,,,,,,,,,,,,,,,,,,,,,,,,,,,,,,,,,,,,,,,,,,,,,,,,,,,,,,,,,,,,,,,,,,,,22695,2019_Oct_07_0952,Mmi_3levels,3.1.5,59.960015735980285,
,,,1,1,6.7,,,,,,,,,0,0,0,0,0,0,0,25,,,,,,,,,,,,,,,,,,,,,,,,,,,,,,,,,,,,,,,,,,,,,,,,,75.70980971769313,None,0.61,5.1608628844842315,78.72766424351721,None,4,2.1345169153646566,78.72766424351721,None,80.87851959557156,None,True,False,False,0.61,-0.39,-0.39,-1.3975,6.7,5.3025,2.65125,certain,certain,2.65125,2.65125,83.91297750567901,None,83.91297750567901,None,83.91297750567901,None,83.91297750567901,None,83.91297750567901,None,83.91297750567901,None,83.91297750567901,None,3,2.4847123942454346,83.91297750567901,None,86.43062212131917,None,86.43062212131917,None,86.43062212131917,None,86.43062212131917,None,86.43062212131917,None,86.43062212131917,None,86.43062212131917,None,90.41548330860678,None,90.41548330860678,None,90.41548330860678,None,90.41548330860678,None,90.41548330860678,None,90.41548330860678,None,90.41548330860678,None,91.4159028090071,None,,,,,,,,,,,,,,,,,,,,,,,,,,,,,,22695,2019_Oct_07_0952,Mmi_3levels,3.1.5,59.960015735980285,
,,,1,1,7.5,,,,,,,,,0,0,0,0,0,1,1,0,,,,,,,,,,,,,,,,,,,,,,,,,,,,,,,,,,,,,,,,,,,,,,,,,,,,,,,,,,,,,True,True,False,0.61,-0.39,-0.78,6.24,7.5,1.2599999999999998,0.6299999999999999,gamble,win,7.5,10.151250000000001,93.4334344699455,None,93.4334344699455,None,93.4334344699455,None,93.4334344699455,None,93.4334344699455,None,93.4334344699455,None,93.4334344699455,None,None,,93.4334344699455,None,96.4345249790058,None,96.4345249790058,None,96.4345249790058,None,96.4345249790058,None,96.4345249790058,None,96.4345249790058,None,96.4345249790058,None,100.43605226764339,None,100.43605226764339,None,100.43605226764339,None,100.43605226764339,None,100.43605226764339,None,100.43605226764339,None,100.43605226764339,None,101.41982390583144,None,,,,,,,,,,,,,,,,,,,,,,,,,,,,,,22695,2019_Oct_07_0952,Mmi_3levels,3.1.5,59.960015735980285,
,,,1,1,13.7,,,,,,,,,0,0,0,0,0,2,2,20,,,,,,,,,,,,,,,,,,,,,,,,,,,,,,,,,,,,,,,,,,,,,,,,,,,,,,,,,,,,,True,True,True,0.61,-0.39,-1.17,6.63,13.7,7.069999999999999,3.5349999999999997,certain,certain,3.5349999999999997,13.686250000000001,103.43723589234287,None,103.43723589234287,None,103.43723589234287,None,103.43723589234287,None,103.43723589234287,None,103.43723589234287,None,103.43723589234287,None,3,0.6504800095572136,103.43723589234287,None,104.12083467459888,None,104.12083467459888,None,104.12083467459888,None,104.12083467459888,None,104.12083467459888,None,104.12083467459888,None,104.12083467459888,None,108.12238852199516,None,108.12238852199516,None,108.12238852199516,None,108.12238852199516,None,108.12238852199516,None,108.12238852199516,None,108.12238852199516,None,117.60941376819392,None,109.10610000300221,None,110.10646958573489,None,0.43,7.503066416742513,113.10763977107126,None,None,113.10763977107126,None,,,,,,,,,,,,,,,,,,,22695,2019_Oct_07_0952,Mmi_3levels,3.1.5,59.960015735980285,
,,,1,1,10.1,,,,,,,,,0,0,0,0,0,3,3,26,,,,,,,,,,,,,,,,,,,,,,,,,,,,,,,,,,,,,,,,,,,,,,,,,,,,,,,,,,,,,True,True,True,0.43,-0.5700000000000001,-1.74,9.72,10.1,0.379999999999999,0.1899999999999995,gamble,win,10.1,23.786250000000003,119.6268513535033,None,119.6268513535033,None,119.6268513535033,None,119.6268513535033,None,119.6268513535033,None,119.6268513535033,None,119.6268513535033,None,1,2.23475671216147,119.6268513535033,None,121.89441613288363,None,121.89441613288363,None,121.89441613288363,None,121.89441613288363,None,121.89441613288363,None,121.89441613288363,None,121.89441613288363,None,125.89593286201125,None,125.89593286201125,None,125.89593286201125,None,125.89593286201125,None,125.89593286201125,None,125.89593286201125,None,125.89593286201125,None,126.8796645020775,None,,,,,,,,,,,,,,,,,,,,,,,,,,,,,,22695,2019_Oct_07_0952,Mmi_3levels,3.1.5,59.960015735980285,
,,,1,1,11.9,,,,,,,,,0,0,0,0,0,4,4,18,,,,,,,,,,,,,,,,,,,,,,,,,,,,,,,,,,,,,,,,,,,,,,,,,,,,,,,,,,,,,True,True,True,0.43,-0.5700000000000001,-2.31,10.290000000000001,11.9,1.6099999999999994,0.8049999999999997,gamble,win,11.9,35.68625,128.89715008513303,None,128.89715008513303,None,128.89715008513303,None,128.89715008513303,None,128.89715008513303,None,128.89715008513303,None,128.89715008513303,None,1,1.7510657102102414,128.89715008513303,None,130.68119377462426,None,130.68119377462426,None,130.68119377462426,None,130.68119377462426,None,130.68119377462426,None,130.68119377462426,None,130.68119377462426,None,134.68269034469267,None,134.68269034469267,None,134.68269034469267,None,134.68269034469267,None,134.68269034469267,None,134.68269034469267,None,134.68269034469267,None,144.16975110923522,None,135.6664082253992,None,136.6668139664398,None,0.65,7.502786109835142,139.66795919294236,None,None,139.66795919294236,None,,,,,,,,,,,,,,,,,,,22695,2019_Oct_07_0952,Mmi_3levels,3.1.5,59.960015735980285,
,,,1,1,7.7,,,,,,,,,0,0,0,0,0,5,5,23,,,,,,,,,,,,,,,,,,,,,,,,,,,,,,,,,,,,,,,,,,,,,,,,,,,,,,,,,,,,,True,False,False,0.65,-0.35,-2.66,-1.4466666666666665,7.7,6.253333333333334,3.126666666666667,certain,certain,3.126666666666667,38.812916666666666,146.1871909344336,None,146.1871909344336,None,146.1871909344336,None,146.1871909344336,None,146.1871909344336,None,146.1871909344336,None,146.1871909344336,None,3,1.4176537672174163,146.1871909344336,None,147.63771708586137,None,147.63771708586137,None,147.63771708586137,None,147.63771708586137,None,147.63771708586137,None,147.63771708586137,None,147.63771708586137,None,151.6225718734495,None,151.6225718734495,None,151.6225718734495,None,151.6225718734495,None,151.6225718734495,None,151.6225718734495,None,151.6225718734495,None,152.62303009204334,None,,,,,,,,,,,,,,,,,,,,,,,,,,,,,,22695,2019_Oct_07_0952,Mmi_3levels,3.1.5,59.960015735980285,
,,,1,1,0.7,,,,,,,,,0,0,0,0,0,6,6,2,,,,,,,,,,,,,,,,,,,,,,,,,,,,,,,,,,,,,,,,,,,,,,,,,,,,,,,,,,,,,True,True,False,0.65,-0.35,-3.0100000000000002,7.91,0.7,-7.21,-3.255,gamble,win,0.7,39.51291666666667,154.64042319942382,None,154.64042319942382,None,154.64042319942382,None,154.64042319942382,None,154.64042319942382,None,154.64042319942382,None,154.64042319942382,None,None,,154.64042319942382,None,157.64165034209145,None,157.64165034209145,None,157.64165034209145,None,157.64165034209145,None,157.64165034209145,None,157.64165034209145,None,157.64165034209145,None,161.6431721909903,None,161.6431721909903,None,161.6431721909903,None,161.6431721909903,None,161.6431721909903,None,161.6431721909903,None,161.6431721909903,None,162.6269406293286,None,,,,,,,,,,,,,,,,,,,,,,,,,,,,,,22695,2019_Oct_07_0952,Mmi_3levels,3.1.5,59.960015735980285,
,,,1,1,4.9,,,,,,,,,0,0,0,0,0,7,7,13,,,,,,,,,,,,,,,,,,,,,,,,,,,,,,,,,,,,,,,,,,,,,,,,,,,,,,,,,,,,,True,False,False,0.65,-0.35,-3.3600000000000003,-1.505,4.9,3.3950000000000005,1.6975000000000002,gamble,lose,3.3950000000000005,42.90791666666667,164.64431581756799,None,164.64431581756799,None,164.64431581756799,None,164.64431581756799,None,164.64431581756799,None,164.64431581756799,None,164.64431581756799,None,1,2.001162505679531,164.64431581756799,None,166.6784854211728,None,166.6784854211728,None,166.6784854211728,None,166.6784854211728,None,166.6784854211728,None,166.6784854211728,None,166.6784854211728,None,170.67999319071532,None,170.67999319071532,None,170.67999319071532,None,170.67999319071532,None,170.67999319071532,None,170.67999319071532,None,170.67999319071532,None,180.16703187627718,None,171.66374051003368,None,172.66414369121776,None,0.77,7.5027646708185785,175.66525115945842,None,None,175.66525115945842,None,,,,,,,,,,,,,,,,,,,22695,2019_Oct_07_0952,Mmi_3levels,3.1.5,59.960015735980285,
,,,1,1,1.3,,,,,,,,,0,0,0,0,0,8,8,15,,,,,,,,,,,,,,,,,,,,,,,,,,,,,,,,,,,,,,,,,,,,,,,,,,,,,,,,,,,,,True,True,False,0.77,-0.22999999999999998,-3.5900000000000003,6.8100000000000005,1.3,-5.510000000000001,-2.1050000000000004,gamble,win,1.3,44.20791666666667,182.1845152194437,None,182.1845152194437,None,182.1845152194437,None,182.1845152194437,None,182.1845152194437,None,182.1845152194437,None,182.1845152194437,None,1,1.9175792106834706,182.1845152194437,None,184.13526376048685,None,184.13526376048685,None,184.13526376048685,None,184.13526376048685,None,184.13526376048685,None,184.13526376048685,None,184.13526376048685,None,188.13680704837316,None,188.13680704837316,None,188.13680704837316,None,188.13680704837316,None,188.13680704837316,None,188.13680704837316,None,188.13680704837316,None,189.12048909073928,None,,,,,,,,,,,,,,,,,,,,,,,,,,,,,,22695,2019_Oct_07_0952,Mmi_3levels,3.1.5,59.960015735980285,
,,,1,1,12.5,,,,,,,,,0,0,0,0,0,9,9,3,,,,,,,,,,,,,,,,,,,,,,,,,,,,,,,,,,,,,,,,,,,,,,,,,,,,,,,,,,,,,True,False,True,0.77,-0.22999999999999998,-3.8200000000000003,-1.1233333333333333,12.5,11.376666666666667,5.6883333333333335,certain,certain,5.6883333333333335,49.89625,191.13788315810962,None,191.13788315810962,None,191.13788315810962,None,191.13788315810962,None,191.13788315810962,None,191.13788315810962,None,191.13788315810962,None,3,1.8512178310775198,191.13788315810962,None,193.0220629692194,None,193.0220629692194,None,193.0220629692194,None,193.0220629692194,None,193.0220629692194,None,193.0220629692194,None,193.0220629692194,None,197.0236017773277,None,197.0236017773277,None,197.0236017773277,None,197.0236017773277,None,197.0236017773277,None,197.0236017773277,None,197.0236017773277,None,206.51057518593734,None,198.0072786999517,None,199.0077308388136,None,0.8,7.502901304455008,202.0088687056559,None,None,202.0088687056559,None,,,,,,,,,,,,,,,,,,,22695,2019_Oct_07_0952,Mmi_3levels,3.1.5,59.960015735980285,
,,,1,1,6.3,,,,,,,,,0,0,0,0,0,10,10,16,,,,,,,,,,,,,,,,,,,,,,,,,,,,,,,,,,,,,,,,,,,,,,,,,,,,,,,,,,,,,True,True,True,0.8,-0.19999999999999996,-4.0200000000000005,6.82,6.3,-0.5200000000000005,-0.26000000000000023,gamble,win,6.3,56.19625,208.528059169068,None,208.528059169068,None,208.528059169068,None,208.528059169068,None,208.528059169068,None,208.528059169068,None,208.528059169068,None,1,1.5676557191181928,208.528059169068,None,210.12868934762082,None,210.12868934762082,None,210.12868934762082,None,210.12868934762082,None,210.12868934762082,None,210.12868934762082,None,210.12868934762082,None,214.130220796098,None,214.130220796098,None,214.130220796098,None,214.130220796098,None,214.130220796098,None,214.130220796098,None,214.130220796098,None,215.11392843726208,None,,,,,,,,,,,,,,,,,,,,,,,,,,,,,,22695,2019_Oct_07_0952,Mmi_3levels,3.1.5,59.960015735980285,
,,,1,1,1.5,,,,,,,,,0,0,0,0,0,11,11,5,,,,,,,,,,,,,,,,,,,,,,,,,,,,,,,,,,,,,,,,,,,,,,,,,,,,,,,,,,,,,True,True,True,0.8,-0.19999999999999996,-4.220000000000001,7.02,1.5,-5.52,-2.01,gamble,win,1.5,57.69625,217.1313538631366,None,217.1313538631366,None,217.1313538631366,None,217.1313538631366,None,217.1313538631366,None,217.1313538631366,None,217.1313538631366,None,None,,217.1313538631366,None,220.13251444892376,None,220.13251444892376,None,220.13251444892376,None,220.13251444892376,None,220.13251444892376,None,220.13251444892376,None,220.13251444892376,None,224.1341028547031,None,224.1341028547031,None,224.1341028547031,None,224.1341028547031,None,224.1341028547031,None,224.1341028547031,None,224.1341028547031,None,233.62116233928828,None,225.11780825600727,None,226.1182171968976,None,0.71,7.502824188064551,229.11934514419409,None,None,229.11934514419409,None,,,,,,,,,,,,,,,,,,,22695,2019_Oct_07_0952,Mmi_3levels,3.1.5,59.960015735980285,
,,,1,1,1.7,,,,,,,,,0,0,0,0,0,12,12,10,,,,,,,,,,,,,,,,,,,,,,,,,,,,,,,,,,,,,,,,,,,,,,,,,,,,,,,,,,,,,True,True,False,0.71,-0.29000000000000004,-4.510000000000001,8.57,1.7,-6.87,-2.585,gamble,win,1.7,59.39625,235.63854872700176,None,235.63854872700176,None,235.63854872700176,None,235.63854872700176,None,235.63854872700176,None,235.63854872700176,None,235.63854872700176,None,1,2.584822597069433,235.63854872700176,None,238.2562693071086,None,238.2562693071086,None,238.2562693071086,None,238.2562693071086,None,238.2562693071086,None,238.2562693071086,None,238.2562693071086,None,242.25782507439726,None,242.25782507439726,None,242.25782507439726,None,242.25782507439726,None,242.25782507439726,None,242.25782507439726,None,242.25782507439726,None,243.24156375412713,None,,,,,,,,,,,,,,,,,,,,,,,,,,,,,,22695,2019_Oct_07_0952,Mmi_3levels,3.1.5,59.960015735980285,
,,,1,1,8.5,,,,,,,,,0,0,0,0,0,13,13,6,,,,,,,,,,,,,,,,,,,,,,,,,,,,,,,,,,,,,,,,,,,,,,,,,,,,,,,,,,,,,True,True,False,0.71,-0.29000000000000004,-4.800000000000001,8.860000000000001,8.5,-0.3600000000000012,-0.1800000000000006,gamble,win,8.5,67.89625000000001,245.2589229431178,None,245.2589229431178,None,245.2589229431178,None,245.2589229431178,None,245.2589229431178,None,245.2589229431178,None,245.2589229431178,None,1,1.2173706444445997,245.2589229431178,None,246.50949651631527,None,246.50949651631527,None,246.50949651631527,None,246.50949651631527,None,246.50949651631527,None,246.50949651631527,None,246.50949651631527,None,250.51099692622665,None,250.51099692622665,None,250.51099692622665,None,250.51099692622665,None,250.51099692622665,None,250.51099692622665,None,250.51099692622665,None,251.4947576849081,None,,,,,,,,,,,,,,,,,,,,,,,,,,,,,,22695,2019_Oct_07_0952,Mmi_3levels,3.1.5,59.960015735980285,
,,,1,1,11.5,,,,,,,,,0,0,0,0,0,14,14,24,,,,,,,,,,,,,,,,,,,,,,,,,,,,,,,,,,,,,,,,,,,,,,,,,,,,,,,,,,,,,True,True,True,0.71,-0.29000000000000004,-5.090000000000001,9.150000000000002,11.5,2.349999999999998,1.174999999999999,gamble,win,11.5,79.39625000000001,253.51220134994946,None,253.51220134994946,None,253.51220134994946,None,253.51220134994946,None,253.51220134994946,None,253.51220134994946,None,253.51220134994946,None,1,1.5009874738752842,253.51220134994946,None,255.04611784536974,None,255.04611784536974,None,255.04611784536974,None,255.04611784536974,None,255.04611784536974,None,255.04611784536974,None,255.04611784536974,None,259.04766273321,None,259.04766273321,None,259.04766273321,None,259.04766273321,None,259.04766273321,None,259.04766273321,None,259.04766273321,None,268.5345887840085,None,260.0313658945961,None,261.03176363601233,None,0.73,7.502461644995492,264.03288102379884,None,None,264.03288102379884,None,,,,,,,,,,,,,,,,,,,22695,2019_Oct_07_0952,Mmi_3levels,3.1.5,59.960015735980285,
,,,1,1,9.5,,,,,,,,,0,0,0,0,0,15,15,7,,,,,,,,,,,,,,,,,,,,,,,,,,,,,,,,,,,,,,,,,,,,,,,,,,,,,,,,,,,,,True,True,True,0.73,-0.27,-5.360000000000001,9.14,9.5,0.35999999999999943,0.17999999999999972,gamble,win,9.5,88.89625000000001,270.5520951661165,None,270.5520951661165,None,270.5520951661165,None,270.5520951661165,None,270.5520951661165,None,270.5520951661165,None,270.5520951661165,None,1,1.8011923283047508,270.5520951661165,None,272.38615699874936,None,272.38615699874936,None,272.38615699874936,None,272.38615699874936,None,272.38615699874936,None,272.38615699874936,None,272.38615699874936,None,276.3877076462959,None,276.3877076462959,None,276.3877076462959,None,276.3877076462959,None,276.3877076462959,None,276.3877076462959,None,276.3877076462959,None,277.3714312867378,None,,,,,,,,,,,,,,,,,,,,,,,,,,,,,,22695,2019_Oct_07_0952,Mmi_3levels,3.1.5,59.960015735980285,
,,,1,1,-0.1,,,,,,,,,0,0,0,0,0,16,16,9,,,,,,,,,,,,,,,,,,,,,,,,,,,,,,,,,,,,,,,,,,,,,,,,,,,,,,,,,,,,,True,False,True,0.73,-0.27,-5.630000000000001,-1.4141666666666668,-0.1,-1.5141666666666669,-0.8070833333333335,certain,certain,-0.8070833333333335,88.08916666666667,279.3888691920438,None,279.3888691920438,None,279.3888691920438,None,279.3888691920438,None,279.3888691920438,None,279.3888691920438,None,279.3888691920438,None,3,2.9181737429462373,279.3888691920438,None,282.34008235135116,None,282.34008235135116,None,282.34008235135116,None,282.34008235135116,None,282.34008235135116,None,282.34008235135116,None,282.34008235135116,None,286.34158756103716,None,286.34158756103716,None,286.34158756103716,None,286.34158756103716,None,286.34158756103716,None,286.34158756103716,None,286.34158756103716,None,295.8286233667168,None,287.3252859226486,None,288.3257227022259,None,0.7,7.5027112333336845,291.32686088906485,None,None,291.32686088906485,None,,,,,,,,,,,,,,,,,,,22695,2019_Oct_07_0952,Mmi_3levels,3.1.5,59.960015735980285,
,,,1,1,3.9,,,,,,,,,0,0,0,0,0,17,17,21,,,,,,,,,,,,,,,,,,,,,,,,,,,,,,,,,,,,,,,,,,,,,,,,,,,,,,,,,,,,,True,True,False,0.7,-0.30000000000000004,-5.930000000000001,10.130000000000003,3.9,-6.230000000000002,-1.1650000000000011,certain,certain,-1.1650000000000011,86.92416666666666,297.8460523124377,None,297.8460523124377,None,297.8460523124377,None,297.8460523124377,None,297.8460523124377,None,297.8460523124377,None,297.8460523124377,None,3,2.851432221068535,297.8460523124377,None,300.73051691026194,None,300.73051691026194,None,300.73051691026194,None,300.73051691026194,None,300.73051691026194,None,300.73051691026194,None,300.73051691026194,None,304.73207779732184,None,304.73207779732184,None,304.73207779732184,None,304.73207779732184,None,304.73207779732184,None,304.73207779732184,None,304.73207779732184,None,305.71578863836476,None,,,,,,,,,,,,,,,,,,,,,,,,,,,,,,22695,2019_Oct_07_0952,Mmi_3levels,3.1.5,59.960015735980285,
,,,1,1,6.9,,,,,,,,,0,0,0,0,0,18,18,12,,,,,,,,,,,,,,,,,,,,,,,,,,,,,,,,,,,,,,,,,,,,,,,,,,,,,,,,,,,,,True,False,True,0.7,-0.30000000000000004,-6.23,-1.5691666666666668,6.9,5.3308333333333335,2.6654166666666668,gamble,lose,5.3308333333333335,92.255,307.7332169440924,None,307.7332169440924,None,307.7332169440924,None,307.7332169440924,None,307.7332169440924,None,307.7332169440924,None,307.7332169440924,None,1,1.0841762272757478,307.7332169440924,None,308.85037787034526,None,308.85037787034526,None,308.85037787034526,None,308.85037787034526,None,308.85037787034526,None,308.85037787034526,None,308.85037787034526,None,312.85192947785254,None,312.85192947785254,None,312.85192947785254,None,312.85192947785254,None,312.85192947785254,None,312.85192947785254,None,312.85192947785254,None,313.8355584027013,None,,,,,,,,,,,,,,,,,,,,,,,,,,,,,,22695,2019_Oct_07_0952,Mmi_3levels,3.1.5,59.960015735980285,
,,,1,1,0.9,,,,,,,,,0,0,0,0,0,19,19,4,,,,,,,,,,,,,,,,,,,,,,,,,,,,,,,,,,,,,,,,,,,,,,,,,,,,,,,,,,,,,True,True,False,0.7,-0.30000000000000004,-6.53,10.73,0.9,-9.83,-4.465,gamble,win,0.9,93.155,315.8530148671416,None,315.8530148671416,None,315.8530148671416,None,315.8530148671416,None,315.8530148671416,None,315.8530148671416,None,315.8530148671416,None,1,1.800860183808254,315.8530148671416,None,317.687059740565,None,317.687059740565,None,317.687059740565,None,317.687059740565,None,317.687059740565,None,317.687059740565,None,317.687059740565,None,321.6886199876608,None,321.6886199876608,None,321.6886199876608,None,321.6886199876608,None,321.6886199876608,None,321.6886199876608,None,321.6886199876608,None,331.17564523385954,None,322.67233210863196,None,323.6727429694438,None,0.7,7.502823868067935,326.6738958755741,None,None,326.6738958755741,None,,,,,,,,,,,,,,,,,,,22695,2019_Oct_07_0952,Mmi_3levels,3.1.5,59.960015735980285,
,,,1,1,13.5,,,,,,,,,0,0,0,0,0,20,20,14,,,,,,,,,,,,,,,,,,,,,,,,,,,,,,,,,,,,,,,,,,,,,,,,,,,,,,,,,,,,,True,True,False,0.7,-0.30000000000000004,-6.83,11.030000000000001,13.5,2.469999999999999,1.2349999999999994,gamble,win,13.5,106.655,333.1930796193192,None,333.1930796193192,None,333.1930796193192,None,333.1930796193192,None,333.1930796193192,None,333.1930796193192,None,333.1930796193192,None,1,1.017530061013531,333.1930796193192,None,334.24354702146957,None,334.24354702146957,None,334.24354702146957,None,334.24354702146957,None,334.24354702146957,None,334.24354702146957,None,334.24354702146957,None,338.24503655190347,None,338.24503655190347,None,338.24503655190347,None,338.24503655190347,None,338.24503655190347,None,338.24503655190347,None,338.24503655190347,None,339.22875795242726,None,,,,,,,,,,,,,,,,,,,,,,,,,,,,,,22695,2019_Oct_07_0952,Mmi_3levels,3.1.5,59.960015735980285,
,,,1,1,8.3,,,,,,,,,0,0,0,0,0,21,21,1,,,,,,,,,,,,,,,,,,,,,,,,,,,,,,,,,,,,,,,,,,,,,,,,,,,,,,,,,,,,,True,False,True,0.7,-0.30000000000000004,-7.13,-1.644166666666667,8.3,6.655833333333334,3.327916666666667,gamble,lose,6.655833333333334,113.31083333333333,341.24624257555115,None,341.24624257555115,None,341.24624257555115,None,341.24624257555115,None,341.24624257555115,None,341.24624257555115,None,341.24624257555115,None,1,1.0174814232741483,341.24624257555115,None,342.2966376610857,None,342.2966376610857,None,342.2966376610857,None,342.2966376610857,None,342.2966376610857,None,342.2966376610857,None,342.2966376610857,None,346.2814946885628,None,346.2814946885628,None,346.2814946885628,None,346.2814946885628,None,346.2814946885628,None,346.2814946885628,None,346.2814946885628,None,355.78517931641545,None,347.2818153135886,None,348.2823282496247,None,0.74,7.502825787989423,351.2834405176691,None,None,351.2834405176691,None,,,,,,,,,,,,,,,,,,,22695,2019_Oct_07_0952,Mmi_3levels,3.1.5,59.960015735980285,
,,,1,1,10.3,,,,,,,,,0,0,0,0,0,22,22,22,,,,,,,,,,,,,,,,,,,,,,,,,,,,,,,,,,,,,,,,,,,,,,,,,,,,,,,,,,,,,True,False,True,0.74,-0.26,-7.39,-1.5258333333333334,10.3,8.774166666666668,4.387083333333334,gamble,lose,8.774166666666668,122.08500000000001,357.80261242194683,None,357.80261242194683,None,357.80261242194683,None,357.80261242194683,None,357.80261242194683,None,357.80261242194683,None,357.80261242194683,None,1,0.8841030147159472,357.80261242194683,None,358.719651817868,None,358.719651817868,None,358.719651817868,None,358.719651817868,None,358.719651817868,None,358.719651817868,None,358.719651817868,None,362.7212635825563,None,362.7212635825563,None,362.7212635825563,None,362.7212635825563,None,362.7212635825563,None,362.7212635825563,None,362.7212635825563,None,363.7049277057813,None,,,,,,,,,,,,,,,,,,,,,,,,,,,,,,22695,2019_Oct_07_0952,Mmi_3levels,3.1.5,59.960015735980285,
,,,1,1,4.3,,,,,,,,,0,0,0,0,0,23,23,19,,,,,,,,,,,,,,,,,,,,,,,,,,,,,,,,,,,,,,,,,,,,,,,,,,,,,,,,,,,,,True,False,False,0.74,-0.26,-7.6499999999999995,-1.5474999999999999,4.3,2.7525,1.37625,gamble,lose,2.7525,124.8375,365.72242224842194,None,365.72242224842194,None,365.72242224842194,None,365.72242224842194,None,365.72242224842194,None,365.72242224842194,None,365.72242224842194,None,1,1.6007975307584275,365.72242224842194,None,367.35634303165716,None,367.35634303165716,None,367.35634303165716,None,367.35634303165716,None,367.35634303165716,None,367.35634303165716,None,367.35634303165716,None,371.35792599769775,None,371.35792599769775,None,371.35792599769775,None,371.35792599769775,None,371.35792599769775,None,371.35792599769775,None,371.35792599769775,None,380.8449573235994,None,372.34160708010313,None,373.34203106031055,None,0.78,7.502774270367809,376.3431849264016,None,None,376.3431849264016,None,,,,,,,,,,,,,,,,,,,22695,2019_Oct_07_0952,Mmi_3levels,3.1.5,59.960015735980285,
,,,1,1,5.1,,,,,,,,,0,0,0,0,0,24,24,17,,,,,,,,,,,,,,,,,,,,,,,,,,,,,,,,,,,,,,,,,,,,,,,,,,,,,,,,,,,,,True,True,True,0.78,-0.21999999999999997,-7.869999999999999,10.95,5.1,-5.85,-0.375,certain,certain,-0.375,124.4625,382.86240578838624,None,382.86240578838624,None,382.86240578838624,None,382.86240578838624,None,382.86240578838624,None,382.86240578838624,None,382.86240578838624,None,3,2.818158575624693,382.86240578838624,None,385.71353850347805,None,385.71353850347805,None,385.71353850347805,None,385.71353850347805,None,385.71353850347805,None,385.71353850347805,None,385.71353850347805,None,389.7150117146375,None,389.7150117146375,None,389.7150117146375,None,389.7150117146375,None,389.7150117146375,None,389.7150117146375,None,389.7150117146375,None,390.6987311952689,None,,,,,,,,,,,,,,,,,,,,,,,,,,,,,,22695,2019_Oct_07_0952,Mmi_3levels,3.1.5,59.960015735980285,
,,,1,1,3.5,,,,,,,,,0,0,0,0,0,25,25,8,,,,,,,,,,,,,,,,,,,,,,,,,,,,,,,,,,,,,,,,,,,,,,,,,,,,,,,,,,,,,True,True,True,0.78,-0.21999999999999997,-8.09,11.17,3.5,-7.67,-2.085,gamble,win,3.5,127.9625,392.71618989959825,None,392.71618989959825,None,392.71618989959825,None,392.71618989959825,None,392.71618989959825,None,392.71618989959825,None,392.71618989959825,None,1,1.9678178235481028,392.71618989959825,None,394.71697066313936,None,394.71697066313936,None,394.71697066313936,None,394.71697066313936,None,394.71697066313936,None,394.71697066313936,None,394.71697066313936,None,398.7185497893661,None,398.7185497893661,None,398.7185497893661,None,398.7185497893661,None,398.7185497893661,None,398.7185497893661,None,398.7185497893661,None,399.7022631902655,None,,,,,,,,,,,,,,,,,,,,,,,,,,,,,,22695,2019_Oct_07_0952,Mmi_3levels,3.1.5,59.960015735980285,
,,,1,1,8.9,,,,,,,,,0,0,0,0,0,26,26,11,,,,,,,,,,,,,,,,,,,,,,,,,,,,,,,,,,,,,,,,,,,,,,,,,,,,,,,,,,,,,True,False,True,0.78,-0.21999999999999997,-8.31,-1.4625,8.9,7.4375,3.71875,gamble,lose,7.4375,135.4,401.719694695872,None,401.719694695872,None,401.719694695872,None,401.719694695872,None,401.719694695872,None,401.719694695872,None,401.719694695872,None,1,1.817786433006404,401.719694695872,None,403.57043158944,None,403.57043158944,None,403.57043158944,None,403.57043158944,None,403.57043158944,None,403.57043158944,None,403.57043158944,None,407.57198255698313,None,407.57198255698313,None,407.57198255698313,None,407.57198255698313,None,407.57198255698313,None,407.57198255698313,None,407.57198255698313,None,417.07563774619484,None,408.55566011957126,None,409.55610361884465,None,0.69,7.519426292390563,412.55729204331874,None,None,412.55729204331874,None,,,,,,,,,,,,,,,,,,,22695,2019_Oct_07_0952,Mmi_3levels,3.1.5,59.960015735980285,
,,,2,0,6.9,,,,,,,,,0,1,1,1,0,0,0,11,,,,,,,,,,,,,,,,,,,,,,,,,,,,,,,,,,,,,,,,,,,,,,,,,425.7956809057796,None,0.69,5.051056814612821,428.81357478979044,None,4,2.0177594902634155,428.81357478979044,None,430.8476691968972,None,False,True,False,0.69,0.69,0.69,-10.35,6.9,-3.4499999999999993,1.7250000000000005,certain,certain,1.7250000000000005,137.125,433.8822352619609,None,433.8822352619609,None,433.8822352619609,None,433.8822352619609,None,433.8822352619609,None,433.8822352619609,None,433.8822352619609,None,3,2.1178021763043944,433.8822352619609,None,436.03302373713814,None,436.03302373713814,None,436.03302373713814,None,436.03302373713814,None,436.03302373713814,None,436.03302373713814,None,436.03302373713814,None,440.03454686596524,None,440.03454686596524,None,440.03454686596524,None,440.03454686596524,None,440.03454686596524,None,440.03454686596524,None,440.03454686596524,None,441.0182833058061,None,,,,,,,,,,,,419.0764527481224,None,4,6.702699009882053,419.0764527481224,None,,,,,,,,,,,,,22695,2019_Oct_07_0952,Mmi_3levels,3.1.5,59.960015735980285,
,,,2,0,4.3,,,,,,,,,0,1,1,1,0,1,1,2,,,,,,,,,,,,,,,,,,,,,,,,,,,,,,,,,,,,,,,,,,,,,,,,,,,,,,,,,,,,,False,False,True,0.69,0.69,1.38,2.5300000000000002,1.075,-1.4550000000000003,-0.19000000000000017,gamble,win,1.075,138.2,443.03571321148775,None,443.03571321148775,None,443.03571321148775,None,443.03571321148775,None,443.03571321148775,None,443.03571321148775,None,443.03571321148775,None,1,1.36765834299149,443.03571321148775,None,444.4362528982747,None,444.4362528982747,None,444.4362528982747,None,444.4362528982747,None,444.4362528982747,None,444.4362528982747,None,444.4362528982747,None,448.43782242492307,None,448.43782242492307,None,448.43782242492307,None,448.43782242492307,None,448.43782242492307,None,448.43782242492307,None,448.43782242492307,None,457.92486783018103,None,449.4215217464953,None,450.4219146881369,None,0.8,7.502786109835142,453.4231351111375,None,None,453.4231351111375,None,,,,,,,,,,,,,,,,,,,22695,2019_Oct_07_0952,Mmi_3levels,3.1.5,59.960015735980285,
,,,2,0,7.9,,,,,,,,,0,1,1,1,0,2,2,4,,,,,,,,,,,,,,,,,,,,,,,,,,,,,,,,,,,,,,,,,,,,,,,,,,,,,,,,,,,,,False,True,True,0.8,0.8,2.1799999999999997,-13.38,7.9,-5.48,1.21,gamble,lose,-5.48,132.72,460.0089960597106,None,460.0089960597106,None,460.0089960597106,None,460.0089960597106,None,460.0089960597106,None,460.0089960597106,None,460.0089960597106,None,1,1.8344624539313372,460.0089960597106,None,461.8764070542529,None,461.8764070542529,None,461.8764070542529,None,461.8764070542529,None,461.8764070542529,None,461.8764070542529,None,461.8764070542529,None,465.8779298631125,None,465.8779298631125,None,465.8779298631125,None,465.8779298631125,None,465.8779298631125,None,465.8779298631125,None,465.8779298631125,None,466.86164102412295,None,,,,,,,,,,,,,,,,,,,,,,,,,,,,,,22695,2019_Oct_07_0952,Mmi_3levels,3.1.5,59.960015735980285,
,,,2,0,2.5,,,,,,,,,0,1,1,1,0,3,3,14,,,,,,,,,,,,,,,,,,,,,,,,,,,,,,,,,,,,,,,,,,,,,,,,,,,,,,,,,,,,,False,False,False,0.8,0.8,2.9799999999999995,3.048333333333334,0.625,-2.423333333333334,-0.8991666666666669,certain,certain,-0.8991666666666669,131.82083333333333,468.879100688413,None,468.879100688413,None,468.879100688413,None,468.879100688413,None,468.879100688413,None,468.879100688413,None,468.879100688413,None,3,2.8849064971727785,468.879100688413,None,471.7969211678428,None,471.7969211678428,None,471.7969211678428,None,471.7969211678428,None,471.7969211678428,None,471.7969211678428,None,471.7969211678428,None,475.7984311773034,None,475.7984311773034,None,475.7984311773034,None,475.7984311773034,None,475.7984311773034,None,475.7984311773034,None,475.7984311773034,None,485.28547114279354,None,476.7821724168898,None,477.78256823841366,None,0.73,7.502822908107191,480.78369202589965,None,None,480.78369202589965,None,,,,,,,,,,,,,,,,,,,22695,2019_Oct_07_0952,Mmi_3levels,3.1.5,59.960015735980285,
,,,2,0,11.7,,,,,,,,,0,1,1,1,0,4,4,18,,,,,,,,,,,,,,,,,,,,,,,,,,,,,,,,,,,,,,,,,,,,,,,,,,,,,,,,,,,,,False,True,False,0.73,0.73,3.7099999999999995,-13.929999999999998,11.7,-2.2299999999999986,-1.1149999999999993,gamble,lose,-2.2299999999999986,129.59083333333334,487.3028815293801,None,487.3028815293801,None,487.3028815293801,None,487.3028815293801,None,487.3028815293801,None,487.3028815293801,None,487.3028815293801,None,1,1.517741251125699,487.3028815293801,None,488.8535434824589,None,488.8535434824589,None,488.8535434824589,None,488.8535434824589,None,488.8535434824589,None,488.8535434824589,None,488.8535434824589,None,492.8550819705706,None,492.8550819705706,None,492.8550819705706,None,492.8550819705706,None,492.8550819705706,None,492.8550819705706,None,492.8550819705706,None,493.8387880118098,None,,,,,,,,,,,,,,,,,,,,,,,,,,,,,,22695,2019_Oct_07_0952,Mmi_3levels,3.1.5,59.960015735980285,
,,,2,0,7.7,,,,,,,,,0,1,1,1,0,5,5,6,,,,,,,,,,,,,,,,,,,,,,,,,,,,,,,,,,,,,,,,,,,,,,,,,,,,,,,,,,,,,False,True,False,0.73,0.73,4.4399999999999995,-14.659999999999998,7.7,-6.959999999999998,0.370000000000001,certain,certain,0.370000000000001,129.96083333333334,495.8562319968478,None,495.8562319968478,None,495.8562319968478,None,495.8562319968478,None,495.8562319968478,None,495.8562319968478,None,495.8562319968478,None,3,1.434449142543599,495.8562319968478,None,497.32349144647014,None,497.32349144647014,None,497.32349144647014,None,497.32349144647014,None,497.32349144647014,None,497.32349144647014,None,497.32349144647014,None,501.3250046557805,None,501.3250046557805,None,501.3250046557805,None,501.3250046557805,None,501.3250046557805,None,501.3250046557805,None,501.3250046557805,None,502.3086594994238,None,,,,,,,,,,,,,,,,,,,,,,,,,,,,,,22695,2019_Oct_07_0952,Mmi_3levels,3.1.5,59.960015735980285,
,,,2,0,0.5,,,,,,,,,0,1,1,1,0,6,6,24,,,,,,,,,,,,,,,,,,,,,,,,,,,,,,,,,,,,,,,,,,,,,,,,,,,,,,,,,,,,,False,True,True,0.73,0.73,5.17,-15.389999999999999,0.5,-14.889999999999999,-7.194999999999999,gamble,lose,-14.889999999999999,115.07083333333334,504.32623915810836,None,504.32623915810836,None,504.32623915810836,None,504.32623915810836,None,504.32623915810836,None,504.32623915810836,None,504.32623915810836,None,1,2.26790332357632,504.32623915810836,None,506.6271233407897,None,506.6271233407897,None,506.6271233407897,None,506.6271233407897,None,506.6271233407897,None,506.6271233407897,None,506.6271233407897,None,510.62862503062934,None,510.62862503062934,None,510.62862503062934,None,510.62862503062934,None,510.62862503062934,None,510.62862503062934,None,510.62862503062934,None,520.1156483569066,None,511.6123521909176,None,512.6127435326343,None,0.43,7.5027902696456295,515.6138772396662,None,None,515.6138772396662,None,,,,,,,,,,,,,,,,,,,22695,2019_Oct_07_0952,Mmi_3levels,3.1.5,59.960015735980285,
,,,2,0,-0.9,,,,,,,,,0,1,1,1,0,7,7,3,,,,,,,,,,,,,,,,,,,,,,,,,,,,,,,,,,,,,,,,,,,,,,,,,,,,,,,,,,,,,False,True,True,0.43,0.43,5.6,-11.62,-0.9,-12.52,-6.71,gamble,lose,-12.52,102.55083333333334,522.1330609833822,None,522.1330609833822,None,522.1330609833822,None,522.1330609833822,None,522.1330609833822,None,522.1330609833822,None,522.1330609833822,None,1,2.3179531452187803,522.1330609833822,None,524.4839921078819,None,524.4839921078819,None,524.4839921078819,None,524.4839921078819,None,524.4839921078819,None,524.4839921078819,None,524.4839921078819,None,528.4855939530535,None,528.4855939530535,None,528.4855939530535,None,528.4855939530535,None,528.4855939530535,None,528.4855939530535,None,528.4855939530535,None,529.4692612760991,None,,,,,,,,,,,,,,,,,,,,,,,,,,,,,,22695,2019_Oct_07_0952,Mmi_3levels,3.1.5,59.960015735980285,
,,,2,0,0.1,,,,,,,,,0,1,1,1,0,8,8,13,,,,,,,,,,,,,,,,,,,,,,,,,,,,,,,,,,,,,,,,,,,,,,,,,,,,,,,,,,,,,False,True,True,0.43,0.43,6.029999999999999,-12.049999999999999,0.1,-11.95,-5.925,certain,certain,-5.925,96.62583333333335,531.4867228603107,None,531.4867228603107,None,531.4867228603107,None,531.4867228603107,None,531.4867228603107,None,531.4867228603107,None,531.4867228603107,None,3,2.451317474449752,531.4867228603107,None,533.9710291935189,None,533.9710291935189,None,533.9710291935189,None,533.9710291935189,None,533.9710291935189,None,533.9710291935189,None,533.9710291935189,None,537.9725744013267,None,537.9725744013267,None,537.9725744013267,None,537.9725744013267,None,537.9725744013267,None,537.9725744013267,None,537.9725744013267,None,547.4595887680189,None,538.9563169208704,None,539.9567434609344,None,0.31,7.502815548446961,542.9578989269503,None,None,542.9578989269503,None,,,,,,,,,,,,,,,,,,,22695,2019_Oct_07_0952,Mmi_3levels,3.1.5,59.960015735980285,
,,,2,0,2.1,,,,,,,,,0,1,1,1,0,9,9,10,,,,,,,,,,,,,,,,,,,,,,,,,,,,,,,,,,,,,,,,,,,,,,,,,,,,,,,,,,,,,False,True,False,0.31,0.31,6.339999999999999,-10.68,2.1,-8.58,-3.24,gamble,lose,-8.58,88.04583333333335,549.4770583518257,None,549.4770583518257,None,549.4770583518257,None,549.4770583518257,None,549.4770583518257,None,549.4770583518257,None,549.4770583518257,None,1,2.3179576249967795,549.4770583518257,None,551.8279472383147,None,551.8279472383147,None,551.8279472383147,None,551.8279472383147,None,551.8279472383147,None,551.8279472383147,None,551.8279472383147,None,555.8295340441691,None,555.8295340441691,None,555.8295340441691,None,555.8295340441691,None,555.8295340441691,None,555.8295340441691,None,555.8295340441691,None,556.8132848833338,None,,,,,,,,,,,,,,,,,,,,,,,,,,,,,,22695,2019_Oct_07_0952,Mmi_3levels,3.1.5,59.960015735980285,
,,,2,0,12.7,,,,,,,,,0,1,1,1,0,10,10,15,,,,,,,,,,,,,,,,,,,,,,,,,,,,,,,,,,,,,,,,,,,,,,,,,,,,,,,,,,,,,False,False,False,0.31,0.31,6.649999999999999,1.6391666666666667,3.175,1.5358333333333332,0.7679166666666666,gamble,win,3.175,91.22083333333335,558.830689510185,None,558.830689510185,None,558.830689510185,None,558.830689510185,None,558.830689510185,None,558.830689510185,None,558.830689510185,None,1,1.1342068498488516,558.830689510185,None,559.9978177019511,None,559.9978177019511,None,559.9978177019511,None,559.9978177019511,None,559.9978177019511,None,559.9978177019511,None,559.9978177019511,None,563.999386908632,None,563.999386908632,None,563.999386908632,None,563.999386908632,None,563.999386908632,None,563.999386908632,None,563.999386908632,None,564.9831095891132,None,,,,,,,,,,,,,,,,,,,,,,,,,,,,,,22695,2019_Oct_07_0952,Mmi_3levels,3.1.5,59.960015735980285,
,,,2,0,3.3,,,,,,,,,0,1,1,1,0,11,11,23,,,,,,,,,,,,,,,,,,,,,,,,,,,,,,,,,,,,,,,,,,,,,,,,,,,,,,,,,,,,,False,True,False,0.31,0.31,6.959999999999998,-11.299999999999997,3.3,-7.999999999999997,-2.3499999999999988,gamble,lose,-7.999999999999997,83.22083333333335,567.000512296072,None,567.000512296072,None,567.000512296072,None,567.000512296072,None,567.000512296072,None,567.000512296072,None,567.000512296072,None,1,1.9511722012248356,567.000512296072,None,568.9846842355619,None,568.9846842355619,None,568.9846842355619,None,568.9846842355619,None,568.9846842355619,None,568.9846842355619,None,568.9846842355619,None,572.9862064044282,None,572.9862064044282,None,572.9862064044282,None,572.9862064044282,None,572.9862064044282,None,572.9862064044282,None,572.9862064044282,None,582.4731734133384,None,573.9699086058827,None,574.9703124270018,None,0.32,7.502534601604566,577.9714058159152,None,None,577.9714058159152,None,,,,,,,,,,,,,,,,,,,22695,2019_Oct_07_0952,Mmi_3levels,3.1.5,59.960015735980285,
,,,2,0,2.9,,,,,,,,,0,1,1,1,0,12,12,20,,,,,,,,,,,,,,,,,,,,,,,,,,,,,,,,,,,,,,,,,,,,,,,,,,,,,,,,,,,,,False,True,True,0.32,0.32,7.2799999999999985,-11.759999999999998,2.9,-8.859999999999998,-2.9799999999999986,gamble,lose,-8.859999999999998,74.36083333333335,584.4906724357861,None,584.4906724357861,None,584.4906724357861,None,584.4906724357861,None,584.4906724357861,None,584.4906724357861,None,584.4906724357861,None,None,,584.4906724357861,None,587.4918055028538,None,587.4918055028538,None,587.4918055028538,None,587.4918055028538,None,587.4918055028538,None,587.4918055028538,None,587.4918055028538,None,591.4934009482968,None,591.4934009482968,None,591.4934009482968,None,591.4934009482968,None,591.4934009482968,None,591.4934009482968,None,591.4934009482968,None,592.4770993099082,None,,,,,,,,,,,,,,,,,,,,,,,,,,,,,,22695,2019_Oct_07_0952,Mmi_3levels,3.1.5,59.960015735980285,
,,,2,0,12.5,,,,,,,,,0,1,1,1,0,13,13,7,,,,,,,,,,,,,,,,,,,,,,,,,,,,,,,,,,,,,,,,,,,,,,,,,,,,,,,,,,,,,False,True,False,0.32,0.32,7.599999999999999,-12.079999999999998,12.5,0.4200000000000017,0.21000000000000085,gamble,lose,0.4200000000000017,74.78083333333335,594.4945288956224,None,594.4945288956224,None,594.4945288956224,None,594.4945288956224,None,594.4945288956224,None,594.4945288956224,None,594.4945288956224,None,1,0.9507507809321396,594.4945288956224,None,595.4782221374626,None,595.4782221374626,None,595.4782221374626,None,595.4782221374626,None,595.4782221374626,None,595.4782221374626,None,595.4782221374626,None,599.4798508613603,None,599.4798508613603,None,599.4798508613603,None,599.4798508613603,None,599.4798508613603,None,599.4798508613603,None,599.4798508613603,None,608.9668383492972,None,600.463496425451,None,601.4639367248747,None,0.35,7.502866746071959,604.4650889910408,None,None,604.4650889910408,None,,,,,,,,,,,,,,,,,,,22695,2019_Oct_07_0952,Mmi_3levels,3.1.5,59.960015735980285,
,,,2,0,13.3,,,,,,,,,0,1,1,1,0,14,14,0,,,,,,,,,,,,,,,,,,,,,,,,,,,,,,,,,,,,,,,,,,,,,,,,,,,,,,,,,,,,,False,False,False,0.35,0.35,7.949999999999998,1.8874999999999997,3.325,1.4375000000000004,0.7187500000000002,gamble,win,3.325,78.10583333333335,610.9842416962201,None,610.9842416962201,None,610.9842416962201,None,610.9842416962201,None,610.9842416962201,None,610.9842416962201,None,610.9842416962201,None,1,1.2342309767263941,610.9842416962201,None,612.2514170538052,None,612.2514170538052,None,612.2514170538052,None,612.2514170538052,None,612.2514170538052,None,612.2514170538052,None,612.2514170538052,None,616.2529478622891,None,616.2529478622891,None,616.2529478622891,None,616.2529478622891,None,616.2529478622891,None,616.2529478622891,None,616.2529478622891,None,617.2366871819831,None,,,,,,,,,,,,,,,,,,,,,,,,,,,,,,22695,2019_Oct_07_0952,Mmi_3levels,3.1.5,59.960015735980285,
,,,2,0,5.1,,,,,,,,,0,1,1,1,0,15,15,9,,,,,,,,,,,,,,,,,,,,,,,,,,,,,,,,,,,,,,,,,,,,,,,,,,,,,,,,,,,,,False,True,True,0.35,0.35,8.299999999999999,-13.2,5.1,-8.1,-1.5,gamble,lose,-8.1,70.00583333333336,619.2541679652641,None,619.2541679652641,None,619.2541679652641,None,619.2541679652641,None,619.2541679652641,None,619.2541679652641,None,619.2541679652641,None,1,1.7343173726985697,619.2541679652641,None,621.0215493932192,None,621.0215493932192,None,621.0215493932192,None,621.0215493932192,None,621.0215493932192,None,621.0215493932192,None,621.0215493932192,None,625.0230382836598,None,625.0230382836598,None,625.0230382836598,None,625.0230382836598,None,625.0230382836598,None,625.0230382836598,None,625.0230382836598,None,634.5100369710708,None,626.0067513645627,None,627.0071868642408,None,0.33,7.5026481962704565,630.0083304907894,None,None,630.0083304907894,None,,,,,,,,,,,,,,,,,,,22695,2019_Oct_07_0952,Mmi_3levels,3.1.5,59.960015735980285,
,,,2,0,4.5,,,,,,,,,0,1,1,1,0,16,16,21,,,,,,,,,,,,,,,,,,,,,,,,,,,,,,,,,,,,,,,,,,,,,,,,,,,,,,,,,,,,,False,False,False,0.33,0.33,8.629999999999999,1.8741666666666665,1.125,-0.7491666666666665,0.18791666666666673,certain,certain,0.18791666666666673,70.19375000000002,636.5275478329568,None,636.5275478329568,None,636.5275478329568,None,636.5275478329568,None,636.5275478329568,None,636.5275478329568,None,636.5275478329568,None,3,2.584516371396603,636.5275478329568,None,639.1452357745729,None,639.1452357745729,None,639.1452357745729,None,639.1452357745729,None,639.1452357745729,None,639.1452357745729,None,639.1452357745729,None,643.1467637032038,None,643.1467637032038,None,643.1467637032038,None,643.1467637032038,None,643.1467637032038,None,643.1467637032038,None,643.1467637032038,None,644.1305215820321,None,,,,,,,,,,,,,,,,,,,,,,,,,,,,,,22695,2019_Oct_07_0952,Mmi_3levels,3.1.5,59.960015735980285,
,,,2,0,-0.5,,,,,,,,,0,1,1,1,0,17,17,8,,,,,,,,,,,,,,,,,,,,,,,,,,,,,,,,,,,,,,,,,,,,,,,,,,,,,,,,,,,,,False,True,True,0.33,0.33,8.959999999999999,-13.579999999999998,-0.5,-14.079999999999998,-7.289999999999999,gamble,lose,-14.079999999999998,56.113750000000024,646.1478622118884,None,646.1478622118884,None,646.1478622118884,None,646.1478622118884,None,646.1478622118884,None,646.1478622118884,None,646.1478622118884,None,None,,646.1478622118884,None,649.1491114335076,None,649.1491114335076,None,649.1491114335076,None,649.1491114335076,None,649.1491114335076,None,649.1491114335076,None,649.1491114335076,None,653.1506710406393,None,653.1506710406393,None,653.1506710406393,None,653.1506710406393,None,653.1506710406393,None,653.1506710406393,None,653.1506710406393,None,654.134404600627,None,,,,,,,,,,,,,,,,,,,,,,,,,,,,,,22695,2019_Oct_07_0952,Mmi_3levels,3.1.5,59.960015735980285,
,,,2,0,5.5,,,,,,,,,0,1,1,1,0,18,18,25,,,,,,,,,,,,,,,,,,,,,,,,,,,,,,,,,,,,,,,,,,,,,,,,,,,,,,,,,,,,,False,False,True,0.33,0.33,9.29,1.9291666666666667,1.375,-0.5541666666666667,0.41041666666666665,certain,certain,0.41041666666666665,56.524166666666694,656.1518402660149,None,656.1518402660149,None,656.1518402660149,None,656.1518402660149,None,656.1518402660149,None,656.1518402660149,None,656.1518402660149,None,3,1.534324796346482,656.1518402660149,None,657.7191068833345,None,657.7191068833345,None,657.7191068833345,None,657.7191068833345,None,657.7191068833345,None,657.7191068833345,None,657.7191068833345,None,661.7039373520529,None,661.7039373520529,None,661.7039373520529,None,661.7039373520529,None,661.7039373520529,None,661.7039373520529,None,661.7039373520529,None,671.2076744574588,None,662.7043203741487,None,663.7047606735723,None,0.22,7.502866426104447,666.7058735815808,None,None,666.7058735815808,None,,,,,,,,,,,,,,,,,,,22695,2019_Oct_07_0952,Mmi_3levels,3.1.5,59.960015735980285,
,,,2,0,-1.1,,,,,,,,,0,1,1,1,0,19,19,5,,,,,,,,,,,,,,,,,,,,,,,,,,,,,,,,,,,,,,,,,,,,,,,,,,,,,,,,,,,,,False,True,True,0.22,0.22,9.51,-12.59,-1.1,-13.69,-7.395,certain,certain,-7.395,49.12916666666669,673.2250771643885,None,673.2250771643885,None,673.2250771643885,None,673.2250771643885,None,673.2250771643885,None,673.2250771643885,None,673.2250771643885,None,3,2.2679705204209313,673.2250771643885,None,675.5259731865372,None,675.5259731865372,None,675.5259731865372,None,675.5259731865372,None,675.5259731865372,None,675.5259731865372,None,675.5259731865372,None,679.527580791415,None,679.527580791415,None,679.527580791415,None,679.527580791415,None,679.527580791415,None,679.527580791415,None,679.527580791415,None,680.5112461945682,None,,,,,,,,,,,,,,,,,,,,,,,,,,,,,,22695,2019_Oct_07_0952,Mmi_3levels,3.1.5,59.960015735980285,
,,,2,0,2.7,,,,,,,,,0,1,1,1,0,20,20,1,,,,,,,,,,,,,,,,,,,,,,,,,,,,,,,,,,,,,,,,,,,,,,,,,,,,,,,,,,,,,False,True,False,0.22,0.22,9.73,-12.81,2.7,-10.11,-3.7049999999999996,gamble,lose,-10.11,39.01916666666669,682.5287554565584,None,682.5287554565584,None,682.5287554565584,None,682.5287554565584,None,682.5287554565584,None,682.5287554565584,None,682.5287554565584,None,1,2.7347666316782124,682.5287554565584,None,685.2964779885369,None,685.2964779885369,None,685.2964779885369,None,685.2964779885369,None,685.2964779885369,None,685.2964779885369,None,685.2964779885369,None,689.2980308760016,None,689.2980308760016,None,689.2980308760016,None,689.2980308760016,None,689.2980308760016,None,689.2980308760016,None,689.2980308760016,None,698.7850334032264,None,690.2817353173159,None,691.2820917806821,None,0.32,7.502749951527221,694.2832670857606,None,None,694.2832670857606,None,,,,,,,,,,,,,,,,,,,22695,2019_Oct_07_0952,Mmi_3levels,3.1.5,59.960015735980285,
,,,2,0,0.3,,,,,,,,,0,1,1,1,0,21,21,12,,,,,,,,,,,,,,,,,,,,,,,,,,,,,,,,,,,,,,,,,,,,,,,,,,,,,,,,,,,,,False,True,False,0.32,0.32,10.05,-14.530000000000001,0.3,-14.23,-6.965,certain,certain,-6.965,32.05416666666669,700.8024405899632,None,700.8024405899632,None,700.8024405899632,None,700.8024405899632,None,700.8024405899632,None,700.8024405899632,None,700.8024405899632,None,3,1.5010213922942057,700.8024405899632,None,702.3363791643642,None,702.3363791643642,None,702.3363791643642,None,702.3363791643642,None,702.3363791643642,None,702.3363791643642,None,702.3363791643642,None,706.3379781296535,None,706.3379781296535,None,706.3379781296535,None,706.3379781296535,None,706.3379781296535,None,706.3379781296535,None,706.3379781296535,None,707.3216966503242,None,,,,,,,,,,,,,,,,,,,,,,,,,,,,,,22695,2019_Oct_07_0952,Mmi_3levels,3.1.5,59.960015735980285,
,,,2,0,10.7,,,,,,,,,0,1,1,1,0,22,22,22,,,,,,,,,,,,,,,,,,,,,,,,,,,,,,,,,,,,,,,,,,,,,,,,,,,,,,,,,,,,,False,True,False,0.32,0.32,10.370000000000001,-14.850000000000001,10.7,-4.150000000000002,-2.075000000000001,gamble,lose,-4.150000000000002,27.904166666666686,709.3391358355875,None,709.3391358355875,None,709.3391358355875,None,709.3391358355875,None,709.3391358355875,None,709.3391358355875,None,709.3391358355875,None,1,1.9844989642151631,709.3391358355875,None,711.3566060593585,None,711.3566060593585,None,711.3566060593585,None,711.3566060593585,None,711.3566060593585,None,711.3566060593585,None,711.3566060593585,None,715.3580853502499,None,715.3580853502499,None,715.3580853502499,None,715.3580853502499,None,715.3580853502499,None,715.3580853502499,None,715.3580853502499,None,724.845165953855,None,716.3418813073076,None,717.3422448103083,None,0.29,7.502991540211951,720.3433929166931,None,None,720.3433929166931,None,,,,,,,,,,,,,,,,,,,22695,2019_Oct_07_0952,Mmi_3levels,3.1.5,59.960015735980285,
,,,2,0,10.1,,,,,,,,,0,1,1,1,0,23,23,26,,,,,,,,,,,,,,,,,,,,,,,,,,,,,,,,,,,,,,,,,,,,,,,,,,,,,,,,,,,,,False,True,True,0.29,0.29,10.66,-14.719999999999999,10.1,-4.619999999999999,-2.3099999999999996,gamble,lose,-4.619999999999999,23.284166666666685,726.8625945795793,None,726.8625945795793,None,726.8625945795793,None,726.8625945795793,None,726.8625945795793,None,726.8625945795793,None,726.8625945795793,None,None,,726.8625945795793,None,729.8637583652162,None,729.8637583652162,None,729.8637583652162,None,729.8637583652162,None,729.8637583652162,None,729.8637583652162,None,729.8637583652162,None,733.8653496508778,None,733.8653496508778,None,733.8653496508778,None,733.8653496508778,None,733.8653496508778,None,733.8653496508778,None,733.8653496508778,None,734.8490665715944,None,,,,,,,,,,,,,,,,,,,,,,,,,,,,,,22695,2019_Oct_07_0952,Mmi_3levels,3.1.5,59.960015735980285,
,,,2,0,6.1,,,,,,,,,0,1,1,1,0,24,24,17,,,,,,,,,,,,,,,,,,,,,,,,,,,,,,,,,,,,,,,,,,,,,,,,,,,,,,,,,,,,,False,True,True,0.29,0.29,10.95,-15.009999999999998,6.1,-8.909999999999998,-1.4049999999999994,certain,certain,-1.4049999999999994,21.879166666666684,736.8664987171651,None,736.8664987171651,None,736.8664987171651,None,736.8664987171651,None,736.8664987171651,None,736.8664987171651,None,736.8664987171651,None,3,1.3507724119117483,736.8664987171651,None,738.2502529481717,None,738.2502529481717,None,738.2502529481717,None,738.2502529481717,None,738.2502529481717,None,738.2502529481717,None,738.2502529481717,None,742.2518691926671,None,742.2518691926671,None,742.2518691926671,None,742.2518691926671,None,742.2518691926671,None,742.2518691926671,None,742.2518691926671,None,743.2356104322826,None,,,,,,,,,,,,,,,,,,,,,,,,,,,,,,22695,2019_Oct_07_0952,Mmi_3levels,3.1.5,59.960015735980285,
,,,2,0,8.7,,,,,,,,,0,1,1,1,0,25,25,16,,,,,,,,,,,,,,,,,,,,,,,,,,,,,,,,,,,,,,,,,,,,,,,,,,,,,,,,,,,,,False,True,False,0.29,0.29,11.239999999999998,-15.299999999999997,8.7,-6.599999999999998,1.0500000000000007,gamble,lose,-6.599999999999998,15.279166666666686,745.2530480175919,None,745.2530480175919,None,745.2530480175919,None,745.2530480175919,None,745.2530480175919,None,745.2530480175919,None,745.2530480175919,None,1,1.4007617564057,745.2530480175919,None,746.6869999033515,None,746.6869999033515,None,746.6869999033515,None,746.6869999033515,None,746.6869999033515,None,746.6869999033515,None,746.6869999033515,None,750.6885508708947,None,750.6885508708947,None,750.6885508708947,None,750.6885508708947,None,750.6885508708947,None,750.6885508708947,None,750.6885508708947,None,760.1755620377371,None,751.6722031546815,None,752.672649533808,None,0.1,7.50275443130522,755.6737442026788,None,None,755.6737442026788,None,,,,,,,,,,,,,,,,,,,22695,2019_Oct_07_0952,Mmi_3levels,3.1.5,59.960015735980285,
,,,2,0,7.3,,,,,,,,,0,1,1,1,0,26,26,19,,,,,,,,,,,,,,,,,,,,,,,,,,,,,,,,,,,,,,,,,,,,,,,,,,,,,,,,,,,,,False,True,True,0.1,0.1,11.339999999999998,-12.739999999999998,7.3,-5.439999999999999,0.9300000000000006,gamble,lose,-5.439999999999999,9.839166666666689,762.1929241065809,None,762.1929241065809,None,762.1929241065809,None,762.1929241065809,None,762.1929241065809,None,762.1929241065809,None,762.1929241065809,None,1,1.9344853008224163,762.1929241065809,None,764.1604216250998,None,764.1604216250998,None,764.1604216250998,None,764.1604216250998,None,764.1604216250998,None,764.1604216250998,None,764.1604216250998,None,768.1619361143385,None,768.1619361143385,None,768.1619361143385,None,768.1619361143385,None,768.1619361143385,None,768.1619361143385,None,768.1619361143385,None,769.1456533550809,None,,,,,,,,,,,,,,,,,,,,,,,,,,,,,,22695,2019_Oct_07_0952,Mmi_3levels,3.1.5,59.960015735980285,
,,,3,1,6.1,,,,,,,,,0,2,2,2,0,0,0,13,,,,,,,,,,,,,,,,,,,,,,,,,,,,,,,,,,,,,,,,,,,,,,,,,775.9983159186668,None,0.13,6.401667314086808,779.0161874037294,None,4,3.368305032781791,779.0161874037294,None,782.400754076778,None,True,True,False,0.13,-0.87,-0.87,13.049999999999999,6.1,-6.949999999999999,-0.4249999999999998,gamble,win,6.1,15.939166666666688,785.4352961429686,None,785.4352961429686,None,785.4352961429686,None,785.4352961429686,None,785.4352961429686,None,785.4352961429686,None,785.4352961429686,None,1,1.367647463514004,785.4352961429686,None,786.835887347348,None,786.835887347348,None,786.835887347348,None,786.835887347348,None,786.835887347348,None,786.835887347348,None,786.835887347348,None,790.837450474326,None,790.837450474326,None,790.837450474326,None,790.837450474326,None,790.837450474326,None,790.837450474326,None,790.837450474326,None,800.3244693207962,None,791.8211677150393,None,792.821539537661,None,0.36,7.5028110686689615,795.8226943637128,None,None,795.8226943637128,None,771.1464507578057,None,4,4.835553602926666,771.1464507578057,None,,,,,,,,,,,,,22695,2019_Oct_07_0952,Mmi_3levels,3.1.5,59.960015735980285,
,,,3,1,10.9,,,,,,,,,0,2,2,2,0,1,1,4,,,,,,,,,,,,,,,,,,,,,,,,,,,,,,,,,,,,,,,,,,,,,,,,,,,,,,,,,,,,,True,True,False,0.36,-0.64,-1.51,10.47,10.9,0.4299999999999997,0.21499999999999986,gamble,win,10.9,26.83916666666669,802.3419017863343,None,802.3419017863343,None,802.3419017863343,None,802.3419017863343,None,802.3419017863343,None,802.3419017863343,None,802.3419017863343,None,1,0.9840509851346724,802.3419017863343,None,803.358928510861,None,803.358928510861,None,803.358928510861,None,803.358928510861,None,803.358928510861,None,803.358928510861,None,803.358928510861,None,807.3604695588583,None,807.3604695588583,None,807.3604695588583,None,807.3604695588583,None,807.3604695588583,None,807.3604695588583,None,807.3604695588583,None,808.3441874395648,None,,,,,,,,,,,,,,,,,,,,,,,,,,,,,,22695,2019_Oct_07_0952,Mmi_3levels,3.1.5,59.960015735980285,
,,,3,1,2.7,,,,,,,,,0,2,2,2,0,2,2,2,,,,,,,,,,,,,,,,,,,,,,,,,,,,,,,,,,,,,,,,,,,,,,,,,,,,,,,,,,,,,True,False,False,0.36,-0.64,-2.15,-2.419166666666667,2.7,0.28083333333333327,1.4904166666666667,gamble,lose,0.28083333333333327,27.120000000000022,810.3616787823557,None,810.3616787823557,None,810.3616787823557,None,810.3616787823557,None,810.3616787823557,None,810.3616787823557,None,810.3616787823557,None,1,1.3342567035288084,810.3616787823557,None,811.7289061055053,None,811.7289061055053,None,811.7289061055053,None,811.7289061055053,None,811.7289061055053,None,811.7289061055053,None,811.7289061055053,None,815.7304068353842,None,815.7304068353842,None,815.7304068353842,None,815.7304068353842,None,815.7304068353842,None,815.7304068353842,None,815.7304068353842,None,816.7140418399649,None,,,,,,,,,,,,,,,,,,,,,,,,,,,,,,22695,2019_Oct_07_0952,Mmi_3levels,3.1.5,59.960015735980285,
,,,3,1,3.9,,,,,,,,,0,2,2,2,0,3,3,17,,,,,,,,,,,,,,,,,,,,,,,,,,,,,,,,,,,,,,,,,,,,,,,,,,,,,,,,,,,,,True,True,True,0.36,-0.64,-2.79,11.75,3.9,-7.85,-1.9749999999999999,gamble,win,3.9,31.02000000000002,818.7315411824093,None,818.7315411824093,None,818.7315411824093,None,818.7315411824093,None,818.7315411824093,None,818.7315411824093,None,818.7315411824093,None,1,2.0178542058565654,818.7315411824093,None,820.7824108057539,None,820.7824108057539,None,820.7824108057539,None,820.7824108057539,None,820.7824108057539,None,820.7824108057539,None,820.7824108057539,None,824.7839291348355,None,824.7839291348355,None,824.7839291348355,None,824.7839291348355,None,824.7839291348355,None,824.7839291348355,None,824.7839291348355,None,834.270972620172,None,825.7676210967475,None,826.7681132337602,None,0.48,7.502862906258088,829.7692178221478,None,None,829.7692178221478,None,,,,,,,,,,,,,,,,,,,22695,2019_Oct_07_0952,Mmi_3levels,3.1.5,59.960015735980285,
,,,3,1,2.1,,,,,,,,,0,2,2,2,0,4,4,20,,,,,,,,,,,,,,,,,,,,,,,,,,,,,,,,,,,,,,,,,,,,,,,,,,,,,,,,,,,,,True,True,True,0.48,-0.52,-3.31,10.59,2.1,-8.49,-3.1950000000000003,certain,certain,-3.1950000000000003,27.82500000000002,836.2883830067585,None,836.2883830067585,None,836.2883830067585,None,836.2883830067585,None,836.2883830067585,None,836.2883830067585,None,836.2883830067585,None,3,2.5845240510243457,836.2883830067585,None,838.9060613488255,None,838.9060613488255,None,838.9060613488255,None,838.9060613488255,None,838.9060613488255,None,838.9060613488255,None,838.9060613488255,None,842.9076116763754,None,842.9076116763754,None,842.9076116763754,None,842.9076116763754,None,842.9076116763754,None,842.9076116763754,None,842.9076116763754,None,843.8914431517769,None,,,,,,,,,,,,,,,,,,,,,,,,,,,,,,22695,2019_Oct_07_0952,Mmi_3levels,3.1.5,59.960015735980285,
,,,3,1,5.1,,,,,,,,,0,2,2,2,0,5,5,25,,,,,,,,,,,,,,,,,,,,,,,,,,,,,,,,,,,,,,,,,,,,,,,,,,,,,,,,,,,,,True,True,False,0.48,-0.52,-3.83,11.11,5.1,-6.01,-0.45500000000000007,gamble,win,5.1,32.92500000000002,845.9087789818586,None,845.9087789818586,None,845.9087789818586,None,845.9087789818586,None,845.9087789818586,None,845.9087789818586,None,845.9087789818586,None,1,1.4509779702930246,845.9087789818586,None,847.3927144523768,None,847.3927144523768,None,847.3927144523768,None,847.3927144523768,None,847.3927144523768,None,847.3927144523768,None,847.3927144523768,None,851.3942900587572,None,851.3942900587572,None,851.3942900587572,None,851.3942900587572,None,851.3942900587572,None,851.3942900587572,None,851.3942900587572,None,860.8812948259001,None,852.3779417025507,None,853.378398961213,None,0.5,7.50280722885509,856.3795013097115,None,None,856.3795013097115,None,,,,,,,,,,,,,,,,,,,22695,2019_Oct_07_0952,Mmi_3levels,3.1.5,59.960015735980285,
,,,3,1,9.1,,,,,,,,,0,2,2,2,0,6,6,0,,,,,,,,,,,,,,,,,,,,,,,,,,,,,,,,,,,,,,,,,,,,,,,,,,,,,,,,,,,,,True,True,True,0.5,-0.5,-4.33,11.33,9.1,-2.2300000000000004,-1.1150000000000002,gamble,win,9.1,42.02500000000002,862.8987052124867,None,862.8987052124867,None,862.8987052124867,None,862.8987052124867,None,862.8987052124867,None,862.8987052124867,None,862.8987052124867,None,1,1.2843019174179062,862.8987052124867,None,864.2158692745725,None,864.2158692745725,None,864.2158692745725,None,864.2158692745725,None,864.2158692745725,None,864.2158692745725,None,864.2158692745725,None,868.2174330415146,None,868.2174330415146,None,868.2174330415146,None,868.2174330415146,None,868.2174330415146,None,868.2174330415146,None,868.2174330415146,None,869.2011832407152,None,,,,,,,,,,,,,,,,,,,,,,,,,,,,,,22695,2019_Oct_07_0952,Mmi_3levels,3.1.5,59.960015735980285,
,,,3,1,8.9,,,,,,,,,0,2,2,2,0,7,7,21,,,,,,,,,,,,,,,,,,,,,,,,,,,,,,,,,,,,,,,,,,,,,,,,,,,,,,,,,,,,,True,True,False,0.5,-0.5,-4.83,11.83,8.9,-2.9299999999999997,-1.4649999999999999,gamble,win,8.9,50.92500000000002,871.2186755434668,None,871.2186755434668,None,871.2186755434668,None,871.2186755434668,None,871.2186755434668,None,871.2186755434668,None,871.2186755434668,None,1,1.8677437790320255,871.2186755434668,None,873.1193291449454,None,873.1193291449454,None,873.1193291449454,None,873.1193291449454,None,873.1193291449454,None,873.1193291449454,None,873.1193291449454,None,877.1208871521521,None,877.1208871521521,None,877.1208871521521,None,877.1208871521521,None,877.1208871521521,None,877.1208871521521,None,877.1208871521521,None,886.6079799151921,None,878.1046437510522,None,879.1050363726972,None,0.59,7.502804988936987,882.1061390411924,None,None,882.1061390411924,None,,,,,,,,,,,,,,,,,,,22695,2019_Oct_07_0952,Mmi_3levels,3.1.5,59.960015735980285,
,,,3,1,7.7,,,,,,,,,0,2,2,2,0,8,8,3,,,,,,,,,,,,,,,,,,,,,,,,,,,,,,,,,,,,,,,,,,,,,,,,,,,,,,,,,,,,,True,True,True,0.59,-0.41000000000000003,-5.24,10.98,7.7,-3.2800000000000002,-1.6400000000000001,gamble,win,7.7,58.62500000000002,888.6253915817069,None,888.6253915817069,None,888.6253915817069,None,888.6253915817069,None,888.6253915817069,None,888.6253915817069,None,888.6253915817069,None,1,2.884899137512548,888.6253915817069,None,891.543223900575,None,891.543223900575,None,891.543223900575,None,891.543223900575,None,891.543223900575,None,891.543223900575,None,891.543223900575,None,895.5447099111625,None,895.5447099111625,None,895.5447099111625,None,895.5447099111625,None,895.5447099111625,None,895.5447099111625,None,895.5447099111625,None,896.5283663547307,None,,,,,,,,,,,,,,,,,,,,,,,,,,,,,,22695,2019_Oct_07_0952,Mmi_3levels,3.1.5,59.960015735980285,
,,,3,1,7.3,,,,,,,,,0,2,2,2,0,9,9,22,,,,,,,,,,,,,,,,,,,,,,,,,,,,,,,,,,,,,,,,,,,,,,,,,,,,,,,,,,,,,True,True,True,0.59,-0.41000000000000003,-5.65,11.39,7.3,-4.090000000000001,1.6049999999999995,gamble,win,7.3,65.92500000000003,898.5458688969957,None,898.5458688969957,None,898.5458688969957,None,898.5458688969957,None,898.5458688969957,None,898.5458688969957,None,898.5458688969957,None,1,2.2012792362074833,898.5458688969957,None,900.7801113931928,None,900.7801113931928,None,900.7801113931928,None,900.7801113931928,None,900.7801113931928,None,900.7801113931928,None,900.7801113931928,None,904.781681879831,None,904.781681879831,None,904.781681879831,None,904.781681879831,None,904.781681879831,None,904.781681879831,None,904.781681879831,None,905.7653348035528,None,,,,,,,,,,,,,,,,,,,,,,,,,,,,,,22695,2019_Oct_07_0952,Mmi_3levels,3.1.5,59.960015735980285,
,,,3,1,-0.1,,,,,,,,,0,2,2,2,0,10,10,23,,,,,,,,,,,,,,,,,,,,,,,,,,,,,,,,,,,,,,,,,,,,,,,,,,,,,,,,,,,,,True,True,True,0.59,-0.41000000000000003,-6.0600000000000005,11.8,-0.1,-11.9,-6.0,gamble,win,-0.1,65.82500000000003,907.7827855082578,None,907.7827855082578,None,907.7827855082578,None,907.7827855082578,None,907.7827855082578,None,907.7827855082578,None,907.7827855082578,None,1,2.1345425141626038,907.7827855082578,None,909.950355919369,None,909.950355919369,None,909.950355919369,None,909.950355919369,None,909.950355919369,None,909.950355919369,None,909.950355919369,None,913.9518921675917,None,913.9518921675917,None,913.9518921675917,None,913.9518921675917,None,913.9518921675917,None,913.9518921675917,None,913.9518921675917,None,923.4389074942446,None,914.9356084483734,None,915.9359981901653,None,0.6,7.502757631154964,918.937174135237,None,None,918.937174135237,None,,,,,,,,,,,,,,,,,,,22695,2019_Oct_07_0952,Mmi_3levels,3.1.5,59.960015735980285,
,,,3,1,0.3,,,,,,,,,0,2,2,2,0,11,11,16,,,,,,,,,,,,,,,,,,,,,,,,,,,,,,,,,,,,,,,,,,,,,,,,,,,,,,,,,,,,,True,False,True,0.6,-0.4,-6.460000000000001,-1.9383333333333335,0.3,-1.6383333333333334,-0.6691666666666667,certain,certain,-0.6691666666666667,65.15583333333336,925.4563975571073,None,925.4563975571073,None,925.4563975571073,None,925.4563975571073,None,925.4563975571073,None,925.4563975571073,None,925.4563975571073,None,3,1.6009258447447792,925.4563975571073,None,927.0902969013259,None,927.0902969013259,None,927.0902969013259,None,927.0902969013259,None,927.0902969013259,None,927.0902969013259,None,927.0902969013259,None,931.0918456289801,None,931.0918456289801,None,931.0918456289801,None,931.0918456289801,None,931.0918456289801,None,931.0918456289801,None,931.0918456289801,None,932.0755852686416,None,,,,,,,,,,,,,,,,,,,,,,,,,,,,,,22695,2019_Oct_07_0952,Mmi_3levels,3.1.5,59.960015735980285,
,,,3,1,8.5,,,,,,,,,0,2,2,2,0,12,12,24,,,,,,,,,,,,,,,,,,,,,,,,,,,,,,,,,,,,,,,,,,,,,,,,,,,,,,,,,,,,,True,True,False,0.6,-0.4,-6.860000000000001,12.46,8.5,-3.960000000000001,-1.9800000000000004,gamble,win,8.5,73.65583333333336,934.0929914954468,None,934.0929914954468,None,934.0929914954468,None,934.0929914954468,None,934.0929914954468,None,934.0929914954468,None,934.0929914954468,None,1,1.4343243483745027,934.0929914954468,None,935.5603053425439,None,935.5603053425439,None,935.5603053425439,None,935.5603053425439,None,935.5603053425439,None,935.5603053425439,None,935.5603053425439,None,939.5618297512992,None,939.5618297512992,None,939.5618297512992,None,939.5618297512992,None,939.5618297512992,None,939.5618297512992,None,939.5618297512992,None,949.0488613971975,None,940.5455556316301,None,941.5458925759012,None,0.61,7.502855226601241,944.5471065991733,None,None,944.5471065991733,None,,,,,,,,,,,,,,,,,,,22695,2019_Oct_07_0952,Mmi_3levels,3.1.5,59.960015735980285,
,,,3,1,13.5,,,,,,,,,0,2,2,2,0,13,13,6,,,,,,,,,,,,,,,,,,,,,,,,,,,,,,,,,,,,,,,,,,,,,,,,,,,,,,,,,,,,,True,False,True,0.61,-0.39,-7.250000000000001,-1.9691666666666667,13.5,11.530833333333334,5.765416666666667,gamble,lose,11.530833333333334,85.1866666666667,951.0662625042023,None,951.0662625042023,None,951.0662625042023,None,951.0662625042023,None,951.0662625042023,None,951.0662625042023,None,951.0662625042023,None,1,1.7177498267265037,951.0662625042023,None,952.8169298330322,None,952.8169298330322,None,952.8169298330322,None,952.8169298330322,None,952.8169298330322,None,952.8169298330322,None,952.8169298330322,None,956.8185422377137,None,956.8185422377137,None,956.8185422377137,None,956.8185422377137,None,956.8185422377137,None,956.8185422377137,None,956.8185422377137,None,957.8022300398152,None,,,,,,,,,,,,,,,,,,,,,,,,,,,,,,22695,2019_Oct_07_0952,Mmi_3levels,3.1.5,59.960015735980285,
,,,3,1,11.3,,,,,,,,,0,2,2,2,0,14,14,19,,,,,,,,,,,,,,,,,,,,,,,,,,,,,,,,,,,,,,,,,,,,,,,,,,,,,,,,,,,,,True,False,False,0.61,-0.39,-7.640000000000001,-2.001666666666667,11.3,9.298333333333334,4.649166666666667,gamble,lose,9.298333333333334,94.48500000000003,959.8196365865879,None,959.8196365865879,None,959.8196365865879,None,959.8196365865879,None,959.8196365865879,None,959.8196365865879,None,959.8196365865879,None,1,1.634220289241057,959.8196365865879,None,961.4870175665419,None,961.4870175665419,None,961.4870175665419,None,961.4870175665419,None,961.4870175665419,None,961.4870175665419,None,961.4870175665419,None,965.4886011725466,None,965.4886011725466,None,965.4886011725466,None,965.4886011725466,None,965.4886011725466,None,965.4886011725466,None,965.4886011725466,None,966.4722924944945,None,,,,,,,,,,,,,,,,,,,,,,,,,,,,,,22695,2019_Oct_07_0952,Mmi_3levels,3.1.5,59.960015735980285,
,,,3,1,8.3,,,,,,,,,0,2,2,2,0,15,15,14,,,,,,,,,,,,,,,,,,,,,,,,,,,,,,,,,,,,,,,,,,,,,,,,,,,,,,,,,,,,,True,True,True,0.61,-0.39,-8.030000000000001,13.490000000000002,8.3,-5.190000000000001,1.5549999999999997,gamble,win,8.3,102.78500000000003,968.4896753623616,None,968.4896753623616,None,968.4896753623616,None,968.4896753623616,None,968.4896753623616,None,968.4896753623616,None,968.4896753623616,None,1,2.7849306880380027,968.4896753623616,None,971.3074912340089,None,971.3074912340089,None,971.3074912340089,None,971.3074912340089,None,971.3074912340089,None,971.3074912340089,None,971.3074912340089,None,975.3089820443711,None,975.3089820443711,None,975.3089820443711,None,975.3089820443711,None,975.3089820443711,None,975.3089820443711,None,975.3089820443711,None,984.7960610480222,None,976.2926832858357,None,977.293190782133,None,0.62,7.502796989312628,980.29432288924,None,None,980.29432288924,None,,,,,,,,,,,,,,,,,,,22695,2019_Oct_07_0952,Mmi_3levels,3.1.5,59.960015735980285,
,,,3,1,-0.7,,,,,,,,,0,2,2,2,0,16,16,1,,,,,,,,,,,,,,,,,,,,,,,,,,,,,,,,,,,,,,,,,,,,,,,,,,,,,,,,,,,,,True,True,False,0.62,-0.38,-8.410000000000002,13.730000000000002,-0.7,-14.430000000000001,-7.565,gamble,win,-0.7,102.08500000000002,986.8135085528775,None,986.8135085528775,None,986.8135085528775,None,986.8135085528775,None,986.8135085528775,None,986.8135085528775,None,986.8135085528775,None,None,,986.8135085528775,None,989.8146656188183,None,989.8146656188183,None,989.8146656188183,None,989.8146656188183,None,989.8146656188183,None,989.8146656188183,None,989.8146656188183,None,993.8162345055316,None,993.8162345055316,None,993.8162345055316,None,993.8162345055316,None,993.8162345055316,None,993.8162345055316,None,993.8162345055316,None,994.7998963888385,None,,,,,,,,,,,,,,,,,,,,,,,,,,,,,,22695,2019_Oct_07_0952,Mmi_3levels,3.1.5,59.960015735980285,
,,,3,1,3.3,,,,,,,,,0,2,2,2,0,17,17,8,,,,,,,,,,,,,,,,,,,,,,,,,,,,,,,,,,,,,,,,,,,,,,,,,,,,,,,,,,,,,True,True,False,0.62,-0.38,-8.790000000000003,14.110000000000003,3.3,-10.810000000000002,-3.7550000000000012,gamble,win,3.3,105.38500000000002,996.8174110905675,None,996.8174110905675,None,996.8174110905675,None,996.8174110905675,None,996.8174110905675,None,996.8174110905675,None,996.8174110905675,None,1,1.7010734858340584,996.8174110905675,None,998.551355360687,None,998.551355360687,None,998.551355360687,None,998.551355360687,None,998.551355360687,None,998.551355360687,None,998.551355360687,None,1002.5529498461692,None,1002.5529498461692,None,1002.5529498461692,None,1002.5529498461692,None,1002.5529498461692,None,1002.5529498461692,None,1002.5529498461692,None,1012.039966772747,None,1003.536617169244,None,1004.5370862673153,None,0.65,7.502820988185704,1007.5382026951702,None,None,1007.5382026951702,None,,,,,,,,,,,,,,,,,,,22695,2019_Oct_07_0952,Mmi_3levels,3.1.5,59.960015735980285,
,,,3,1,1.9,,,,,,,,,0,2,2,2,0,18,18,12,,,,,,,,,,,,,,,,,,,,,,,,,,,,,,,,,,,,,,,,,,,,,,,,,,,,,,,,,,,,,True,False,False,0.65,-0.35,-9.140000000000002,-1.9866666666666668,1.9,-0.08666666666666689,0.9066666666666665,certain,certain,0.9066666666666665,106.29166666666669,1014.057379079255,None,1014.057379079255,None,1014.057379079255,None,1014.057379079255,None,1014.057379079255,None,1014.057379079255,None,1014.057379079255,None,3,2.551371679903241,1014.057379079255,None,1016.6417760962213,None,1016.6417760962213,None,1016.6417760962213,None,1016.6417760962213,None,1016.6417760962213,None,1016.6417760962213,None,1016.6417760962213,None,1020.6433049847838,None,1020.6433049847838,None,1020.6433049847838,None,1020.6433049847838,None,1020.6433049847838,None,1020.6433049847838,None,1020.6433049847838,None,1021.6270382247749,None,,,,,,,,,,,,,,,,,,,,,,,,,,,,,,22695,2019_Oct_07_0952,Mmi_3levels,3.1.5,59.960015735980285,
,,,3,1,13.7,,,,,,,,,0,2,2,2,0,19,19,7,,,,,,,,,,,,,,,,,,,,,,,,,,,,,,,,,,,,,,,,,,,,,,,,,,,,,,,,,,,,,True,True,True,0.65,-0.35,-9.490000000000002,14.39,13.7,-0.6900000000000013,-0.34500000000000064,gamble,win,13.7,119.99166666666669,1023.6444018935435,None,1023.6444018935435,None,1023.6444018935435,None,1023.6444018935435,None,1023.6444018935435,None,1023.6444018935435,None,1023.6444018935435,None,1,2.1846995308296755,1023.6444018935435,None,1025.8619933276786,None,1025.8619933276786,None,1025.8619933276786,None,1025.8619933276786,None,1025.8619933276786,None,1025.8619933276786,None,1025.8619933276786,None,1029.8635231762019,None,1029.8635231762019,None,1029.8635231762019,None,1029.8635231762019,None,1029.8635231762019,None,1029.8635231762019,None,1029.8635231762019,None,1039.350539142819,None,1030.8472740153666,None,1031.8476845561818,None,0.68,7.502804668969475,1034.8488115435175,None,None,1034.8488115435175,None,,,,,,,,,,,,,,,,,,,22695,2019_Oct_07_0952,Mmi_3levels,3.1.5,59.960015735980285,
,,,3,1,-0.3,,,,,,,,,0,2,2,2,0,20,20,10,,,,,,,,,,,,,,,,,,,,,,,,,,,,,,,,,,,,,,,,,,,,,,,,,,,,,,,,,,,,,True,True,True,0.68,-0.31999999999999995,-9.810000000000002,14.290000000000003,-0.3,-14.590000000000003,-7.445000000000002,gamble,win,-0.3,119.69166666666669,1041.3680157662893,None,1041.3680157662893,None,1041.3680157662893,None,1041.3680157662893,None,1041.3680157662893,None,1041.3680157662893,None,1041.3680157662893,None,1,1.8677517786272801,1041.3680157662893,None,1043.2687660032534,None,1043.2687660032534,None,1043.2687660032534,None,1043.2687660032534,None,1043.2687660032534,None,1043.2687660032534,None,1043.2687660032534,None,1047.270269932982,None,1047.270269932982,None,1047.270269932982,None,1047.270269932982,None,1047.270269932982,None,1047.270269932982,None,1047.270269932982,None,1048.2539798140642,None,,,,,,,,,,,,,,,,,,,,,,,,,,,,,,22695,2019_Oct_07_0952,Mmi_3levels,3.1.5,59.960015735980285,
,,,3,1,-0.5,,,,,,,,,0,2,2,2,0,21,21,26,,,,,,,,,,,,,,,,,,,,,,,,,,,,,,,,,,,,,,,,,,,,,,,,,,,,,,,,,,,,,True,True,False,0.68,-0.31999999999999995,-10.130000000000003,14.610000000000003,-0.5,-15.110000000000003,-7.8050000000000015,gamble,win,-0.5,119.19166666666669,1050.2714692369627,None,1050.2714692369627,None,1050.2714692369627,None,1050.2714692369627,None,1050.2714692369627,None,1050.2714692369627,None,1050.2714692369627,None,1,1.9844880847376771,1050.2714692369627,None,1052.288916741818,None,1052.288916741818,None,1052.288916741818,None,1052.288916741818,None,1052.288916741818,None,1052.288916741818,None,1052.288916741818,None,1056.2904049922654,None,1056.2904049922654,None,1056.2904049922654,None,1056.2904049922654,None,1056.2904049922654,None,1056.2904049922654,None,1056.2904049922654,None,1057.2741503916914,None,,,,,,,,,,,,,,,,,,,,,,,,,,,,,,22695,2019_Oct_07_0952,Mmi_3levels,3.1.5,59.960015735980285,
,,,3,1,-1.5,,,,,,,,,0,2,2,2,0,22,22,11,,,,,,,,,,,,,,,,,,,,,,,,,,,,,,,,,,,,,,,,,,,,,,,,,,,,,,,,,,,,,True,True,False,0.68,-0.31999999999999995,-10.450000000000003,14.930000000000003,-1.5,-16.430000000000003,-8.965000000000002,gamble,win,-1.5,117.69166666666669,1059.2916436544037,None,1059.2916436544037,None,1059.2916436544037,None,1059.2916436544037,None,1059.2916436544037,None,1059.2916436544037,None,1059.2916436544037,None,None,,1059.2916436544037,None,1062.2928103198938,None,1062.2928103198938,None,1062.2928103198938,None,1062.2928103198938,None,1062.2928103198938,None,1062.2928103198938,None,1062.2928103198938,None,1066.2943254491256,None,1066.2943254491256,None,1066.2943254491256,None,1066.2943254491256,None,1066.2943254491256,None,1066.2943254491256,None,1066.2943254491256,None,1075.7813522952201,None,1067.2780631688947,None,1068.2784644301282,None,0.5,7.502676674921531,1071.2795946173428,None,None,1071.2795946173428,None,,,,,,,,,,,,,,,,,,,22695,2019_Oct_07_0952,Mmi_3levels,3.1.5,59.960015735980285,
,,,3,1,0.9,,,,,,,,,0,2,2,2,0,23,23,15,,,,,,,,,,,,,,,,,,,,,,,,,,,,,,,,,,,,,,,,,,,,,,,,,,,,,,,,,,,,,True,False,True,0.5,-0.5,-10.950000000000003,-2.6625,0.9,-1.7625000000000002,-0.4312500000000001,gamble,lose,-1.7625000000000002,115.92916666666669,1077.7988058797782,None,1077.7988058797782,None,1077.7988058797782,None,1077.7988058797782,None,1077.7988058797782,None,1077.7988058797782,None,1077.7988058797782,None,1,1.51765165530378,1077.7988058797782,None,1079.3494364743237,None,1079.3494364743237,None,1079.3494364743237,None,1079.3494364743237,None,1079.3494364743237,None,1079.3494364743237,None,1079.3494364743237,None,1083.3509839220205,None,1083.3509839220205,None,1083.3509839220205,None,1083.3509839220205,None,1083.3509839220205,None,1083.3509839220205,None,1083.3509839220205,None,1084.3346496451704,None,,,,,,,,,,,,,,,,,,,,,,,,,,,,,,22695,2019_Oct_07_0952,Mmi_3levels,3.1.5,59.960015735980285,
,,,3,1,2.9,,,,,,,,,0,2,2,2,0,24,24,5,,,,,,,,,,,,,,,,,,,,,,,,,,,,,,,,,,,,,,,,,,,,,,,,,,,,,,,,,,,,,True,True,True,0.5,-0.5,-11.450000000000003,18.450000000000003,2.9,-15.550000000000002,-6.325000000000001,gamble,win,2.9,118.8291666666667,1086.352131388412,None,1086.352131388412,None,1086.352131388412,None,1086.352131388412,None,1086.352131388412,None,1086.352131388412,None,1086.352131388412,None,1,1.76776668993989,1086.352131388412,None,1088.1528750976722,None,1088.1528750976722,None,1088.1528750976722,None,1088.1528750976722,None,1088.1528750976722,None,1088.1528750976722,None,1088.1528750976722,None,1092.1543591883383,None,1092.1543591883383,None,1092.1543591883383,None,1092.1543591883383,None,1092.1543591883383,None,1092.1543591883383,None,1092.1543591883383,None,1101.6414113132632,None,1093.138065549574,None,1094.1385340076813,None,0.66,7.502762110962067,1097.1396571552032,None,None,1097.1396571552032,None,,,,,,,,,,,,,,,,,,,22695,2019_Oct_07_0952,Mmi_3levels,3.1.5,59.960015735980285,
,,,3,1,10.3,,,,,,,,,0,2,2,2,0,25,25,9,,,,,,,,,,,,,,,,,,,,,,,,,,,,,,,,,,,,,,,,,,,,,,,,,,,,,,,,,,,,,True,True,False,0.66,-0.33999999999999997,-11.790000000000003,16.550000000000004,10.3,-6.2500000000000036,-3.1250000000000018,gamble,win,10.3,129.1291666666667,1103.6588322593598,None,1103.6588322593598,None,1103.6588322593598,None,1103.6588322593598,None,1103.6588322593598,None,1103.6588322593598,None,1103.6588322593598,None,1,1.2842344005475752,1103.6588322593598,None,1104.9760510388878,None,1104.9760510388878,None,1104.9760510388878,None,1104.9760510388878,None,1104.9760510388878,None,1104.9760510388878,None,1104.9760510388878,None,1108.97755240876,None,1108.97755240876,None,1108.97755240876,None,1108.97755240876,None,1108.97755240876,None,1108.97755240876,None,1108.97755240876,None,1109.9613275667652,None,,,,,,,,,,,,,,,,,,,,,,,,,,,,,,22695,2019_Oct_07_0952,Mmi_3levels,3.1.5,59.960015735980285,
,,,3,1,11.5,,,,,,,,,0,2,2,2,0,26,26,18,,,,,,,,,,,,,,,,,,,,,,,,,,,,,,,,,,,,,,,,,,,,,,,,,,,,,,,,,,,,,True,True,False,0.66,-0.33999999999999997,-12.130000000000003,16.89,11.5,-5.390000000000001,-2.6950000000000003,gamble,win,11.5,140.6291666666667,1111.9787277138385,None,1111.9787277138385,None,1111.9787277138385,None,1111.9787277138385,None,1111.9787277138385,None,1111.9787277138385,None,1111.9787277138385,None,1,1.4008283132861834,1111.9787277138385,None,1113.4126463211724,None,1113.4126463211724,None,1113.4126463211724,None,1113.4126463211724,None,1113.4126463211724,None,1113.4126463211724,None,1113.4126463211724,None,1117.4141963287548,None,1117.4141963287548,None,1117.4141963287548,None,1117.4141963287548,None,1117.4141963287548,None,1117.4141963287548,None,1117.4141963287548,None,1126.9012126153393,None,1118.397881250974,None,1119.3982652330596,None,0.66,7.50276627074345,1122.3994184591575,None,None,1122.3994184591575,None,,,,,,,,,,,,,,,,,,,22695,2019_Oct_07_0952,Mmi_3levels,3.1.5,59.960015735980285,
,,,,,,,,,,,,,,,,,,,,,,,,,,,,,,0,0,0,0,,,,,,,,,,,,,,,,,,,,,,,,,,,,,,,,,,,,,,,,,,,,,,,,,,,,,,,,,,,,,,,,,,,,,,,,,,,,,,,,,,,,,,,,,,,,,,,,,,,,,,,,,,,,,,,,,,,,,,,,,,1128.9020090581325,None,4,6.302688898402266,1128.9020090581325,None,140.6291666666667,4,1135.2377533721738,None,1135.2377533721738,None,1135.2377533721738,None,4,7.202923319418915,1135.2377533721738,None,22695,2019_Oct_07_0952,Mmi_3levels,3.1.5,59.960015735980285,
