currSlide,currImage,currText,blockNum,targetHappiness,highAmount,instructionLoop1.thisRepN,instructionLoop1.thisTrialN,instructionLoop1.thisN,instructionLoop1.thisIndex,instructionLoop2.thisRepN,instructionLoop2.thisTrialN,instructionLoop2.thisN,instructionLoop2.thisIndex,blockLoop.thisRepN,blockLoop.thisTrialN,blockLoop.thisN,blockLoop.thisIndex,trialLoop.thisRepN,trialLoop.thisTrialN,trialLoop.thisN,trialLoop.thisIndex,doRatingLoop.thisRepN,doRatingLoop.thisTrialN,doRatingLoop.thisN,doRatingLoop.thisIndex,trialHappyLoop.thisRepN,trialHappyLoop.thisTrialN,trialHappyLoop.thisN,trialHappyLoop.thisIndex,logWinningsLoop.thisRepN,logWinningsLoop.thisTrialN,logWinningsLoop.thisN,logWinningsLoop.thisIndex,instrImage.started,instrImage.stopped,instrText.started,instrText.stopped,instrContinueText.started,instrContinueText.stopped,instrKeyResp.keys,instrKeyResp.rt,instrKeyResp.started,instrKeyResp.stopped,lifeHappyText.started,lifeHappyText.stopped,lifeHappySlider.response,lifeHappySlider.rt,lifeHappySlider.started,lifeHappySlider.stopped,lifeHappyResp.keys,lifeHappyResp.rt,lifeHappyResp.started,lifeHappyResp.stopped,instrImage_2.started,instrImage_2.stopped,instrText_2.started,instrText_2.stopped,instrContinueText_2.started,instrContinueText_2.stopped,instrKeyResp_2.keys,instrKeyResp_2.rt,instrKeyResp_2.started,instrKeyResp_2.stopped,localizing.started,localizing.stopped,start_exp.keys,start_exp.rt,start_exp.started,start_exp.stopped,blockHappyText.started,blockHappyText.stopped,blockHappySlider.response,blockHappySlider.rt,blockHappySlider.started,blockHappySlider.stopped,blockHappyResp.keys,blockHappyResp.started,blockHappyResp.stopped,blankText.started,blankText.stopped,isHappyBlock,isCongruent,isWinOnTop,lastHappyRating,diff,sumDiff,RPE,winAmount,loseAmount,certainAmount,choice,outcome,outcomeAmount,currentWinnings,fixCross.started,fixCross.stopped,certainBox.started,certainBox.stopped,outcome1Box.started,outcome1Box.stopped,outcome2Box.started,outcome2Box.stopped,certainText.started,certainText.stopped,outcome1Text.started,outcome1Text.stopped,outcome2Text.started,outcome2Text.stopped,choiceKey.keys,choiceKey.rt,choiceKey.started,choiceKey.stopped,fixCross_2.started,fixCross_2.stopped,certainBox_2.started,certainBox_2.stopped,outcome1Box_2.started,outcome1Box_2.stopped,outcome2Box_2.started,outcome2Box_2.stopped,certainText_2.started,certainText_2.stopped,outcome1Text_2.started,outcome1Text_2.stopped,outcome2Text_2.started,outcome2Text_2.stopped,fixCross_3.started,fixCross_3.stopped,certainBox_3.started,certainBox_3.stopped,outcome1Box_3.started,outcome1Box_3.stopped,outcome2Box_3.started,outcome2Box_3.stopped,certainText_3.started,certainText_3.stopped,outcome1Text_3.started,outcome1Text_3.stopped,outcome2Text_3.started,outcome2Text_3.stopped,fixCross_ITI.started,fixCross_ITI.stopped,fixCross_ISI.started,fixCross_ISI.stopped,happyText.started,happyText.stopped,happySlider.response,happySlider.rt,happySlider.started,happySlider.stopped,happyResp.keys,happyResp.started,happyResp.stopped,endOfBlockText.started,endOfBlockText.stopped,restKeyResp.keys,restKeyResp.rt,restKeyResp.started,restKeyResp.stopped,blockHappyResp.rt,finalWinnings,cashBonus,goodbyeText.started,goodbyeText.stopped,finalWinningsText.started,finalWinningsText.stopped,spaceToContinue.started,spaceToContinue.stopped,goodbyeKeyResp_2.keys,goodbyeKeyResp_2.rt,goodbyeKeyResp_2.started,goodbyeKeyResp_2.stopped,participant,date,expName,psychopyVersion,frameRate,
1,black.png,"Welcome! You are about to play our gambling task.
This task has 3 blocks and takes about 15 minutes.",,,,0,0,0,0,,,,,,,,,,,,,,,,,,,,,,,,,15.221767421026016,None,15.221767421026016,None,15.221767421026016,None,4,7.254195045079541,15.221767421026016,None,,,,,,,,,,,,,,,,,,,,,,,,,,,,,,,,,,,,,,,,,,,,,,,,,,,,,,,,,,,,,,,,,,,,,,,,,,,,,,,,,,,,,,,,,,,,,,,,,,,,,,,,,,,,,,,,,,,,,,,,,,,,,,,,,,24267,2020_Feb_05_1649,Mmi_3levels,3.1.5,59.977833434834686,
2,black.png,"In this game, you may win or lose points. Your goal is to get as many points as possible. These points will be converted to a cash bonus at the end.
Sometimes we will ask you to rate your mood.",,,,0,1,1,1,,,,,,,,,,,,,,,,,,,,,,,,,22.525677122081106,None,22.525677122081106,None,22.525677122081106,None,4,9.570556208851485,22.525677122081106,None,,,,,,,,,,,,,,,,,,,,,,,,,,,,,,,,,,,,,,,,,,,,,,,,,,,,,,,,,,,,,,,,,,,,,,,,,,,,,,,,,,,,,,,,,,,,,,,,,,,,,,,,,,,,,,,,,,,,,,,,,,,,,,,,,,24267,2020_Feb_05_1649,Mmi_3levels,3.1.5,59.977833434834686,
3,black.png,"On the next screen, please rate how you feel about your life these days. Use the LEFT (green) and RIGHT (blue) buttons to move the slider (you can press and hold them to slide gradually) and the TOP (red) button to lock in your response.
Make your rating as accurately and quickly as you can!",,,,0,2,2,2,,,,,,,,,,,,,,,,,,,,,,,,,32.14595246666431,None,32.14595246666431,None,32.14595246666431,None,4,9.754053133023262,32.14595246666431,None,,,,,,,,,,,,,,,,,,,,,,,,,,,,,,,,,,,,,,,,,,,,,,,,,,,,,,,,,,,,,,,,,,,,,,,,,,,,,,,,,,,,,,,,,,,,,,,,,,,,,,,,,,,,,,,,,,,,,,,,,,,,,,,,,,24267,2020_Feb_05_1649,Mmi_3levels,3.1.5,59.977833434834686,
,,,,,,,,,,,,,,,,,,,,,,,,,,,,,,,,,,,,,,,,,,,,41.916326285729156,None,1.0,9.936119417310692,45.917868279379036,None,4,5.919193005192938,45.917868279379036,None,,,,,,,,,,,,,,,,,,,,,,,,,,,,,,,,,,,,,,,,,,,,,,,,,,,,,,,,,,,,,,,,,,,,,,,,,,,,,,,,,,,,,,,,,,,,,,,,,,,,,,,,,,,,,,,,,,,,,,,,24267,2020_Feb_05_1649,Mmi_3levels,3.1.5,59.977833434834686,
4,black.png,"In this game you can win money by earning points according to your choices. You will decide whether to gamble a number of points or stick with a guaranteed number of points. 
Make your choice by pressing the left or right arrow key once. An example of one trial is shown on the next screen.",,,,,,,,0,0,0,0,,,,,,,,,,,,,,,,,,,,,,,,,,,,,,,,,,,,,,,,,51.903553880983964,None,51.903553880983964,None,51.903553880983964,None,4,3.918132584574778,51.903553880983964,None,,,,,,,,,,,,,,,,,,,,,,,,,,,,,,,,,,,,,,,,,,,,,,,,,,,,,,,,,,,,,,,,,,,,,,,,,,,,,,,,,,,,,,,,,,,,,,,,,,,,,,,,,,,,,,24267,2020_Feb_05_1649,Mmi_3levels,3.1.5,59.977833434834686,
5,example_start.png,"The GAMBLING OPTION will be shown on the RIGHT SIDE. 
Select this option using the RIGHT (blue) button on your keypad.",,,,,,,,0,1,1,1,,,,,,,,,,,,,,,,,,,,,,,,,,,,,,,,,,,,,,,,,55.88837937075732,None,55.88837937075732,None,55.88837937075732,None,4,4.018306174853933,55.88837937075732,None,,,,,,,,,,,,,,,,,,,,,,,,,,,,,,,,,,,,,,,,,,,,,,,,,,,,,,,,,,,,,,,,,,,,,,,,,,,,,,,,,,,,,,,,,,,,,,,,,,,,,,,,,,,,,,24267,2020_Feb_05_1649,Mmi_3levels,3.1.5,59.977833434834686,
6,example_gamble.png,"Once you select the gambling choice, the choice you made will remain on the screen.",,,,,,,,0,2,2,2,,,,,,,,,,,,,,,,,,,,,,,,,,,,,,,,,,,,,,,,,59.939825449775526,None,59.939825449775526,None,59.939825449775526,None,4,1.8510310622623365,59.939825449775526,None,,,,,,,,,,,,,,,,,,,,,,,,,,,,,,,,,,,,,,,,,,,,,,,,,,,,,,,,,,,,,,,,,,,,,,,,,,,,,,,,,,,,,,,,,,,,,,,,,,,,,,,,,,,,,,24267,2020_Feb_05_1649,Mmi_3levels,3.1.5,59.977833434834686,
7,example_win.png,"The outcome you received will then be shown on the screen. In this example , you WON 10 points.",,,,,,,,0,3,3,3,,,,,,,,,,,,,,,,,,,,,,,,,,,,,,,,,,,,,,,,,61.82390746118472,None,61.82390746118472,None,61.82390746118472,None,4,1.3508040349734074,61.82390746118472,None,,,,,,,,,,,,,,,,,,,,,,,,,,,,,,,,,,,,,,,,,,,,,,,,,,,,,,,,,,,,,,,,,,,,,,,,,,,,,,,,,,,,,,,,,,,,,,,,,,,,,,,,,,,,,,24267,2020_Feb_05_1649,Mmi_3levels,3.1.5,59.977833434834686,
8,example_start.png,"The GUARANTEED OPTION will be shown on the LEFT SIDE. You are 100% guaranteed to gain or lose this amount. In this example, you have a 100% chance of winning 1 point. Select this option using the LEFT (green) button on your keyboard.",,,,,,,,0,4,4,4,,,,,,,,,,,,,,,,,,,,,,,,,,,,,,,,,,,,,,,,,63.224486308768974,None,63.224486308768974,None,63.224486308768974,None,4,3.001352884239168,63.224486308768974,None,,,,,,,,,,,,,,,,,,,,,,,,,,,,,,,,,,,,,,,,,,,,,,,,,,,,,,,,,,,,,,,,,,,,,,,,,,,,,,,,,,,,,,,,,,,,,,,,,,,,,,,,,,,,,,24267,2020_Feb_05_1649,Mmi_3levels,3.1.5,59.977833434834686,
9,example_certain.png,"Once you select the guaranteed choice, your selection will remain on the screen.",,,,,,,,0,5,5,5,,,,,,,,,,,,,,,,,,,,,,,,,,,,,,,,,,,,,,,,,66.25897269753114,None,66.25897269753114,None,66.25897269753114,None,4,1.417462702087505,66.25897269753114,None,,,,,,,,,,,,,,,,,,,,,,,,,,,,,,,,,,,,,,,,,,,,,,,,,,,,,,,,,,,,,,,,,,,,,,,,,,,,,,,,,,,,,,,,,,,,,,,,,,,,,,,,,,,,,,24267,2020_Feb_05_1649,Mmi_3levels,3.1.5,59.977833434834686,
10,black.png,"Please make your choices as fast as possible.
You will be given a break at the end of each block.
Let's play!",,,,,,,,0,6,6,6,,,,,,,,,,,,,,,,,,,,,,,,,,,,,,,,,,,,,,,,,67.70947066964436,None,67.70947066964436,None,67.70947066964436,None,4,3.2014501587909763,67.70947066964436,None,,,,,,,,,,,,,,,,,,,,,,,,,,,,,,,,,,,,,,,,,,,,,,,,,,,,,,,,,,,,,,,,,,,,,,,,,,,,,,,,,,,,,,,,,,,,,,,,,,,,,,,,,,,,,,24267,2020_Feb_05_1649,Mmi_3levels,3.1.5,59.977833434834686,
,,,,,,,,,,,,,,,,,,,,,,,,,,,,,,,,,,,,,,,,,,,,,,,,,,,,,,,,,,,,,,,,70.9273631076685,None,space,183.21976497316064,70.9273631076685,None,,,,,,,,,,,,,,,,,,,,,,,,,,,,,,,,,,,,,,,,,,,,,,,,,,,,,,,,,,,,,,,,,,,,,,,,,,,,,,,,,,,,,,,,,,,,,,,,,,,,,,,,24267,2020_Feb_05_1649,Mmi_3levels,3.1.5,59.977833434834686,
,,,1,1,12.9,,,,,,,,,0,0,0,0,0,0,0,20,,,,,,,,,,,,,,,,,,,,,,,,,,,,,,,,,,,,,,,,,,,,,,,,,254.16348588479377,None,1.0,7.492924716214475,257.1812263313259,None,None,257.1812263313259,None,261.6662481301064,None,True,True,False,1.0,0.0,0.0,0.03,12.9,12.870000000000001,6.4350000000000005,certain,certain,6.4350000000000005,6.4350000000000005,264.70078635596656,None,264.70078635596656,None,264.70078635596656,None,264.70078635596656,None,264.70078635596656,None,264.70078635596656,None,264.70078635596656,None,3,2.1678107625957637,264.70078635596656,None,266.9016442279244,None,266.9016442279244,None,266.9016442279244,None,266.9016442279244,None,266.9016442279244,None,266.9016442279244,None,266.9016442279244,None,270.88651803499306,None,270.88651803499306,None,270.88651803499306,None,270.88651803499306,None,270.88651803499306,None,270.88651803499306,None,270.88651803499306,None,271.8868040989728,None,,,,,,,,,,,,,,,,,,,,,,,,,,,,,,,24267,2020_Feb_05_1649,Mmi_3levels,3.1.5,59.977833434834686,
,,,1,1,9.7,,,,,,,,,0,0,0,0,0,1,1,3,,,,,,,,,,,,,,,,,,,,,,,,,,,,,,,,,,,,,,,,,,,,,,,,,,,,,,,,,,,,True,False,True,1.0,0.0,0.0,-0.03,9.7,9.67,4.835,gamble,lose,9.67,16.105,273.90423480285244,None,273.90423480285244,None,273.90423480285244,None,273.90423480285244,None,273.90423480285244,None,273.90423480285244,None,273.90423480285244,None,1,2.9346945371071342,273.90423480285244,None,276.8720097274563,None,276.8720097274563,None,276.8720097274563,None,276.8720097274563,None,276.8720097274563,None,276.8720097274563,None,276.8720097274563,None,280.85687233515273,None,280.85687233515273,None,280.85687233515273,None,280.85687233515273,None,280.85687233515273,None,280.85687233515273,None,280.85687233515273,None,281.8572883118577,None,,,,,,,,,,,,,,,,,,,,,,,,,,,,,,,24267,2020_Feb_05_1649,Mmi_3levels,3.1.5,59.977833434834686,
,,,1,1,13.9,,,,,,,,,0,0,0,0,0,2,2,5,,,,,,,,,,,,,,,,,,,,,,,,,,,,,,,,,,,,,,,,,,,,,,,,,,,,,,,,,,,,True,False,False,1.0,0.0,0.0,-0.03,13.9,13.870000000000001,6.9350000000000005,gamble,lose,13.870000000000001,29.975,283.8746767781013,None,283.8746767781013,None,283.8746767781013,None,283.8746767781013,None,283.8746767781013,None,283.8746767781013,None,283.8746767781013,None,None,,283.8746767781013,None,286.87581559432874,None,286.87581559432874,None,286.87581559432874,None,286.87581559432874,None,286.87581559432874,None,286.87581559432874,None,286.87581559432874,None,290.87731439039635,None,290.87731439039635,None,290.87731439039635,None,290.87731439039635,None,290.87731439039635,None,290.87731439039635,None,290.87731439039635,None,300.364288719833,None,291.8610362619693,None,292.8614199204858,None,1.0,7.502784324078675,295.8625171390413,None,None,295.8625171390413,None,,,,,,,,,,,,,,,,,,,,24267,2020_Feb_05_1649,Mmi_3levels,3.1.5,59.977833434834686,
,,,1,1,11.3,,,,,,,,,0,0,0,0,0,3,3,6,,,,,,,,,,,,,,,,,,,,,,,,,,,,,,,,,,,,,,,,,,,,,,,,,,,,,,,,,,,,True,True,False,1.0,0.0,0.0,0.03,11.3,11.270000000000001,5.635000000000001,gamble,win,11.3,41.275000000000006,302.381681345847,None,302.381681345847,None,302.381681345847,None,302.381681345847,None,302.381681345847,None,302.381681345847,None,302.381681345847,None,1,2.0510272224746586,302.381681345847,None,304.4657873559081,None,304.4657873559081,None,304.4657873559081,None,304.4657873559081,None,304.4657873559081,None,304.4657873559081,None,304.4657873559081,None,308.45062884478466,None,308.45062884478466,None,308.45062884478466,None,308.45062884478466,None,308.45062884478466,None,308.45062884478466,None,308.45062884478466,None,309.4510192229245,None,,,,,,,,,,,,,,,,,,,,,,,,,,,,,,,24267,2020_Feb_05_1649,Mmi_3levels,3.1.5,59.977833434834686,
,,,1,1,8.3,,,,,,,,,0,0,0,0,0,4,4,14,,,,,,,,,,,,,,,,,,,,,,,,,,,,,,,,,,,,,,,,,,,,,,,,,,,,,,,,,,,,True,True,False,1.0,0.0,0.0,0.03,8.3,8.270000000000001,4.135000000000001,certain,certain,4.135000000000001,45.410000000000004,311.4684640060186,None,311.4684640060186,None,311.4684640060186,None,311.4684640060186,None,311.4684640060186,None,311.4684640060186,None,311.4684640060186,None,3,2.30112169718268,311.4684640060186,None,313.8026923292309,None,313.8026923292309,None,313.8026923292309,None,313.8026923292309,None,313.8026923292309,None,313.8026923292309,None,313.8026923292309,None,317.7875539769775,None,317.7875539769775,None,317.7875539769775,None,317.7875539769775,None,317.7875539769775,None,317.7875539769775,None,317.7875539769775,None,327.2911510555423,None,318.78788803827047,None,319.78828705592605,None,1.0,7.502871679185773,322.7894341916872,None,None,322.7894341916872,None,,,,,,,,,,,,,,,,,,,,24267,2020_Feb_05_1649,Mmi_3levels,3.1.5,59.977833434834686,
,,,1,1,3.7,,,,,,,,,0,0,0,0,0,5,5,4,,,,,,,,,,,,,,,,,,,,,,,,,,,,,,,,,,,,,,,,,,,,,,,,,,,,,,,,,,,,True,True,False,1.0,0.0,0.0,0.03,3.7,3.6700000000000004,1.8350000000000002,gamble,win,3.7,49.11000000000001,329.308532162202,None,329.308532162202,None,329.308532162202,None,329.308532162202,None,329.308532162202,None,329.308532162202,None,329.308532162202,None,1,1.7176110137806972,329.308532162202,None,331.0592174838239,None,331.0592174838239,None,331.0592174838239,None,331.0592174838239,None,331.0592174838239,None,331.0592174838239,None,331.0592174838239,None,335.0441021702791,None,335.0441021702791,None,335.0441021702791,None,335.0441021702791,None,335.0441021702791,None,335.0441021702791,None,335.0441021702791,None,336.0444391114106,None,,,,,,,,,,,,,,,,,,,,,,,,,,,,,,,24267,2020_Feb_05_1649,Mmi_3levels,3.1.5,59.977833434834686,
,,,1,1,9.5,,,,,,,,,0,0,0,0,0,6,6,7,,,,,,,,,,,,,,,,,,,,,,,,,,,,,,,,,,,,,,,,,,,,,,,,,,,,,,,,,,,,True,True,False,1.0,0.0,0.0,0.03,9.5,9.47,4.735,gamble,win,9.5,58.61000000000001,338.0618595758642,None,338.0618595758642,None,338.0618595758642,None,338.0618595758642,None,338.0618595758642,None,338.0618595758642,None,338.0618595758642,None,1,1.7175934147671796,338.0618595758642,None,339.81252473861605,None,339.81252473861605,None,339.81252473861605,None,339.81252473861605,None,339.81252473861605,None,339.81252473861605,None,339.81252473861605,None,343.79737294711595,None,343.79737294711595,None,343.79737294711595,None,343.79737294711595,None,343.79737294711595,None,343.79737294711595,None,343.79737294711595,None,344.79773164702783,None,,,,,,,,,,,,,,,,,,,,,,,,,,,,,,,24267,2020_Feb_05_1649,Mmi_3levels,3.1.5,59.977833434834686,
,,,1,1,5.7,,,,,,,,,0,0,0,0,0,7,7,23,,,,,,,,,,,,,,,,,,,,,,,,,,,,,,,,,,,,,,,,,,,,,,,,,,,,,,,,,,,,True,False,True,1.0,0.0,0.0,-0.03,5.7,5.67,2.835,gamble,lose,5.67,64.28,346.81526282528284,None,346.81526282528284,None,346.81526282528284,None,346.81526282528284,None,346.81526282528284,None,346.81526282528284,None,346.81526282528284,None,1,1.9176420520452666,346.81526282528284,None,348.7659455870489,None,348.7659455870489,None,348.7659455870489,None,348.7659455870489,None,348.7659455870489,None,348.7659455870489,None,348.7659455870489,None,352.7507921956385,None,352.7507921956385,None,352.7507921956385,None,352.7507921956385,None,352.7507921956385,None,352.7507921956385,None,352.7507921956385,None,362.25436079579595,None,353.7511761741371,None,354.7514948762873,None,1.0,7.5027372867116355,357.7526436119588,None,None,357.7526436119588,None,,,,,,,,,,,,,,,,,,,,24267,2020_Feb_05_1649,Mmi_3levels,3.1.5,59.977833434834686,
,,,1,1,-0.5,,,,,,,,,0,0,0,0,0,8,8,15,,,,,,,,,,,,,,,,,,,,,,,,,,,,,,,,,,,,,,,,,,,,,,,,,,,,,,,,,,,,True,True,True,1.0,0.0,0.0,0.03,-0.5,-0.53,-0.515,gamble,win,-0.5,63.78,364.27179853928465,None,364.27179853928465,None,364.27179853928465,None,364.27179853928465,None,364.27179853928465,None,364.27179853928465,None,364.27179853928465,None,None,,364.27179853928465,None,367.27290375739176,None,367.27290375739176,None,367.27290375739176,None,367.27290375739176,None,367.27290375739176,None,367.27290375739176,None,367.27290375739176,None,371.2744476709304,None,371.2744476709304,None,371.2744476709304,None,371.2744476709304,None,371.2744476709304,None,371.2744476709304,None,371.2744476709304,None,372.2581538633858,None,,,,,,,,,,,,,,,,,,,,,,,,,,,,,,,24267,2020_Feb_05_1649,Mmi_3levels,3.1.5,59.977833434834686,
,,,1,1,-0.1,,,,,,,,,0,0,0,0,0,9,9,0,,,,,,,,,,,,,,,,,,,,,,,,,,,,,,,,,,,,,,,,,,,,,,,,,,,,,,,,,,,,True,True,True,1.0,0.0,0.0,0.03,-0.1,-0.13,-0.115,gamble,win,-0.1,63.68,374.2755698480905,None,374.2755698480905,None,374.2755698480905,None,374.2755698480905,None,374.2755698480905,None,374.2755698480905,None,374.2755698480905,None,1,2.151068660154124,374.2755698480905,None,376.4597217755836,None,376.4597217755836,None,376.4597217755836,None,376.4597217755836,None,376.4597217755836,None,376.4597217755836,None,376.4597217755836,None,380.46123369091583,None,380.46123369091583,None,380.46123369091583,None,380.46123369091583,None,380.46123369091583,None,380.46123369091583,None,380.46123369091583,None,389.948185621608,None,381.4449965201966,None,382.4453398609694,None,1.0,7.5028400009614415,385.44646555793224,None,None,385.44646555793224,None,,,,,,,,,,,,,,,,,,,,24267,2020_Feb_05_1649,Mmi_3levels,3.1.5,59.977833434834686,
,,,1,1,2.5,,,,,,,,,0,0,0,0,0,10,10,9,,,,,,,,,,,,,,,,,,,,,,,,,,,,,,,,,,,,,,,,,,,,,,,,,,,,,,,,,,,,True,False,False,1.0,0.0,0.0,-0.03,2.5,2.47,1.235,gamble,lose,2.47,66.15,391.9656150455594,None,391.9656150455594,None,391.9656150455594,None,391.9656150455594,None,391.9656150455594,None,391.9656150455594,None,391.9656150455594,None,1,2.101182813763444,391.9656150455594,None,394.09985072836207,None,394.09985072836207,None,394.09985072836207,None,394.09985072836207,None,394.09985072836207,None,394.09985072836207,None,394.09985072836207,None,398.0846231011092,None,398.0846231011092,None,398.0846231011092,None,398.0846231011092,None,398.0846231011092,None,398.0846231011092,None,398.0846231011092,None,399.0849549225277,None,,,,,,,,,,,,,,,,,,,,,,,,,,,,,,,24267,2020_Feb_05_1649,Mmi_3levels,3.1.5,59.977833434834686,
,,,1,1,11.1,,,,,,,,,0,0,0,0,0,11,11,19,,,,,,,,,,,,,,,,,,,,,,,,,,,,,,,,,,,,,,,,,,,,,,,,,,,,,,,,,,,,True,False,True,1.0,0.0,0.0,-0.03,11.1,11.07,5.535,gamble,lose,11.07,77.22,401.1024205044523,None,401.1024205044523,None,401.1024205044523,None,401.1024205044523,None,401.1024205044523,None,401.1024205044523,None,401.1024205044523,None,1,1.951010423417756,401.1024205044523,None,403.0864677978061,None,403.0864677978061,None,403.0864677978061,None,403.0864677978061,None,403.0864677978061,None,403.0864677978061,None,403.0864677978061,None,407.0713364851581,None,407.0713364851581,None,407.0713364851581,None,407.0713364851581,None,407.0713364851581,None,407.0713364851581,None,407.0713364851581,None,416.574974201445,None,408.0717115041589,None,409.0721930771906,None,1.0,7.502800643163937,412.07319686097617,None,None,412.07319686097617,None,,,,,,,,,,,,,,,,,,,,24267,2020_Feb_05_1649,Mmi_3levels,3.1.5,59.977833434834686,
,,,1,1,6.1,,,,,,,,,0,0,0,0,0,12,12,21,,,,,,,,,,,,,,,,,,,,,,,,,,,,,,,,,,,,,,,,,,,,,,,,,,,,,,,,,,,,True,True,False,1.0,0.0,0.0,0.03,6.1,6.069999999999999,3.0349999999999997,gamble,win,6.1,83.32,418.5923645875846,None,418.5923645875846,None,418.5923645875846,None,418.5923645875846,None,418.5923645875846,None,418.5923645875846,None,418.5923645875846,None,1,1.734229603142012,418.5923645875846,None,420.35967393826286,None,420.35967393826286,None,420.35967393826286,None,420.35967393826286,None,420.35967393826286,None,420.35967393826286,None,420.35967393826286,None,424.3445192669242,None,424.3445192669242,None,424.3445192669242,None,424.3445192669242,None,424.3445192669242,None,424.3445192669242,None,424.3445192669242,None,425.34501107938195,None,,,,,,,,,,,,,,,,,,,,,,,,,,,,,,,24267,2020_Feb_05_1649,Mmi_3levels,3.1.5,59.977833434834686,
,,,1,1,11.7,,,,,,,,,0,0,0,0,0,13,13,11,,,,,,,,,,,,,,,,,,,,,,,,,,,,,,,,,,,,,,,,,,,,,,,,,,,,,,,,,,,,True,True,True,1.0,0.0,0.0,0.03,11.7,11.67,5.835,gamble,win,11.7,95.02,427.3623790667734,None,427.3623790667734,None,427.3623790667734,None,427.3623790667734,None,427.3623790667734,None,427.3623790667734,None,427.3623790667734,None,1,2.1010228227241896,427.3623790667734,None,429.4964710776221,None,429.4964710776221,None,429.4964710776221,None,429.4964710776221,None,429.4964710776221,None,429.4964710776221,None,429.4964710776221,None,433.4813320854046,None,433.4813320854046,None,433.4813320854046,None,433.4813320854046,None,433.4813320854046,None,433.4813320854046,None,433.4813320854046,None,434.48171350404664,None,,,,,,,,,,,,,,,,,,,,,,,,,,,,,,,24267,2020_Feb_05_1649,Mmi_3levels,3.1.5,59.977833434834686,
,,,1,1,-1.5,,,,,,,,,0,0,0,0,0,14,14,2,,,,,,,,,,,,,,,,,,,,,,,,,,,,,,,,,,,,,,,,,,,,,,,,,,,,,,,,,,,,True,True,True,1.0,0.0,0.0,0.03,-1.5,-1.53,-1.5150000000000001,gamble,win,-1.5,93.52,436.499142608016,None,436.499142608016,None,436.499142608016,None,436.499142608016,None,436.499142608016,None,436.499142608016,None,436.499142608016,None,None,,436.499142608016,None,439.50030542289824,None,439.50030542289824,None,439.50030542289824,None,439.50030542289824,None,439.50030542289824,None,439.50030542289824,None,439.50030542289824,None,443.5017930195936,None,443.5017930195936,None,443.5017930195936,None,443.5017930195936,None,443.5017930195936,None,443.5017930195936,None,443.5017930195936,None,452.9887027126497,None,444.48553441007607,None,445.4858857504005,None,1.0,7.50282272192635,448.48701720703684,None,None,448.48701720703684,None,,,,,,,,,,,,,,,,,,,,24267,2020_Feb_05_1649,Mmi_3levels,3.1.5,59.977833434834686,
,,,1,1,2.7,,,,,,,,,0,0,0,0,0,15,15,18,,,,,,,,,,,,,,,,,,,,,,,,,,,,,,,,,,,,,,,,,,,,,,,,,,,,,,,,,,,,True,False,True,1.0,0.0,0.0,-0.03,2.7,2.6700000000000004,1.3350000000000002,gamble,lose,2.6700000000000004,96.19,455.00620093274847,None,455.00620093274847,None,455.00620093274847,None,455.00620093274847,None,455.00620093274847,None,455.00620093274847,None,455.00620093274847,None,1,1.850888350254536,455.00620093274847,None,456.8901962290147,None,456.8901962290147,None,456.8901962290147,None,456.8901962290147,None,456.8901962290147,None,456.8901962290147,None,456.8901962290147,None,460.87503931780157,None,460.87503931780157,None,460.87503931780157,None,460.87503931780157,None,460.87503931780157,None,460.87503931780157,None,460.87503931780157,None,461.87540153751615,None,,,,,,,,,,,,,,,,,,,,,,,,,,,,,,,24267,2020_Feb_05_1649,Mmi_3levels,3.1.5,59.977833434834686,
,,,1,1,8.7,,,,,,,,,0,0,0,0,0,16,16,22,,,,,,,,,,,,,,,,,,,,,,,,,,,,,,,,,,,,,,,,,,,,,,,,,,,,,,,,,,,,True,True,True,1.0,0.0,0.0,0.03,8.7,8.67,4.335,gamble,win,8.7,104.89,463.89288279856555,None,463.89288279856555,None,463.89288279856555,None,463.89288279856555,None,463.89288279856555,None,463.89288279856555,None,463.89288279856555,None,1,1.5005978865192446,463.89288279856555,None,465.4267668210596,None,465.4267668210596,None,465.4267668210596,None,465.4267668210596,None,465.4267668210596,None,465.4267668210596,None,465.4267668210596,None,469.4116041501693,None,469.4116041501693,None,469.4116041501693,None,469.4116041501693,None,469.4116041501693,None,469.4116041501693,None,469.4116041501693,None,478.91520250866233,None,470.41195709040403,None,471.41236890734217,None,1.0,7.50275136592245,474.4134658059156,None,None,474.4134658059156,None,,,,,,,,,,,,,,,,,,,,24267,2020_Feb_05_1649,Mmi_3levels,3.1.5,59.977833434834686,
,,,1,1,-0.7,,,,,,,,,0,0,0,0,0,17,17,13,,,,,,,,,,,,,,,,,,,,,,,,,,,,,,,,,,,,,,,,,,,,,,,,,,,,,,,,,,,,True,True,False,1.0,0.0,0.0,0.03,-0.7,-0.73,-0.715,gamble,win,-0.7,104.19,480.9326357723985,None,480.9326357723985,None,480.9326357723985,None,480.9326357723985,None,480.9326357723985,None,480.9326357723985,None,480.9326357723985,None,None,,480.9326357723985,None,483.93377298871565,None,483.93377298871565,None,483.93377298871565,None,483.93377298871565,None,483.93377298871565,None,483.93377298871565,None,483.93377298871565,None,487.93528682394026,None,487.93528682394026,None,487.93528682394026,None,487.93528682394026,None,487.93528682394026,None,487.93528682394026,None,487.93528682394026,None,488.9189696577014,None,,,,,,,,,,,,,,,,,,,,,,,,,,,,,,,24267,2020_Feb_05_1649,Mmi_3levels,3.1.5,59.977833434834686,
,,,1,1,4.7,,,,,,,,,0,0,0,0,0,18,18,25,,,,,,,,,,,,,,,,,,,,,,,,,,,,,,,,,,,,,,,,,,,,,,,,,,,,,,,,,,,,True,True,False,1.0,0.0,0.0,0.03,4.7,4.67,2.335,gamble,win,4.7,108.89,490.9364221203614,None,490.9364221203614,None,490.9364221203614,None,490.9364221203614,None,490.9364221203614,None,490.9364221203614,None,490.9364221203614,None,1,1.5341768060970935,490.9364221203614,None,492.5036796339409,None,492.5036796339409,None,492.5036796339409,None,492.5036796339409,None,492.5036796339409,None,492.5036796339409,None,492.5036796339409,None,496.48850096394744,None,496.48850096394744,None,496.48850096394744,None,496.48850096394744,None,496.48850096394744,None,496.48850096394744,None,496.48850096394744,None,497.488879822733,None,,,,,,,,,,,,,,,,,,,,,,,,,,,,,,,24267,2020_Feb_05_1649,Mmi_3levels,3.1.5,59.977833434834686,
,,,1,1,13.1,,,,,,,,,0,0,0,0,0,19,19,12,,,,,,,,,,,,,,,,,,,,,,,,,,,,,,,,,,,,,,,,,,,,,,,,,,,,,,,,,,,,True,True,False,1.0,0.0,0.0,0.03,13.1,13.07,6.535,gamble,win,13.1,121.99,499.5063303655006,None,499.5063303655006,None,499.5063303655006,None,499.5063303655006,None,499.5063303655006,None,499.5063303655006,None,499.5063303655006,None,1,0.9839740174575127,499.5063303655006,None,500.52341260889443,None,500.52341260889443,None,500.52341260889443,None,500.52341260889443,None,500.52341260889443,None,500.52341260889443,None,500.52341260889443,None,504.52493028390745,None,504.52493028390745,None,504.52493028390745,None,504.52493028390745,None,504.52493028390745,None,504.52493028390745,None,504.52493028390745,None,514.0118338973043,None,505.5086044781492,None,506.50898237698857,None,1.0,7.502741446478467,509.5101035941989,None,None,509.5101035941989,None,,,,,,,,,,,,,,,,,,,,24267,2020_Feb_05_1649,Mmi_3levels,3.1.5,59.977833434834686,
,,,1,1,4.3,,,,,,,,,0,0,0,0,0,20,20,1,,,,,,,,,,,,,,,,,,,,,,,,,,,,,,,,,,,,,,,,,,,,,,,,,,,,,,,,,,,,True,True,True,1.0,0.0,0.0,0.03,4.3,4.27,2.135,gamble,win,4.3,126.28999999999999,516.0292614013633,None,516.0292614013633,None,516.0292614013633,None,516.0292614013633,None,516.0292614013633,None,516.0292614013633,None,516.0292614013633,None,1,1.1173364691567258,516.0292614013633,None,517.1796804978949,None,517.1796804978949,None,517.1796804978949,None,517.1796804978949,None,517.1796804978949,None,517.1796804978949,None,517.1796804978949,None,521.1644791091712,None,521.1644791091712,None,521.1644791091712,None,521.1644791091712,None,521.1644791091712,None,521.1644791091712,None,521.1644791091712,None,522.164874287042,None,,,,,,,,,,,,,,,,,,,,,,,,,,,,,,,24267,2020_Feb_05_1649,Mmi_3levels,3.1.5,59.977833434834686,
,,,1,1,13.3,,,,,,,,,0,0,0,0,0,21,21,16,,,,,,,,,,,,,,,,,,,,,,,,,,,,,,,,,,,,,,,,,,,,,,,,,,,,,,,,,,,,True,True,True,1.0,0.0,0.0,0.03,13.3,13.270000000000001,6.635000000000001,gamble,win,13.3,139.59,524.1823856264054,None,524.1823856264054,None,524.1823856264054,None,524.1823856264054,None,524.1823856264054,None,524.1823856264054,None,524.1823856264054,None,1,1.4507533178111771,524.1823856264054,None,525.6662695689047,None,525.6662695689047,None,525.6662695689047,None,525.6662695689047,None,525.6662695689047,None,525.6662695689047,None,525.6662695689047,None,529.6511091378889,None,529.6511091378889,None,529.6511091378889,None,529.6511091378889,None,529.6511091378889,None,529.6511091378889,None,529.6511091378889,None,539.1546841376912,None,530.651476157338,None,531.651830057519,None,1.0,7.50277504459882,534.6529695137106,None,None,534.6529695137106,None,,,,,,,,,,,,,,,,,,,,24267,2020_Feb_05_1649,Mmi_3levels,3.1.5,59.977833434834686,
,,,1,1,10.1,,,,,,,,,0,0,0,0,0,22,22,17,,,,,,,,,,,,,,,,,,,,,,,,,,,,,,,,,,,,,,,,,,,,,,,,,,,,,,,,,,,,True,True,True,1.0,0.0,0.0,0.03,10.1,10.07,5.035,gamble,win,10.1,149.69,541.1721244410328,None,541.1721244410328,None,541.1721244410328,None,541.1721244410328,None,541.1721244410328,None,541.1721244410328,None,541.1721244410328,None,1,1.3007124401046894,541.1721244410328,None,542.5059233482934,None,542.5059233482934,None,542.5059233482934,None,542.5059233482934,None,542.5059233482934,None,542.5059233482934,None,542.5059233482934,None,546.5074439031414,None,546.5074439031414,None,546.5074439031414,None,546.5074439031414,None,546.5074439031414,None,546.5074439031414,None,546.5074439031414,None,547.4911424160273,None,,,,,,,,,,,,,,,,,,,,,,,,,,,,,,,24267,2020_Feb_05_1649,Mmi_3levels,3.1.5,59.977833434834686,
,,,1,1,1.5,,,,,,,,,0,0,0,0,0,23,23,10,,,,,,,,,,,,,,,,,,,,,,,,,,,,,,,,,,,,,,,,,,,,,,,,,,,,,,,,,,,,True,False,True,1.0,0.0,0.0,-0.03,1.5,1.47,1.4849999999999999,certain,certain,1.4849999999999999,151.175,549.5086265569153,None,549.5086265569153,None,549.5086265569153,None,549.5086265569153,None,549.5086265569153,None,549.5086265569153,None,549.5086265569153,None,3,2.351092978791712,549.5086265569153,None,551.8928639196238,None,551.8928639196238,None,551.8928639196238,None,551.8928639196238,None,551.8928639196238,None,551.8928639196238,None,551.8928639196238,None,555.8776647707746,None,555.8776647707746,None,555.8776647707746,None,555.8776647707746,None,555.8776647707746,None,555.8776647707746,None,555.8776647707746,None,565.3813290455764,None,556.8780388298255,None,557.8784605662113,None,1.0,7.502798083307425,560.8795609845874,None,None,560.8795609845874,None,,,,,,,,,,,,,,,,,,,,24267,2020_Feb_05_1649,Mmi_3levels,3.1.5,59.977833434834686,
,,,1,1,0.7,,,,,,,,,0,0,0,0,0,24,24,26,,,,,,,,,,,,,,,,,,,,,,,,,,,,,,,,,,,,,,,,,,,,,,,,,,,,,,,,,,,,True,True,True,1.0,0.0,0.0,0.03,0.7,0.6699999999999999,0.6849999999999999,gamble,win,0.7,151.875,567.3987082323401,None,567.3987082323401,None,567.3987082323401,None,567.3987082323401,None,567.3987082323401,None,567.3987082323401,None,567.3987082323401,None,1,2.0844135128427297,567.3987082323401,None,569.5162053325039,None,569.5162053325039,None,569.5162053325039,None,569.5162053325039,None,569.5162053325039,None,569.5162053325039,None,569.5162053325039,None,573.5010116233498,None,573.5010116233498,None,573.5010116233498,None,573.5010116233498,None,573.5010116233498,None,573.5010116233498,None,573.5010116233498,None,574.5013920820456,None,,,,,,,,,,,,,,,,,,,,,,,,,,,,,,,24267,2020_Feb_05_1649,Mmi_3levels,3.1.5,59.977833434834686,
,,,1,1,12.3,,,,,,,,,0,0,0,0,0,25,25,24,,,,,,,,,,,,,,,,,,,,,,,,,,,,,,,,,,,,,,,,,,,,,,,,,,,,,,,,,,,,True,True,True,1.0,0.0,0.0,0.03,12.3,12.270000000000001,6.135000000000001,gamble,win,12.3,164.175,576.5188074267862,None,576.5188074267862,None,576.5188074267862,None,576.5188074267862,None,576.5188074267862,None,576.5188074267862,None,576.5188074267862,None,1,1.5341864055626502,576.5188074267862,None,578.086118057392,None,578.086118057392,None,578.086118057392,None,578.086118057392,None,578.086118057392,None,578.086118057392,None,578.086118057392,None,582.0709361875743,None,582.0709361875743,None,582.0709361875743,None,582.0709361875743,None,582.0709361875743,None,582.0709361875743,None,582.0709361875743,None,583.0713163262881,None,,,,,,,,,,,,,,,,,,,,,,,,,,,,,,,24267,2020_Feb_05_1649,Mmi_3levels,3.1.5,59.977833434834686,
,,,1,1,7.5,,,,,,,,,0,0,0,0,0,26,26,8,,,,,,,,,,,,,,,,,,,,,,,,,,,,,,,,,,,,,,,,,,,,,,,,,,,,,,,,,,,,True,True,False,1.0,0.0,0.0,0.03,7.5,7.47,3.735,gamble,win,7.5,171.675,585.0887870279294,None,585.0887870279294,None,585.0887870279294,None,585.0887870279294,None,585.0887870279294,None,585.0887870279294,None,585.0887870279294,None,1,1.150626124937844,585.0887870279294,None,586.2725248986062,None,586.2725248986062,None,586.2725248986062,None,586.2725248986062,None,586.2725248986062,None,586.2725248986062,None,586.2725248986062,None,590.2573347092584,None,590.2573347092584,None,590.2573347092584,None,590.2573347092584,None,590.2573347092584,None,590.2573347092584,None,590.2573347092584,None,599.7609877846844,None,591.2577650851563,None,592.2581970609681,None,1.0,7.502734726855124,595.2592571616005,None,None,595.2592571616005,None,,,,,,,,,,,,,,,,,,,,24267,2020_Feb_05_1649,Mmi_3levels,3.1.5,59.977833434834686,
,,,2,0,8.3,,,,,,,,,0,1,1,1,0,0,0,12,,,,,,,,,,,,,,,,,,,,,,,,,,,,,,,,,,,,,,,,,,,,,,,,,605.496443879143,None,1.0,6.467775084594905,608.5142355228127,None,4,608.5142355228127,None,611.9655667282641,None,False,True,True,1.0,1.0,1.0,-15.0,8.3,-6.699999999999999,0.8000000000000007,certain,certain,0.8000000000000007,172.47500000000002,615.0000607965958,None,615.0000607965958,None,615.0000607965958,None,615.0000607965958,None,615.0000607965958,None,615.0000607965958,None,615.0000607965958,None,3,2.167757645569509,615.0000607965958,None,617.2009036293966,None,617.2009036293966,None,617.2009036293966,None,617.2009036293966,None,617.2009036293966,None,617.2009036293966,None,617.2009036293966,None,621.1857355188113,None,621.1857355188113,None,621.1857355188113,None,621.1857355188113,None,621.1857355188113,None,621.1857355188113,None,621.1857355188113,None,622.1861207772381,None,,,,,,,,,,,,601.7616879054804,None,4,3.7184551265127084,601.7616879054804,None,3.4348703672585543,,,,,,,,,,,,,24267,2020_Feb_05_1649,Mmi_3levels,3.1.5,59.977833434834686,
,,,2,0,7.9,,,,,,,,,0,1,1,1,0,1,1,4,,,,,,,,,,,,,,,,,,,,,,,,,,,,,,,,,,,,,,,,,,,,,,,,,,,,,,,,,,,,False,True,True,1.0,1.0,2.0,-16.0,7.9,-8.1,-0.09999999999999964,gamble,lose,-8.1,164.37500000000003,624.2035828393637,None,624.2035828393637,None,624.2035828393637,None,624.2035828393637,None,624.2035828393637,None,624.2035828393637,None,624.2035828393637,None,1,2.9513688033475773,624.2035828393637,None,627.188042269634,None,627.188042269634,None,627.188042269634,None,627.188042269634,None,627.188042269634,None,627.188042269634,None,627.188042269634,None,631.1895397857734,None,631.1895397857734,None,631.1895397857734,None,631.1895397857734,None,631.1895397857734,None,631.1895397857734,None,631.1895397857734,None,640.6764475589371,None,632.1732079003596,None,633.1736142776026,None,1.0,7.50280736278728,636.1747367747412,None,None,636.1747367747412,None,,,,,,,,,,,,,,,,,,,,24267,2020_Feb_05_1649,Mmi_3levels,3.1.5,59.977833434834686,
,,,2,0,4.7,,,,,,,,,0,1,1,1,0,2,2,17,,,,,,,,,,,,,,,,,,,,,,,,,,,,,,,,,,,,,,,,,,,,,,,,,,,,,,,,,,,,False,False,True,1.0,1.0,3.0,3.75,1.175,-2.575,-0.7000000000000001,certain,certain,-0.7000000000000001,163.67500000000004,642.6939128208833,None,642.6939128208833,None,642.6939128208833,None,642.6939128208833,None,642.6939128208833,None,642.6939128208833,None,642.6939128208833,None,3,2.100983784908749,642.6939128208833,None,644.8280608285968,None,644.8280608285968,None,644.8280608285968,None,644.8280608285968,None,644.8280608285968,None,644.8280608285968,None,644.8280608285968,None,648.8128440807341,None,648.8128440807341,None,648.8128440807341,None,648.8128440807341,None,648.8128440807341,None,648.8128440807341,None,648.8128440807341,None,649.8132469381744,None,,,,,,,,,,,,,,,,,,,,,,,,,,,,,,,24267,2020_Feb_05_1649,Mmi_3levels,3.1.5,59.977833434834686,
,,,2,0,-0.5,,,,,,,,,0,1,1,1,0,3,3,3,,,,,,,,,,,,,,,,,,,,,,,,,,,,,,,,,,,,,,,,,,,,,,,,,,,,,,,,,,,,False,True,False,1.0,1.0,4.0,-18.0,-0.5,-18.5,-9.5,gamble,lose,-18.5,145.17500000000004,651.8306754021796,None,651.8306754021796,None,651.8306754021796,None,651.8306754021796,None,651.8306754021796,None,651.8306754021796,None,651.8306754021796,None,None,,651.8306754021796,None,654.8318154983353,None,654.8318154983353,None,654.8318154983353,None,654.8318154983353,None,654.8318154983353,None,654.8318154983353,None,654.8318154983353,None,658.8333133344568,None,658.8333133344568,None,658.8333133344568,None,658.8333133344568,None,658.8333133344568,None,658.8333133344568,None,658.8333133344568,None,668.3202060684634,None,659.8170291263705,None,660.8174089451022,None,1.0,7.502709768254135,663.8185055236936,None,None,663.8185055236936,None,,,,,,,,,,,,,,,,,,,,24267,2020_Feb_05_1649,Mmi_3levels,3.1.5,59.977833434834686,
,,,2,0,2.7,,,,,,,,,0,1,1,1,0,4,4,10,,,,,,,,,,,,,,,,,,,,,,,,,,,,,,,,,,,,,,,,,,,,,,,,,,,,,,,,,,,,False,False,False,1.0,1.0,5.0,3.9166666666666665,0.675,-3.2416666666666663,-1.2833333333333332,certain,certain,-1.2833333333333332,143.8916666666667,670.3376735702805,None,670.3376735702805,None,670.3376735702805,None,670.3376735702805,None,670.3376735702805,None,670.3376735702805,None,670.3376735702805,None,3,2.5345499052018567,670.3376735702805,None,672.905347060565,None,672.905347060565,None,672.905347060565,None,672.905347060565,None,672.905347060565,None,672.905347060565,None,672.905347060565,None,676.9068628156856,None,676.9068628156856,None,676.9068628156856,None,676.9068628156856,None,676.9068628156856,None,676.9068628156856,None,676.9068628156856,None,677.8905702880656,None,,,,,,,,,,,,,,,,,,,,,,,,,,,,,,,24267,2020_Feb_05_1649,Mmi_3levels,3.1.5,59.977833434834686,
,,,2,0,5.9,,,,,,,,,0,1,1,1,0,5,5,26,,,,,,,,,,,,,,,,,,,,,,,,,,,,,,,,,,,,,,,,,,,,,,,,,,,,,,,,,,,,False,True,False,1.0,1.0,6.0,-20.0,5.9,-14.1,-4.1,gamble,lose,-14.1,129.7916666666667,679.9080029118377,None,679.9080029118377,None,679.9080029118377,None,679.9080029118377,None,679.9080029118377,None,679.9080029118377,None,679.9080029118377,None,1,2.1176551713106164,679.9080029118377,None,682.0587675890165,None,682.0587675890165,None,682.0587675890165,None,682.0587675890165,None,682.0587675890165,None,682.0587675890165,None,682.0587675890165,None,686.043623797068,None,686.043623797068,None,686.043623797068,None,686.043623797068,None,686.043623797068,None,686.043623797068,None,686.043623797068,None,687.0440036157997,None,,,,,,,,,,,,,,,,,,,,,,,,,,,,,,,24267,2020_Feb_05_1649,Mmi_3levels,3.1.5,59.977833434834686,
,,,2,0,4.9,,,,,,,,,0,1,1,1,0,6,6,7,,,,,,,,,,,,,,,,,,,,,,,,,,,,,,,,,,,,,,,,,,,,,,,,,,,,,,,,,,,,False,False,False,1.0,1.0,7.0,4.083333333333333,1.225,-2.858333333333333,-0.8166666666666664,gamble,win,1.225,131.0166666666667,689.0615447134987,None,689.0615447134987,None,689.0615447134987,None,689.0615447134987,None,689.0615447134987,None,689.0615447134987,None,689.0615447134987,None,1,1.883980257105577,689.0615447134987,None,690.9788357452016,None,690.9788357452016,None,690.9788357452016,None,690.9788357452016,None,690.9788357452016,None,690.9788357452016,None,690.9788357452016,None,694.9803463806056,None,694.9803463806056,None,694.9803463806056,None,694.9803463806056,None,694.9803463806056,None,694.9803463806056,None,694.9803463806056,None,704.4672880718681,None,695.9640228147255,None,696.9644051933101,None,1.0,7.50282048205554,699.9655504091788,None,None,699.9655504091788,None,,,,,,,,,,,,,,,,,,,,24267,2020_Feb_05_1649,Mmi_3levels,3.1.5,59.977833434834686,
,,,2,0,12.1,,,,,,,,,0,1,1,1,0,7,7,14,,,,,,,,,,,,,,,,,,,,,,,,,,,,,,,,,,,,,,,,,,,,,,,,,,,,,,,,,,,,False,True,True,1.0,1.0,8.0,-22.0,12.1,-9.9,1.0999999999999996,gamble,lose,-9.9,121.1166666666667,706.4847011767342,None,706.4847011767342,None,706.4847011767342,None,706.4847011767342,None,706.4847011767342,None,706.4847011767342,None,706.4847011767342,None,1,2.0677018086971657,706.4847011767342,None,708.5854977721247,None,708.5854977721247,None,708.5854977721247,None,708.5854977721247,None,708.5854977721247,None,708.5854977721247,None,708.5854977721247,None,712.5869876086945,None,712.5869876086945,None,712.5869876086945,None,712.5869876086945,None,712.5869876086945,None,712.5869876086945,None,712.5869876086945,None,713.5707251593922,None,,,,,,,,,,,,,,,,,,,,,,,,,,,,,,,24267,2020_Feb_05_1649,Mmi_3levels,3.1.5,59.977833434834686,
,,,2,0,6.7,,,,,,,,,0,1,1,1,0,8,8,8,,,,,,,,,,,,,,,,,,,,,,,,,,,,,,,,,,,,,,,,,,,,,,,,,,,,,,,,,,,,False,True,True,1.0,1.0,9.0,-23.0,6.7,-16.3,-4.800000000000001,gamble,lose,-16.3,104.8166666666667,715.5881731423069,None,715.5881731423069,None,715.5881731423069,None,715.5881731423069,None,715.5881731423069,None,715.5881731423069,None,715.5881731423069,None,1,2.3010804194964294,715.5881731423069,None,717.9223662674922,None,717.9223662674922,None,717.9223662674922,None,717.9223662674922,None,717.9223662674922,None,717.9223662674922,None,717.9223662674922,None,721.907213836028,None,721.907213836028,None,721.907213836028,None,721.907213836028,None,721.907213836028,None,721.907213836028,None,721.907213836028,None,731.4108067548223,None,722.9075478973209,None,723.9079635540438,None,1.0,7.502745606245298,726.9090665322765,None,None,726.9090665322765,None,,,,,,,,,,,,,,,,,,,,24267,2020_Feb_05_1649,Mmi_3levels,3.1.5,59.977833434834686,
,,,2,0,-1.3,,,,,,,,,0,1,1,1,0,9,9,11,,,,,,,,,,,,,,,,,,,,,,,,,,,,,,,,,,,,,,,,,,,,,,,,,,,,,,,,,,,,False,False,True,1.0,1.0,10.0,4.333333333333333,-0.325,-4.658333333333333,-2.4916666666666667,gamble,win,-0.325,104.4916666666667,733.428234578867,None,733.428234578867,None,733.428234578867,None,733.428234578867,None,733.428234578867,None,733.428234578867,None,733.428234578867,None,1,2.1177050885125936,733.428234578867,None,735.5791243690364,None,735.5791243690364,None,735.5791243690364,None,735.5791243690364,None,735.5791243690364,None,735.5791243690364,None,735.5791243690364,None,739.5639882566611,None,739.5639882566611,None,739.5639882566611,None,739.5639882566611,None,739.5639882566611,None,739.5639882566611,None,739.5639882566611,None,740.5642931995826,None,,,,,,,,,,,,,,,,,,,,,,,,,,,,,,,24267,2020_Feb_05_1649,Mmi_3levels,3.1.5,59.977833434834686,
,,,2,0,9.9,,,,,,,,,0,1,1,1,0,10,10,21,,,,,,,,,,,,,,,,,,,,,,,,,,,,,,,,,,,,,,,,,,,,,,,,,,,,,,,,,,,,False,True,True,1.0,1.0,11.0,-25.0,9.9,-15.1,-2.5999999999999996,gamble,lose,-15.1,89.39166666666671,742.5817152639465,None,742.5817152639465,None,742.5817152639465,None,742.5817152639465,None,742.5817152639465,None,742.5817152639465,None,742.5817152639465,None,1,1.8176047741326329,742.5817152639465,None,744.4324013855257,None,744.4324013855257,None,744.4324013855257,None,744.4324013855257,None,744.4324013855257,None,744.4324013855257,None,744.4324013855257,None,748.4339264201226,None,748.4339264201226,None,748.4339264201226,None,748.4339264201226,None,748.4339264201226,None,748.4339264201226,None,748.4339264201226,None,749.417645731839,None,,,,,,,,,,,,,,,,,,,,,,,,,,,,,,,24267,2020_Feb_05_1649,Mmi_3levels,3.1.5,59.977833434834686,
,,,2,0,6.5,,,,,,,,,0,1,1,1,0,11,11,16,,,,,,,,,,,,,,,,,,,,,,,,,,,,,,,,,,,,,,,,,,,,,,,,,,,,,,,,,,,,False,True,False,1.0,1.0,12.0,-26.0,6.5,-19.5,-6.5,gamble,lose,-19.5,69.89166666666671,751.4350034798081,None,751.4350034798081,None,751.4350034798081,None,751.4350034798081,None,751.4350034798081,None,751.4350034798081,None,751.4350034798081,None,1,2.584625180988951,751.4350034798081,None,754.0526946491009,None,754.0526946491009,None,754.0526946491009,None,754.0526946491009,None,754.0526946491009,None,754.0526946491009,None,754.0526946491009,None,758.0542312030557,None,758.0542312030557,None,758.0542312030557,None,758.0542312030557,None,758.0542312030557,None,758.0542312030557,None,758.0542312030557,None,767.5411808938734,None,759.0379533946107,None,760.0382906557243,None,1.0,7.5027888038239325,763.0394115529562,None,None,763.0394115529562,None,,,,,,,,,,,,,,,,,,,,24267,2020_Feb_05_1649,Mmi_3levels,3.1.5,59.977833434834686,
,,,2,0,8.5,,,,,,,,,0,1,1,1,0,12,12,23,,,,,,,,,,,,,,,,,,,,,,,,,,,,,,,,,,,,,,,,,,,,,,,,,,,,,,,,,,,,False,False,False,1.0,1.0,13.0,4.583333333333333,2.125,-2.458333333333333,-0.16666666666666652,certain,certain,-0.16666666666666652,69.72500000000004,769.558678474008,None,769.558678474008,None,769.558678474008,None,769.558678474008,None,769.558678474008,None,769.558678474008,None,769.558678474008,None,3,2.0176930891866505,769.558678474008,None,771.6093911540956,None,771.6093911540956,None,771.6093911540956,None,771.6093911540956,None,771.6093911540956,None,771.6093911540956,None,771.6093911540956,None,775.5942323229901,None,775.5942323229901,None,775.5942323229901,None,775.5942323229901,None,775.5942323229901,None,775.5942323229901,None,775.5942323229901,None,776.5946470197669,None,,,,,,,,,,,,,,,,,,,,,,,,,,,,,,,24267,2020_Feb_05_1649,Mmi_3levels,3.1.5,59.977833434834686,
,,,2,0,1.1,,,,,,,,,0,1,1,1,0,13,13,6,,,,,,,,,,,,,,,,,,,,,,,,,,,,,,,,,,,,,,,,,,,,,,,,,,,,,,,,,,,,False,True,False,1.0,1.0,14.0,-28.0,1.1,-26.9,-12.899999999999999,certain,certain,-12.899999999999999,56.82500000000004,778.6120444455119,None,778.6120444455119,None,778.6120444455119,None,778.6120444455119,None,778.6120444455119,None,778.6120444455119,None,778.6120444455119,None,3,2.684638460246788,778.6120444455119,None,781.329731295049,None,781.329731295049,None,781.329731295049,None,781.329731295049,None,781.329731295049,None,781.329731295049,None,781.329731295049,None,785.3312540897714,None,785.3312540897714,None,785.3312540897714,None,785.3312540897714,None,785.3312540897714,None,785.3312540897714,None,785.3312540897714,None,794.8181493836346,None,786.3149238042679,None,787.3152972233584,None,1.0,7.502648651676282,790.3164545985455,None,None,790.3164545985455,None,,,,,,,,,,,,,,,,,,,,24267,2020_Feb_05_1649,Mmi_3levels,3.1.5,59.977833434834686,
,,,2,0,4.3,,,,,,,,,0,1,1,1,0,14,14,2,,,,,,,,,,,,,,,,,,,,,,,,,,,,,,,,,,,,,,,,,,,,,,,,,,,,,,,,,,,,False,True,False,1.0,1.0,15.0,-29.0,4.3,-24.7,-10.2,gamble,lose,-24.7,32.12500000000004,796.8356024862624,None,796.8356024862624,None,796.8356024862624,None,796.8356024862624,None,796.8356024862624,None,796.8356024862624,None,796.8356024862624,None,1,2.517901237530168,796.8356024862624,None,799.3865217147868,None,799.3865217147868,None,799.3865217147868,None,799.3865217147868,None,799.3865217147868,None,799.3865217147868,None,799.3865217147868,None,803.3880518690967,None,803.3880518690967,None,803.3880518690967,None,803.3880518690967,None,803.3880518690967,None,803.3880518690967,None,803.3880518690967,None,804.3717644611934,None,,,,,,,,,,,,,,,,,,,,,,,,,,,,,,,24267,2020_Feb_05_1649,Mmi_3levels,3.1.5,59.977833434834686,
,,,2,0,-0.7,,,,,,,,,0,1,1,1,0,15,15,22,,,,,,,,,,,,,,,,,,,,,,,,,,,,,,,,,,,,,,,,,,,,,,,,,,,,,,,,,,,,False,True,True,1.0,1.0,16.0,-30.0,-0.7,-30.7,-15.7,certain,certain,-15.7,16.425000000000043,806.3892111641762,None,806.3892111641762,None,806.3892111641762,None,806.3892111641762,None,806.3892111641762,None,806.3892111641762,None,806.3892111641762,None,3,2.8012988072659937,806.3892111641762,None,809.223627476862,None,809.223627476862,None,809.223627476862,None,809.223627476862,None,809.223627476862,None,809.223627476862,None,809.223627476862,None,813.2250907549205,None,813.2250907549205,None,813.2250907549205,None,813.2250907549205,None,813.2250907549205,None,813.2250907549205,None,813.2250907549205,None,822.7120132472592,None,814.2088507043627,None,815.2091994848306,None,1.0,7.502829441553331,818.2103066228301,None,None,818.2103066228301,None,,,,,,,,,,,,,,,,,,,,24267,2020_Feb_05_1649,Mmi_3levels,3.1.5,59.977833434834686,
,,,2,0,5.3,,,,,,,,,0,1,1,1,0,16,16,25,,,,,,,,,,,,,,,,,,,,,,,,,,,,,,,,,,,,,,,,,,,,,,,,,,,,,,,,,,,,False,False,False,1.0,1.0,17.0,4.916666666666667,1.325,-3.591666666666667,-1.1333333333333333,gamble,win,1.325,17.750000000000043,824.7294609101918,None,824.7294609101918,None,824.7294609101918,None,824.7294609101918,None,824.7294609101918,None,824.7294609101918,None,824.7294609101918,None,None,,824.7294609101918,None,827.7306352444284,None,827.7306352444284,None,827.7306352444284,None,827.7306352444284,None,827.7306352444284,None,827.7306352444284,None,827.7306352444284,None,831.7154469749694,None,831.7154469749694,None,831.7154469749694,None,831.7154469749694,None,831.7154469749694,None,831.7154469749694,None,831.7154469749694,None,832.7158421528402,None,,,,,,,,,,,,,,,,,,,,,,,,,,,,,,,24267,2020_Feb_05_1649,Mmi_3levels,3.1.5,59.977833434834686,
,,,2,0,11.7,,,,,,,,,0,1,1,1,0,17,17,13,,,,,,,,,,,,,,,,,,,,,,,,,,,,,,,,,,,,,,,,,,,,,,,,,,,,,,,,,,,,False,True,False,1.0,1.0,18.0,-32.0,11.7,-20.3,-4.300000000000001,gamble,lose,-20.3,-2.549999999999958,834.7332424584238,None,834.7332424584238,None,834.7332424584238,None,834.7332424584238,None,834.7332424584238,None,834.7332424584238,None,834.7332424584238,None,1,1.367445663043327,834.7332424584238,None,836.1337771484796,None,836.1337771484796,None,836.1337771484796,None,836.1337771484796,None,836.1337771484796,None,836.1337771484796,None,836.1337771484796,None,840.1186243970369,None,840.1186243970369,None,840.1186243970369,None,840.1186243970369,None,840.1186243970369,None,840.1186243970369,None,840.1186243970369,None,841.1190106154063,None,,,,,,,,,,,,,,,,,,,,,,,,,,,,,,,24267,2020_Feb_05_1649,Mmi_3levels,3.1.5,59.977833434834686,
,,,2,0,13.1,,,,,,,,,0,1,1,1,0,18,18,20,,,,,,,,,,,,,,,,,,,,,,,,,,,,,,,,,,,,,,,,,,,,,,,,,,,,,,,,,,,,False,True,False,1.0,1.0,19.0,-33.0,13.1,-19.9,-3.3999999999999995,certain,certain,-3.3999999999999995,-5.9499999999999575,843.1364269200931,None,843.1364269200931,None,843.1364269200931,None,843.1364269200931,None,843.1364269200931,None,843.1364269200931,None,843.1364269200931,None,3,1.98434583663402,843.1364269200931,None,845.1538614637611,None,845.1538614637611,None,845.1538614637611,None,845.1538614637611,None,845.1538614637611,None,845.1538614637611,None,845.1538614637611,None,849.2054630540697,None,849.2054630540697,None,849.2054630540697,None,849.2054630540697,None,849.2054630540697,None,849.2054630540697,None,849.2054630540697,None,858.6923180301928,None,850.1890841312888,None,851.1894789891776,None,1.0,7.502748486083874,854.1905672482353,None,None,854.1905672482353,None,,,,,,,,,,,,,,,,,,,,24267,2020_Feb_05_1649,Mmi_3levels,3.1.5,59.977833434834686,
,,,2,0,8.9,,,,,,,,,0,1,1,1,0,19,19,5,,,,,,,,,,,,,,,,,,,,,,,,,,,,,,,,,,,,,,,,,,,,,,,,,,,,,,,,,,,,False,False,False,1.0,1.0,20.0,5.166666666666667,2.225,-2.941666666666667,-0.3583333333333334,certain,certain,-0.3583333333333334,-6.308333333333291,860.7097576935703,None,860.7097576935703,None,860.7097576935703,None,860.7097576935703,None,860.7097576935703,None,860.7097576935703,None,860.7097576935703,None,3,2.784649179648113,860.7097576935703,None,863.5274709416299,None,863.5274709416299,None,863.5274709416299,None,863.5274709416299,None,863.5274709416299,None,863.5274709416299,None,863.5274709416299,None,867.5289927764061,None,867.5289927764061,None,867.5289927764061,None,867.5289927764061,None,867.5289927764061,None,867.5289927764061,None,867.5289927764061,None,868.5126832897367,None,,,,,,,,,,,,,,,,,,,,,,,,,,,,,,,24267,2020_Feb_05_1649,Mmi_3levels,3.1.5,59.977833434834686,
,,,2,0,6.9,,,,,,,,,0,1,1,1,0,20,20,9,,,,,,,,,,,,,,,,,,,,,,,,,,,,,,,,,,,,,,,,,,,,,,,,,,,,,,,,,,,,False,True,True,1.0,1.0,21.0,-35.0,6.9,-28.1,-10.600000000000001,gamble,lose,-28.1,-34.40833333333329,870.5301395921852,None,870.5301395921852,None,870.5301395921852,None,870.5301395921852,None,870.5301395921852,None,870.5301395921852,None,870.5301395921852,None,1,2.501022502739943,870.5301395921852,None,873.0645314262401,None,873.0645314262401,None,873.0645314262401,None,873.0645314262401,None,873.0645314262401,None,873.0645314262401,None,873.0645314262401,None,877.0660478213249,None,877.0660478213249,None,877.0660478213249,None,877.0660478213249,None,877.0660478213249,None,877.0660478213249,None,877.0660478213249,None,886.5528618397402,None,878.0496573791897,None,879.050027918438,None,1.0,7.502727047281951,882.0511564952394,None,None,882.0511564952394,None,,,,,,,,,,,,,,,,,,,,24267,2020_Feb_05_1649,Mmi_3levels,3.1.5,59.977833434834686,
,,,2,0,1.3,,,,,,,,,0,1,1,1,0,21,21,15,,,,,,,,,,,,,,,,,,,,,,,,,,,,,,,,,,,,,,,,,,,,,,,,,,,,,,,,,,,,False,False,True,1.0,1.0,22.0,5.333333333333333,0.325,-5.008333333333333,-2.3416666666666663,gamble,win,0.325,-34.083333333333286,888.5702791043732,None,888.5702791043732,None,888.5702791043732,None,888.5702791043732,None,888.5702791043732,None,888.5702791043732,None,888.5702791043732,None,None,,888.5702791043732,None,891.5713942419243,None,891.5713942419243,None,891.5713942419243,None,891.5713942419243,None,891.5713942419243,None,891.5713942419243,None,891.5713942419243,None,895.5729816730272,None,895.5729816730272,None,895.5729816730272,None,895.5729816730272,None,895.5729816730272,None,895.5729816730272,None,895.5729816730272,None,896.5566936251598,None,,,,,,,,,,,,,,,,,,,,,,,,,,,,,,,24267,2020_Feb_05_1649,Mmi_3levels,3.1.5,59.977833434834686,
,,,2,0,8.7,,,,,,,,,0,1,1,1,0,22,22,1,,,,,,,,,,,,,,,,,,,,,,,,,,,,,,,,,,,,,,,,,,,,,,,,,,,,,,,,,,,,False,True,True,1.0,1.0,23.0,-37.0,8.7,-28.3,-9.8,gamble,lose,-28.3,-62.38333333333328,898.5740875310985,None,898.5740875310985,None,898.5740875310985,None,898.5740875310985,None,898.5740875310985,None,898.5740875310985,None,898.5740875310985,None,1,1.2840692121244501,898.5740875310985,None,899.8912364907592,None,899.8912364907592,None,899.8912364907592,None,899.8912364907592,None,899.8912364907592,None,899.8912364907592,None,899.8912364907592,None,903.8927458462349,None,903.8927458462349,None,903.8927458462349,None,903.8927458462349,None,903.8927458462349,None,903.8927458462349,None,903.8927458462349,None,913.3796968169809,None,904.8764779572375,None,905.8768401769521,None,1.0,7.502762885276752,908.8779786731975,None,None,908.8779786731975,None,,,,,,,,,,,,,,,,,,,,24267,2020_Feb_05_1649,Mmi_3levels,3.1.5,59.977833434834686,
,,,2,0,9.1,,,,,,,,,0,1,1,1,0,23,23,19,,,,,,,,,,,,,,,,,,,,,,,,,,,,,,,,,,,,,,,,,,,,,,,,,,,,,,,,,,,,False,True,False,1.0,1.0,24.0,-38.0,9.1,-28.9,-9.899999999999999,gamble,lose,-28.9,-91.28333333333327,915.3971313606453,None,915.3971313606453,None,915.3971313606453,None,915.3971313606453,None,915.3971313606453,None,915.3971313606453,None,915.3971313606453,None,1,2.3511432159793912,915.3971313606453,None,917.7813543241609,None,917.7813543241609,None,917.7813543241609,None,917.7813543241609,None,917.7813543241609,None,917.7813543241609,None,917.7813543241609,None,921.7828780788295,None,921.7828780788295,None,921.7828780788295,None,921.7828780788295,None,921.7828780788295,None,921.7828780788295,None,921.7828780788295,None,922.7666085899218,None,,,,,,,,,,,,,,,,,,,,,,,,,,,,,,,24267,2020_Feb_05_1649,Mmi_3levels,3.1.5,59.977833434834686,
,,,2,0,2.3,,,,,,,,,0,1,1,1,0,24,24,24,,,,,,,,,,,,,,,,,,,,,,,,,,,,,,,,,,,,,,,,,,,,,,,,,,,,,,,,,,,,False,True,False,1.0,1.0,25.0,-39.0,2.3,-36.7,-17.200000000000003,gamble,lose,-36.7,-127.98333333333328,924.7840028158425,None,924.7840028158425,None,924.7840028158425,None,924.7840028158425,None,924.7840028158425,None,924.7840028158425,None,924.7840028158425,None,1,2.2010517810995225,924.7840028158425,None,927.0181708224372,None,927.0181708224372,None,927.0181708224372,None,927.0181708224372,None,927.0181708224372,None,927.0181708224372,None,927.0181708224372,None,931.0197124961014,None,931.0197124961014,None,931.0197124961014,None,931.0197124961014,None,931.0197124961014,None,931.0197124961014,None,931.0197124961014,None,932.0034106890016,None,,,,,,,,,,,,,,,,,,,,,,,,,,,,,,,24267,2020_Feb_05_1649,Mmi_3levels,3.1.5,59.977833434834686,
,,,2,0,0.5,,,,,,,,,0,1,1,1,0,25,25,18,,,,,,,,,,,,,,,,,,,,,,,,,,,,,,,,,,,,,,,,,,,,,,,,,,,,,,,,,,,,False,True,True,1.0,1.0,26.0,-40.0,0.5,-39.5,-19.5,certain,certain,-19.5,-147.4833333333333,934.020841712867,None,934.020841712867,None,934.020841712867,None,934.020841712867,None,934.020841712867,None,934.020841712867,None,934.020841712867,None,3,1.9343825545765867,934.020841712867,None,935.9882368187391,None,935.9882368187391,None,935.9882368187391,None,935.9882368187391,None,935.9882368187391,None,935.9882368187391,None,935.9882368187391,None,939.9897775324607,None,939.9897775324607,None,939.9897775324607,None,939.9897775324607,None,939.9897775324607,None,939.9897775324607,None,939.9897775324607,None,949.4766741062522,None,940.9734322077966,None,941.9738101066359,None,1.0,7.502767365029285,944.9749585223253,None,None,944.9749585223253,None,,,,,,,,,,,,,,,,,,,,24267,2020_Feb_05_1649,Mmi_3levels,3.1.5,59.977833434834686,
,,,2,0,0.1,,,,,,,,,0,1,1,1,0,26,26,0,,,,,,,,,,,,,,,,,,,,,,,,,,,,,,,,,,,,,,,,,,,,,,,,,,,,,,,,,,,,False,False,True,1.0,1.0,27.0,5.75,0.025,-5.725,-2.8499999999999996,gamble,win,0.025,-147.4583333333333,951.4941684865662,None,951.4941684865662,None,951.4941684865662,None,951.4941684865662,None,951.4941684865662,None,951.4941684865662,None,951.4941684865662,None,None,,951.4941684865662,None,954.4952922636367,None,954.4952922636367,None,954.4952922636367,None,954.4952922636367,None,954.4952922636367,None,954.4952922636367,None,954.4952922636367,None,958.4800950346798,None,958.4800950346798,None,958.4800950346798,None,958.4800950346798,None,958.4800950346798,None,958.4800950346798,None,958.4800950346798,None,959.4804582143406,None,,,,,,,,,,,,,,,,,,,,,,,,,,,,,,,24267,2020_Feb_05_1649,Mmi_3levels,3.1.5,59.977833434834686,
,,,3,1,9.3,,,,,,,,,0,2,2,2,0,0,0,8,,,,,,,,,,,,,,,,,,,,,,,,,,,,,,,,,,,,,,,,,,,,,,,,,963.8488311854562,None,1.0,6.851334405273519,966.8666289087814,None,4,966.8666289087814,None,970.7014013615262,None,True,True,False,1.0,0.0,0.0,0.03,9.3,9.270000000000001,4.635000000000001,gamble,win,9.3,-138.15833333333327,973.7192422824337,None,973.7192422824337,None,973.7192422824337,None,973.7192422824337,None,973.7192422824337,None,973.7192422824337,None,973.7192422824337,None,1,1.7342232035007328,973.7192422824337,None,975.4865340340948,None,975.4865340340948,None,975.4865340340948,None,975.4865340340948,None,975.4865340340948,None,975.4865340340948,None,975.4865340340948,None,979.4713579239578,None,979.4713579239578,None,979.4713579239578,None,979.4713579239578,None,979.4713579239578,None,979.4713579239578,None,979.4713579239578,None,988.9750157991184,None,980.4718481365053,None,981.472170998426,None,1.0,7.502714567985095,984.4732931755825,None,None,984.4732931755825,None,961.4812290511763,None,4,2.351284008094808,961.4812290511763,None,3.8183512923278613,,,,,,,,,,,,,24267,2020_Feb_05_1649,Mmi_3levels,3.1.5,59.977833434834686,
,,,3,1,10.1,,,,,,,,,0,2,2,2,0,1,1,23,,,,,,,,,,,,,,,,,,,,,,,,,,,,,,,,,,,,,,,,,,,,,,,,,,,,,,,,,,,,True,True,False,1.0,0.0,0.0,0.03,10.1,10.07,5.035,gamble,win,10.1,-128.05833333333328,990.9924106650033,None,990.9924106650033,None,990.9924106650033,None,990.9924106650033,None,990.9924106650033,None,990.9924106650033,None,990.9924106650033,None,1,1.4175334181272774,990.9924106650033,None,992.4429937523528,None,992.4429937523528,None,992.4429937523528,None,992.4429937523528,None,992.4429937523528,None,992.4429937523528,None,992.4429937523528,None,996.4444794291521,None,996.4444794291521,None,996.4444794291521,None,996.4444794291521,None,996.4444794291521,None,996.4444794291521,None,996.4444794291521,None,997.428160982985,None,,,,,,,,,,,,,,,,,,,,,,,,,,,,,,,24267,2020_Feb_05_1649,Mmi_3levels,3.1.5,59.977833434834686,
,,,3,1,2.3,,,,,,,,,0,2,2,2,0,2,2,0,,,,,,,,,,,,,,,,,,,,,,,,,,,,,,,,,,,,,,,,,,,,,,,,,,,,,,,,,,,,True,True,True,1.0,0.0,0.0,0.03,2.3,2.27,1.135,gamble,win,2.3,-125.75833333333328,999.4456041661688,None,999.4456041661688,None,999.4456041661688,None,999.4456041661688,None,999.4456041661688,None,999.4456041661688,None,999.4456041661688,None,1,1.7007277992452146,999.4456041661688,None,1001.179557304793,None,1001.179557304793,None,1001.179557304793,None,1001.179557304793,None,1001.179557304793,None,1001.179557304793,None,1001.179557304793,None,1005.1644410313056,None,1005.1644410313056,None,1005.1644410313056,None,1005.1644410313056,None,1005.1644410313056,None,1005.1644410313056,None,1005.1644410313056,None,1006.1648390890114,None,,,,,,,,,,,,,,,,,,,,,,,,,,,,,,,24267,2020_Feb_05_1649,Mmi_3levels,3.1.5,59.977833434834686,
,,,3,1,6.9,,,,,,,,,0,2,2,2,0,3,3,5,,,,,,,,,,,,,,,,,,,,,,,,,,,,,,,,,,,,,,,,,,,,,,,,,,,,,,,,,,,,True,True,False,1.0,0.0,0.0,0.03,6.9,6.87,3.435,gamble,win,6.9,-118.85833333333328,1008.1822624333072,None,1008.1822624333072,None,1008.1822624333072,None,1008.1822624333072,None,1008.1822624333072,None,1008.1822624333072,None,1008.1822624333072,None,1,1.0673018310953921,1008.1822624333072,None,1009.2659755053719,None,1009.2659755053719,None,1009.2659755053719,None,1009.2659755053719,None,1009.2659755053719,None,1009.2659755053719,None,1009.2659755053719,None,1013.267533818107,None,1013.267533818107,None,1013.267533818107,None,1013.267533818107,None,1013.267533818107,None,1013.267533818107,None,1013.267533818107,None,1022.771095058677,None,1014.2679171566415,None,1015.2682454582573,None,1.0,7.502733126944804,1018.2693676354138,None,None,1018.2693676354138,None,,,,,,,,,,,,,,,,,,,,24267,2020_Feb_05_1649,Mmi_3levels,3.1.5,59.977833434834686,
,,,3,1,6.1,,,,,,,,,0,2,2,2,0,4,4,2,,,,,,,,,,,,,,,,,,,,,,,,,,,,,,,,,,,,,,,,,,,,,,,,,,,,,,,,,,,,True,True,False,1.0,0.0,0.0,0.03,6.1,6.069999999999999,3.0349999999999997,gamble,win,6.1,-112.75833333333328,1024.7885408017173,None,1024.7885408017173,None,1024.7885408017173,None,1024.7885408017173,None,1024.7885408017173,None,1024.7885408017173,None,1024.7885408017173,None,1,1.2507395585853374,1024.7885408017173,None,1026.0723943459197,None,1026.0723943459197,None,1026.0723943459197,None,1026.0723943459197,None,1026.0723943459197,None,1026.0723943459197,None,1026.0723943459197,None,1030.0571887974293,None,1030.0571887974293,None,1030.0571887974293,None,1030.0571887974293,None,1030.0571887974293,None,1030.0571887974293,None,1030.0571887974293,None,1031.057608293937,None,,,,,,,,,,,,,,,,,,,,,,,,,,,,,,,24267,2020_Feb_05_1649,Mmi_3levels,3.1.5,59.977833434834686,
,,,3,1,9.5,,,,,,,,,0,2,2,2,0,5,5,17,,,,,,,,,,,,,,,,,,,,,,,,,,,,,,,,,,,,,,,,,,,,,,,,,,,,,,,,,,,,True,True,True,1.0,0.0,0.0,0.03,9.5,9.47,4.735,gamble,win,9.5,-103.25833333333328,1033.0750181989824,None,1033.0750181989824,None,1033.0750181989824,None,1033.0750181989824,None,1033.0750181989824,None,1033.0750181989824,None,1033.0750181989824,None,1,1.1840613725653384,1033.0750181989824,None,1034.2921359603897,None,1034.2921359603897,None,1034.2921359603897,None,1034.2921359603897,None,1034.2921359603897,None,1034.2921359603897,None,1034.2921359603897,None,1038.2936664346817,None,1038.2936664346817,None,1038.2936664346817,None,1038.2936664346817,None,1038.2936664346817,None,1038.2936664346817,None,1038.2936664346817,None,1047.7805754877736,None,1039.277314070412,None,1040.2777127680856,None,1.0,7.502694409111427,1043.2788131864618,None,None,1043.2788131864618,None,,,,,,,,,,,,,,,,,,,,24267,2020_Feb_05_1649,Mmi_3levels,3.1.5,59.977833434834686,
,,,3,1,8.7,,,,,,,,,0,2,2,2,0,6,6,13,,,,,,,,,,,,,,,,,,,,,,,,,,,,,,,,,,,,,,,,,,,,,,,,,,,,,,,,,,,,True,True,False,1.0,0.0,0.0,0.03,8.7,8.67,4.335,gamble,win,8.7,-94.55833333333328,1049.798004591743,None,1049.798004591743,None,1049.798004591743,None,1049.798004591743,None,1049.798004591743,None,1049.798004591743,None,1049.798004591743,None,1,1.250764517186326,1049.798004591743,None,1051.0818277376493,None,1051.0818277376493,None,1051.0818277376493,None,1051.0818277376493,None,1051.0818277376493,None,1051.0818277376493,None,1051.0818277376493,None,1055.0667549817226,None,1055.0667549817226,None,1055.0667549817226,None,1055.0667549817226,None,1055.0667549817226,None,1055.0667549817226,None,1055.0667549817226,None,1056.0670282464198,None,,,,,,,,,,,,,,,,,,,,,,,,,,,,,,,24267,2020_Feb_05_1649,Mmi_3levels,3.1.5,59.977833434834686,
,,,3,1,13.7,,,,,,,,,0,2,2,2,0,7,7,15,,,,,,,,,,,,,,,,,,,,,,,,,,,,,,,,,,,,,,,,,,,,,,,,,,,,,,,,,,,,True,True,False,1.0,0.0,0.0,0.03,13.7,13.67,6.835,gamble,win,13.7,-80.85833333333328,1058.0844531906223,None,1058.0844531906223,None,1058.0844531906223,None,1058.0844531906223,None,1058.0844531906223,None,1058.0844531906223,None,1058.0844531906223,None,1,0.9673224699436105,1058.0844531906223,None,1059.0848419688518,None,1059.0848419688518,None,1059.0848419688518,None,1059.0848419688518,None,1059.0848419688518,None,1059.0848419688518,None,1059.0848419688518,None,1063.0863993216408,None,1063.0863993216408,None,1063.0863993216408,None,1063.0863993216408,None,1063.0863993216408,None,1063.0863993216408,None,1063.0863993216408,None,1072.5733038949838,None,1064.070067436227,None,1065.0705259705464,None,1.0,7.502519058933103,1068.0715595126676,None,None,1068.0715595126676,None,,,,,,,,,,,,,,,,,,,,24267,2020_Feb_05_1649,Mmi_3levels,3.1.5,59.977833434834686,
,,,3,1,10.7,,,,,,,,,0,2,2,2,0,8,8,10,,,,,,,,,,,,,,,,,,,,,,,,,,,,,,,,,,,,,,,,,,,,,,,,,,,,,,,,,,,,True,True,False,1.0,0.0,0.0,0.03,10.7,10.67,5.335,gamble,win,10.7,-70.15833333333327,1074.5907058004777,None,1074.5907058004777,None,1074.5907058004777,None,1074.5907058004777,None,1074.5907058004777,None,1074.5907058004777,None,1074.5907058004777,None,1,0.9506450038788898,1074.5907058004777,None,1075.5744177526067,None,1075.5744177526067,None,1075.5744177526067,None,1075.5744177526067,None,1075.5744177526067,None,1075.5744177526067,None,1075.5744177526067,None,1079.5759792651625,None,1079.5759792651625,None,1079.5759792651625,None,1079.5759792651625,None,1079.5759792651625,None,1079.5759792651625,None,1079.5759792651625,None,1080.5596160215027,None,,,,,,,,,,,,,,,,,,,,,,,,,,,,,,,24267,2020_Feb_05_1649,Mmi_3levels,3.1.5,59.977833434834686,
,,,3,1,7.9,,,,,,,,,0,2,2,2,0,9,9,11,,,,,,,,,,,,,,,,,,,,,,,,,,,,,,,,,,,,,,,,,,,,,,,,,,,,,,,,,,,,True,True,False,1.0,0.0,0.0,0.03,7.9,7.87,3.935,gamble,win,7.9,-62.258333333333276,1082.5771622389148,None,1082.5771622389148,None,1082.5771622389148,None,1082.5771622389148,None,1082.5771622389148,None,1082.5771622389148,None,1082.5771622389148,None,1,0.9837721087606042,1082.5771622389148,None,1083.594139208206,None,1083.594139208206,None,1083.594139208206,None,1083.594139208206,None,1083.594139208206,None,1083.594139208206,None,1083.594139208206,None,1087.5789512587326,None,1087.5789512587326,None,1087.5789512587326,None,1087.5789512587326,None,1087.5789512587326,None,1087.5789512587326,None,1087.5789512587326,None,1088.5793624357066,None,,,,,,,,,,,,,,,,,,,,,,,,,,,,,,,24267,2020_Feb_05_1649,Mmi_3levels,3.1.5,59.977833434834686,
,,,3,1,1.1,,,,,,,,,0,2,2,2,0,10,10,19,,,,,,,,,,,,,,,,,,,,,,,,,,,,,,,,,,,,,,,,,,,,,,,,,,,,,,,,,,,,True,False,False,1.0,0.0,0.0,-0.03,1.1,1.07,1.085,gamble,lose,1.07,-61.188333333333276,1090.5967624213044,None,1090.5967624213044,None,1090.5967624213044,None,1090.5967624213044,None,1090.5967624213044,None,1090.5967624213044,None,1090.5967624213044,None,1,1.6676134936424205,1090.5967624213044,None,1092.2974380634696,None,1092.2974380634696,None,1092.2974380634696,None,1092.2974380634696,None,1092.2974380634696,None,1092.2974380634696,None,1092.2974380634696,None,1096.2823009911444,None,1096.2823009911444,None,1096.2823009911444,None,1096.2823009911444,None,1096.2823009911444,None,1096.2823009911444,None,1096.2823009911444,None,1105.785902229476,None,1097.2826340924912,None,1098.2830599886438,None,1.0,7.502770884831989,1101.284143447967,None,None,1101.284143447967,None,,,,,,,,,,,,,,,,,,,,24267,2020_Feb_05_1649,Mmi_3levels,3.1.5,59.977833434834686,
,,,3,1,9.9,,,,,,,,,0,2,2,2,0,11,11,6,,,,,,,,,,,,,,,,,,,,,,,,,,,,,,,,,,,,,,,,,,,,,,,,,,,,,,,,,,,,True,True,False,1.0,0.0,0.0,0.03,9.9,9.870000000000001,4.9350000000000005,gamble,win,9.9,-51.28833333333328,1107.8033034950058,None,1107.8033034950058,None,1107.8033034950058,None,1107.8033034950058,None,1107.8033034950058,None,1107.8033034950058,None,1107.8033034950058,None,1,1.1340299343246443,1107.8033034950058,None,1108.970418296576,None,1108.970418296576,None,1108.970418296576,None,1108.970418296576,None,1108.970418296576,None,1108.970418296576,None,1108.970418296576,None,1112.955251145937,None,1112.955251145937,None,1112.955251145937,None,1112.955251145937,None,1112.955251145937,None,1112.955251145937,None,1112.955251145937,None,1113.955632564579,None,,,,,,,,,,,,,,,,,,,,,,,,,,,,,,,24267,2020_Feb_05_1649,Mmi_3levels,3.1.5,59.977833434834686,
,,,3,1,7.1,,,,,,,,,0,2,2,2,0,12,12,4,,,,,,,,,,,,,,,,,,,,,,,,,,,,,,,,,,,,,,,,,,,,,,,,,,,,,,,,,,,,True,True,True,1.0,0.0,0.0,0.03,7.1,7.069999999999999,3.5349999999999997,gamble,win,7.1,-44.188333333333276,1115.9730575087815,None,1115.9730575087815,None,1115.9730575087815,None,1115.9730575087815,None,1115.9730575087815,None,1115.9730575087815,None,1115.9730575087815,None,1,0.9506494836277852,1115.9730575087815,None,1116.9567931395868,None,1116.9567931395868,None,1116.9567931395868,None,1116.9567931395868,None,1116.9567931395868,None,1116.9567931395868,None,1116.9567931395868,None,1120.9415840712936,None,1120.9415840712936,None,1120.9415840712936,None,1120.9415840712936,None,1120.9415840712936,None,1120.9415840712936,None,1120.9415840712936,None,1130.4452051485132,None,1121.94207876359,None,1122.9423629076773,None,1.0,7.5027593654740485,1125.9435116433488,None,None,1125.9435116433488,None,,,,,,,,,,,,,,,,,,,,24267,2020_Feb_05_1649,Mmi_3levels,3.1.5,59.977833434834686,
,,,3,1,1.3,,,,,,,,,0,2,2,2,0,13,13,16,,,,,,,,,,,,,,,,,,,,,,,,,,,,,,,,,,,,,,,,,,,,,,,,,,,,,,,,,,,,True,True,False,1.0,0.0,0.0,0.03,1.3,1.27,1.2850000000000001,gamble,win,1.3,-42.88833333333328,1132.4626160135049,None,1132.4626160135049,None,1132.4626160135049,None,1132.4626160135049,None,1132.4626160135049,None,1132.4626160135049,None,1132.4626160135049,None,1,1.8009749854027177,1132.4626160135049,None,1134.296664346799,None,1134.296664346799,None,1134.296664346799,None,1134.296664346799,None,1134.296664346799,None,1134.296664346799,None,1134.296664346799,None,1138.281503275819,None,1138.281503275819,None,1138.281503275819,None,1138.281503275819,None,1138.281503275819,None,1138.281503275819,None,1138.281503275819,None,1139.2819582903358,None,,,,,,,,,,,,,,,,,,,,,,,,,,,,,,,24267,2020_Feb_05_1649,Mmi_3levels,3.1.5,59.977833434834686,
,,,3,1,5.9,,,,,,,,,0,2,2,2,0,14,14,14,,,,,,,,,,,,,,,,,,,,,,,,,,,,,,,,,,,,,,,,,,,,,,,,,,,,,,,,,,,,True,True,True,1.0,0.0,0.0,0.03,5.9,5.87,2.935,gamble,win,5.9,-36.98833333333328,1141.2992923596285,None,1141.2992923596285,None,1141.2992923596285,None,1141.2992923596285,None,1141.2992923596285,None,1141.2992923596285,None,1141.2992923596285,None,1,1.2174159847054398,1141.2992923596285,None,1142.5497864919598,None,1142.5497864919598,None,1142.5497864919598,None,1142.5497864919598,None,1142.5497864919598,None,1142.5497864919598,None,1142.5497864919598,None,1146.5513096066643,None,1146.5513096066643,None,1146.5513096066643,None,1146.5513096066643,None,1146.5513096066643,None,1146.5513096066643,None,1146.5513096066643,None,1147.5349847608559,None,,,,,,,,,,,,,,,,,,,,,,,,,,,,,,,24267,2020_Feb_05_1649,Mmi_3levels,3.1.5,59.977833434834686,
,,,3,1,11.3,,,,,,,,,0,2,2,2,0,15,15,20,,,,,,,,,,,,,,,,,,,,,,,,,,,,,,,,,,,,,,,,,,,,,,,,,,,,,,,,,,,,True,True,True,1.0,0.0,0.0,0.03,11.3,11.270000000000001,5.635000000000001,gamble,win,11.3,-25.68833333333328,1149.5524007455606,None,1149.5524007455606,None,1149.5524007455606,None,1149.5524007455606,None,1149.5524007455606,None,1149.5524007455606,None,1149.5524007455606,None,1,1.1674399033654481,1149.5524007455606,None,1150.7528992776424,None,1150.7528992776424,None,1150.7528992776424,None,1150.7528992776424,None,1150.7528992776424,None,1150.7528992776424,None,1150.7528992776424,None,1154.7377337269136,None,1154.7377337269136,None,1154.7377337269136,None,1154.7377337269136,None,1154.7377337269136,None,1154.7377337269136,None,1154.7377337269136,None,1164.2413135264433,None,1155.7381394641925,None,1156.7384796051447,None,1.0,7.5026864095598285,1159.7396136216375,None,None,1159.7396136216375,None,,,,,,,,,,,,,,,,,,,,24267,2020_Feb_05_1649,Mmi_3levels,3.1.5,59.977833434834686,
,,,3,1,-1.1,,,,,,,,,0,2,2,2,0,16,16,25,,,,,,,,,,,,,,,,,,,,,,,,,,,,,,,,,,,,,,,,,,,,,,,,,,,,,,,,,,,,True,True,False,1.0,0.0,0.0,0.03,-1.1,-1.1300000000000001,-1.1150000000000002,gamble,win,-1.1,-26.78833333333328,1166.2587608693939,None,1166.2587608693939,None,1166.2587608693939,None,1166.2587608693939,None,1166.2587608693939,None,1166.2587608693939,None,1166.2587608693939,None,1,2.734443671153713,1166.2587608693939,None,1169.026478517204,None,1169.026478517204,None,1169.026478517204,None,1169.026478517204,None,1169.026478517204,None,1169.026478517204,None,1169.026478517204,None,1173.0279721935585,None,1173.0279721935585,None,1173.0279721935585,None,1173.0279721935585,None,1173.0279721935585,None,1173.0279721935585,None,1173.0279721935585,None,1174.0116995048302,None,,,,,,,,,,,,,,,,,,,,,,,,,,,,,,,24267,2020_Feb_05_1649,Mmi_3levels,3.1.5,59.977833434834686,
,,,3,1,8.3,,,,,,,,,0,2,2,2,0,17,17,3,,,,,,,,,,,,,,,,,,,,,,,,,,,,,,,,,,,,,,,,,,,,,,,,,,,,,,,,,,,,True,True,True,1.0,0.0,0.0,0.03,8.3,8.270000000000001,4.135000000000001,gamble,win,8.3,-18.48833333333328,1176.0291337285125,None,1176.0291337285125,None,1176.0291337285125,None,1176.0291337285125,None,1176.0291337285125,None,1176.0291337285125,None,1176.0291337285125,None,1,1.5842076043736597,1176.0291337285125,None,1177.6463900421586,None,1177.6463900421586,None,1177.6463900421586,None,1177.6463900421586,None,1177.6463900421586,None,1177.6463900421586,None,1177.6463900421586,None,1181.6312433703715,None,1181.6312433703715,None,1181.6312433703715,None,1181.6312433703715,None,1181.6312433703715,None,1181.6312433703715,None,1181.6312433703715,None,1191.134809090694,None,1182.6316599870406,None,1183.6320103674225,None,1.0,7.502766405079456,1186.6331095058704,None,None,1186.6331095058704,None,,,,,,,,,,,,,,,,,,,,24267,2020_Feb_05_1649,Mmi_3levels,3.1.5,59.977833434834686,
,,,3,1,2.5,,,,,,,,,0,2,2,2,0,18,18,21,,,,,,,,,,,,,,,,,,,,,,,,,,,,,,,,,,,,,,,,,,,,,,,,,,,,,,,,,,,,True,True,True,1.0,0.0,0.0,0.03,2.5,2.47,1.235,gamble,win,2.5,-15.98833333333328,1193.1522871519228,None,1193.1522871519228,None,1193.1522871519228,None,1193.1522871519228,None,1193.1522871519228,None,1193.1522871519228,None,1193.1522871519228,None,1,1.2673719071717642,1193.1522871519228,None,1194.4527512859313,None,1194.4527512859313,None,1194.4527512859313,None,1194.4527512859313,None,1194.4527512859313,None,1194.4527512859313,None,1194.4527512859313,None,1198.4376119737317,None,1198.4376119737317,None,1198.4376119737317,None,1198.4376119737317,None,1198.4376119737317,None,1198.4376119737317,None,1198.4376119737317,None,1199.4379703536615,None,,,,,,,,,,,,,,,,,,,,,,,,,,,,,,,24267,2020_Feb_05_1649,Mmi_3levels,3.1.5,59.977833434834686,
,,,3,1,-0.1,,,,,,,,,0,2,2,2,0,19,19,12,,,,,,,,,,,,,,,,,,,,,,,,,,,,,,,,,,,,,,,,,,,,,,,,,,,,,,,,,,,,True,False,False,1.0,0.0,0.0,-0.03,-0.1,-0.13,-0.115,gamble,lose,-0.13,-16.11833333333328,1201.4554234562893,None,1201.4554234562893,None,1201.4554234562893,None,1201.4554234562893,None,1201.4554234562893,None,1201.4554234562893,None,1201.4554234562893,None,1,2.5178778788394993,1201.4554234562893,None,1204.006388762231,None,1204.006388762231,None,1204.006388762231,None,1204.006388762231,None,1204.006388762231,None,1204.006388762231,None,1204.006388762231,None,1208.007914756774,None,1208.007914756774,None,1208.007914756774,None,1208.007914756774,None,1208.007914756774,None,1208.007914756774,None,1208.007914756774,None,1217.4948298895288,None,1208.9916404681353,None,1209.9920231667056,None,1.0,7.502754565746727,1212.9932103002247,None,None,1212.9932103002247,None,,,,,,,,,,,,,,,,,,,,24267,2020_Feb_05_1649,Mmi_3levels,3.1.5,59.977833434834686,
,,,3,1,2.7,,,,,,,,,0,2,2,2,0,20,20,1,,,,,,,,,,,,,,,,,,,,,,,,,,,,,,,,,,,,,,,,,,,,,,,,,,,,,,,,,,,,True,True,False,1.0,0.0,0.0,0.03,2.7,2.6700000000000004,1.3350000000000002,gamble,win,2.7,-13.41833333333328,1219.5122567536237,None,1219.5122567536237,None,1219.5122567536237,None,1219.5122567536237,None,1219.5122567536237,None,1219.5122567536237,None,1219.5122567536237,None,1,1.150757637573406,1219.5122567536237,None,1220.696038781829,None,1220.696038781829,None,1220.696038781829,None,1220.696038781829,None,1220.696038781829,None,1220.696038781829,None,1220.696038781829,None,1224.6808818706158,None,1224.6808818706158,None,1224.6808818706158,None,1224.6808818706158,None,1224.6808818706158,None,1224.6808818706158,None,1224.6808818706158,None,1225.681238330657,None,,,,,,,,,,,,,,,,,,,,,,,,,,,,,,,24267,2020_Feb_05_1649,Mmi_3levels,3.1.5,59.977833434834686,
,,,3,1,-0.9,,,,,,,,,0,2,2,2,0,21,21,22,,,,,,,,,,,,,,,,,,,,,,,,,,,,,,,,,,,,,,,,,,,,,,,,,,,,,,,,,,,,True,True,True,1.0,0.0,0.0,0.03,-0.9,-0.93,-0.915,certain,certain,-0.915,-14.333333333333279,1227.6986882334604,None,1227.6986882334604,None,1227.6986882334604,None,1227.6986882334604,None,1227.6986882334604,None,1227.6986882334604,None,1227.6986882334604,None,3,2.401168894542934,1227.6986882334604,None,1230.1329032774192,None,1230.1329032774192,None,1230.1329032774192,None,1230.1329032774192,None,1230.1329032774192,None,1230.1329032774192,None,1230.1329032774192,None,1234.1344436711552,None,1234.1344436711552,None,1234.1344436711552,None,1234.1344436711552,None,1234.1344436711552,None,1234.1344436711552,None,1234.1344436711552,None,1235.1181697024986,None,,,,,,,,,,,,,,,,,,,,,,,,,,,,,,,24267,2020_Feb_05_1649,Mmi_3levels,3.1.5,59.977833434834686,
,,,3,1,0.7,,,,,,,,,0,2,2,2,0,22,22,26,,,,,,,,,,,,,,,,,,,,,,,,,,,,,,,,,,,,,,,,,,,,,,,,,,,,,,,,,,,,True,True,True,1.0,0.0,0.0,0.03,0.7,0.6699999999999999,0.6849999999999999,certain,certain,0.6849999999999999,-13.648333333333278,1237.1355904869342,None,1237.1355904869342,None,1237.1355904869342,None,1237.1355904869342,None,1237.1355904869342,None,1237.1355904869342,None,1237.1355904869342,None,3,2.4345033478130063,1237.1355904869342,None,1239.6031774220646,None,1239.6031774220646,None,1239.6031774220646,None,1239.6031774220646,None,1239.6031774220646,None,1239.6031774220646,None,1239.6031774220646,None,1243.588013471246,None,1243.588013471246,None,1243.588013471246,None,1243.588013471246,None,1243.588013471246,None,1243.588013471246,None,1243.588013471246,None,1253.0915951906718,None,1244.5884220883636,None,1245.5887753485804,None,1.0,7.50270368859492,1248.5899397633766,None,None,1248.5899397633766,None,,,,,,,,,,,,,,,,,,,,24267,2020_Feb_05_1649,Mmi_3levels,3.1.5,59.977833434834686,
,,,3,1,10.9,,,,,,,,,0,2,2,2,0,23,23,7,,,,,,,,,,,,,,,,,,,,,,,,,,,,,,,,,,,,,,,,,,,,,,,,,,,,,,,,,,,,True,False,False,1.0,0.0,0.0,-0.03,10.9,10.870000000000001,5.4350000000000005,gamble,lose,10.870000000000001,-2.7783333333332774,1255.109064932367,None,1255.109064932367,None,1255.109064932367,None,1255.109064932367,None,1255.109064932367,None,1255.109064932367,None,1255.109064932367,None,1,1.1006714823961374,1255.109064932367,None,1256.2428619197344,None,1256.2428619197344,None,1256.2428619197344,None,1256.2428619197344,None,1256.2428619197344,None,1256.2428619197344,None,1256.2428619197344,None,1260.244345676645,None,1260.244345676645,None,1260.244345676645,None,1260.244345676645,None,1260.244345676645,None,1260.244345676645,None,1260.244345676645,None,1261.2280493092403,None,,,,,,,,,,,,,,,,,,,,,,,,,,,,,,,24267,2020_Feb_05_1649,Mmi_3levels,3.1.5,59.977833434834686,
,,,3,1,6.7,,,,,,,,,0,2,2,2,0,24,24,18,,,,,,,,,,,,,,,,,,,,,,,,,,,,,,,,,,,,,,,,,,,,,,,,,,,,,,,,,,,,True,True,True,1.0,0.0,0.0,0.03,6.7,6.67,3.335,gamble,win,6.7,3.921666666666723,1263.245475213389,None,1263.245475213389,None,1263.245475213389,None,1263.245475213389,None,1263.245475213389,None,1263.245475213389,None,1263.245475213389,None,1,1.033997136160906,1263.245475213389,None,1264.3125476173336,None,1264.3125476173336,None,1264.3125476173336,None,1264.3125476173336,None,1264.3125476173336,None,1264.3125476173336,None,1264.3125476173336,None,1268.2973964658013,None,1268.2973964658013,None,1268.2973964658013,None,1268.2973964658013,None,1268.2973964658013,None,1268.2973964658013,None,1268.2973964658013,None,1277.8009436271568,None,1269.297769884888,None,1270.2981541833688,None,1.0,7.502712328110647,1273.2992715607943,None,None,1273.2992715607943,None,,,,,,,,,,,,,,,,,,,,24267,2020_Feb_05_1649,Mmi_3levels,3.1.5,59.977833434834686,
,,,3,1,5.7,,,,,,,,,0,2,2,2,0,25,25,24,,,,,,,,,,,,,,,,,,,,,,,,,,,,,,,,,,,,,,,,,,,,,,,,,,,,,,,,,,,,True,True,True,1.0,0.0,0.0,0.03,5.7,5.67,2.835,gamble,win,5.7,9.621666666666723,1279.8184229683138,None,1279.8184229683138,None,1279.8184229683138,None,1279.8184229683138,None,1279.8184229683138,None,1279.8184229683138,None,1279.8184229683138,None,1,1.3172500739929092,1279.8184229683138,None,1281.1689342196842,None,1281.1689342196842,None,1281.1689342196842,None,1281.1689342196842,None,1281.1689342196842,None,1281.1689342196842,None,1281.1689342196842,None,1285.1537629092782,None,1285.1537629092782,None,1285.1537629092782,None,1285.1537629092782,None,1285.1537629092782,None,1285.1537629092782,None,1285.1537629092782,None,1286.1541840056962,None,,,,,,,,,,,,,,,,,,,,,,,,,,,,,,,24267,2020_Feb_05_1649,Mmi_3levels,3.1.5,59.977833434834686,
,,,3,1,3.1,,,,,,,,,0,2,2,2,0,26,26,9,,,,,,,,,,,,,,,,,,,,,,,,,,,,,,,,,,,,,,,,,,,,,,,,,,,,,,,,,,,,True,True,True,1.0,0.0,0.0,0.03,3.1,3.0700000000000003,1.5350000000000001,gamble,win,3.1,12.721666666666723,1288.1715843112797,None,1288.1715843112797,None,1288.1715843112797,None,1288.1715843112797,None,1288.1715843112797,None,1288.1715843112797,None,1288.1715843112797,None,1,1.3174596622593526,1288.1715843112797,None,1289.5221339605014,None,1289.5221339605014,None,1289.5221339605014,None,1289.5221339605014,None,1289.5221339605014,None,1289.5221339605014,None,1289.5221339605014,None,1293.5069828089654,None,1293.5069828089654,None,1293.5069828089654,None,1293.5069828089654,None,1293.5069828089654,None,1293.5069828089654,None,1293.5069828089654,None,1303.0104893325988,None,1294.5072915916717,None,1295.5076909293093,None,1.0,7.502631052659126,1298.5088195061107,None,None,1298.5088195061107,None,,,,,,,,,,,,,,,,,,,,24267,2020_Feb_05_1649,Mmi_3levels,3.1.5,59.977833434834686,
,,,,,,,,,,,,,,,,,,,,,,,,,,,,,,0,0,0,0,,,,,,,,,,,,,,,,,,,,,,,,,,,,,,,,,,,,,,,,,,,,,,,,,,,,,,,,,,,,,,,,,,,,,,,,,,,,,,,,,,,,,,,,,,,,,,,,,,,,,,,,,,,,,,,,,,,,,,,,,1305.0113158463137,None,4,2.1510197028983384,1305.0113158463137,None,,12.721666666666723,2,1307.195454014578,None,1307.195454014578,None,1307.195454014578,None,4,7.786468597758358,1307.195454014578,None,24267,2020_Feb_05_1649,Mmi_3levels,3.1.5,59.977833434834686,
