currSlide,currImage,currText,blockNum,targetHappiness,highAmount,instructionLoop1.thisRepN,instructionLoop1.thisTrialN,instructionLoop1.thisN,instructionLoop1.thisIndex,instructionLoop2.thisRepN,instructionLoop2.thisTrialN,instructionLoop2.thisN,instructionLoop2.thisIndex,blockLoop.thisRepN,blockLoop.thisTrialN,blockLoop.thisN,blockLoop.thisIndex,trialLoop.thisRepN,trialLoop.thisTrialN,trialLoop.thisN,trialLoop.thisIndex,doRatingLoop.thisRepN,doRatingLoop.thisTrialN,doRatingLoop.thisN,doRatingLoop.thisIndex,trialHappyLoop.thisRepN,trialHappyLoop.thisTrialN,trialHappyLoop.thisN,trialHappyLoop.thisIndex,logWinningsLoop.thisRepN,logWinningsLoop.thisTrialN,logWinningsLoop.thisN,logWinningsLoop.thisIndex,instrImage.started,instrImage.stopped,instrText.started,instrText.stopped,instrContinueText.started,instrContinueText.stopped,instrKeyResp.keys,instrKeyResp.rt,instrKeyResp.started,instrKeyResp.stopped,lifeHappyText.started,lifeHappyText.stopped,lifeHappySlider.response,lifeHappySlider.rt,lifeHappySlider.started,lifeHappySlider.stopped,lifeHappyResp.keys,lifeHappyResp.rt,lifeHappyResp.started,lifeHappyResp.stopped,instrImage_2.started,instrImage_2.stopped,instrText_2.started,instrText_2.stopped,instrContinueText_2.started,instrContinueText_2.stopped,instrKeyResp_2.keys,instrKeyResp_2.rt,instrKeyResp_2.started,instrKeyResp_2.stopped,localizing.started,localizing.stopped,start_exp.keys,start_exp.rt,start_exp.started,start_exp.stopped,blockHappyText.started,blockHappyText.stopped,blockHappySlider.response,blockHappySlider.rt,blockHappySlider.started,blockHappySlider.stopped,blockHappyResp.keys,blockHappyResp.rt,blockHappyResp.started,blockHappyResp.stopped,blankText.started,blankText.stopped,isHappyBlock,isCongruent,isWinOnTop,lastHappyRating,diff,sumDiff,RPE,winAmount,loseAmount,certainAmount,choice,outcome,outcomeAmount,currentWinnings,fixCross.started,fixCross.stopped,certainBox.started,certainBox.stopped,outcome1Box.started,outcome1Box.stopped,outcome2Box.started,outcome2Box.stopped,certainText.started,certainText.stopped,outcome1Text.started,outcome1Text.stopped,outcome2Text.started,outcome2Text.stopped,choiceKey.keys,choiceKey.rt,choiceKey.started,choiceKey.stopped,fixCross_2.started,fixCross_2.stopped,certainBox_2.started,certainBox_2.stopped,outcome1Box_2.started,outcome1Box_2.stopped,outcome2Box_2.started,outcome2Box_2.stopped,certainText_2.started,certainText_2.stopped,outcome1Text_2.started,outcome1Text_2.stopped,outcome2Text_2.started,outcome2Text_2.stopped,fixCross_3.started,fixCross_3.stopped,certainBox_3.started,certainBox_3.stopped,outcome1Box_3.started,outcome1Box_3.stopped,outcome2Box_3.started,outcome2Box_3.stopped,certainText_3.started,certainText_3.stopped,outcome1Text_3.started,outcome1Text_3.stopped,outcome2Text_3.started,outcome2Text_3.stopped,fixCross_ITI.started,fixCross_ITI.stopped,fixCross_ISI.started,fixCross_ISI.stopped,happyText.started,happyText.stopped,happySlider.response,happySlider.rt,happySlider.started,happySlider.stopped,happyResp.keys,happyResp.started,happyResp.stopped,endOfBlockText.started,endOfBlockText.stopped,restKeyResp.keys,restKeyResp.rt,restKeyResp.started,restKeyResp.stopped,finalWinnings,cashBonus,participant,date,expName,psychopyVersion,frameRate,
1,black.png,"Welcome! You are about to play our gambling task.
This task has 3 blocks and takes about 15 minutes.",,,,0,0,0,0,,,,,,,,,,,,,,,,,,,,,,,,,24.72694585105637,None,24.72694585105637,None,24.72694585105637,None,4,2.1510347420698963,24.72694585105637,None,,,,,,,,,,,,,,,,,,,,,,,,,,,,,,,,,,,,,,,,,,,,,,,,,,,,,,,,,,,,,,,,,,,,,,,,,,,,,,,,,,,,,,,,,,,,,,,,,,,,,,,,,,,,,,,,,,,,,,,,23607,2019_Dec_06_1329,Mmi_3levels,3.1.5,59.99234062387028,
2,black.png,"In this game, you may win or lose points. Your goal is to get as many points as possible. These points will be converted to a cash bonus at the end.
Sometimes we will ask you to rate your mood.",,,,0,1,1,1,,,,,,,,,,,,,,,,,,,,,,,,,26.927783564140555,None,26.927783564140555,None,26.927783564140555,None,4,1.917604934074916,26.927783564140555,None,,,,,,,,,,,,,,,,,,,,,,,,,,,,,,,,,,,,,,,,,,,,,,,,,,,,,,,,,,,,,,,,,,,,,,,,,,,,,,,,,,,,,,,,,,,,,,,,,,,,,,,,,,,,,,,,,,,,,,,,23607,2019_Dec_06_1329,Mmi_3levels,3.1.5,59.99234062387028,
3,black.png,"On the next screen, please rate how you feel about your life these days. Use the LEFT (green) and RIGHT (blue) buttons to move the slider (you can press and hold them to slide gradually) and the TOP (red) button to lock in your response.
Make your rating as accurately and quickly as you can!",,,,0,2,2,2,,,,,,,,,,,,,,,,,,,,,,,,,28.895222507533617,None,28.895222507533617,None,28.895222507533617,None,4,4.26847840519622,28.895222507533617,None,,,,,,,,,,,,,,,,,,,,,,,,,,,,,,,,,,,,,,,,,,,,,,,,,,,,,,,,,,,,,,,,,,,,,,,,,,,,,,,,,,,,,,,,,,,,,,,,,,,,,,,,,,,,,,,,,,,,,,,,23607,2019_Dec_06_1329,Mmi_3levels,3.1.5,59.99234062387028,
,,,,,,,,,,,,,,,,,,,,,,,,,,,,,,,,,,,,,,,,,,,,33.1801819098182,None,0.66,10.419701936654747,37.181688065466005,None,4,6.4026744102011435,37.181688065466005,None,,,,,,,,,,,,,,,,,,,,,,,,,,,,,,,,,,,,,,,,,,,,,,,,,,,,,,,,,,,,,,,,,,,,,,,,,,,,,,,,,,,,,,,,,,,,,,,,,,,,,,,,,,,,,,23607,2019_Dec_06_1329,Mmi_3levels,3.1.5,59.99234062387028,
4,black.png,"In this game you can win money by earning points according to your choices. You will decide whether to gamble a number of points or stick with a guaranteed number of points. 
Make your choice by pressing the left or right arrow key once. An example of one trial is shown on the next screen.",,,,,,,,0,0,0,0,,,,,,,,,,,,,,,,,,,,,,,,,,,,,,,,,,,,,,,,,43.63411264971364,None,43.63411264971364,None,43.63411264971364,None,4,3.4014728775364347,43.63411264971364,None,,,,,,,,,,,,,,,,,,,,,,,,,,,,,,,,,,,,,,,,,,,,,,,,,,,,,,,,,,,,,,,,,,,,,,,,,,,,,,,,,,,,,,,,,,,,,,,,,,,,23607,2019_Dec_06_1329,Mmi_3levels,3.1.5,59.99234062387028,
5,example_start.png,"The GAMBLING OPTION will be shown on the RIGHT SIDE. 
Select this option using the RIGHT (blue) button on your keypad.",,,,,,,,0,1,1,1,,,,,,,,,,,,,,,,,,,,,,,,,,,,,,,,,,,,,,,,,47.1187450303114,None,47.1187450303114,None,47.1187450303114,None,4,2.217708768264856,47.1187450303114,None,,,,,,,,,,,,,,,,,,,,,,,,,,,,,,,,,,,,,,,,,,,,,,,,,,,,,,,,,,,,,,,,,,,,,,,,,,,,,,,,,,,,,,,,,,,,,,,,,,,,23607,2019_Dec_06_1329,Mmi_3levels,3.1.5,59.99234062387028,
6,example_gamble.png,"Once you select the gambling choice, the choice you made will remain on the screen.",,,,,,,,0,2,2,2,,,,,,,,,,,,,,,,,,,,,,,,,,,,,,,,,,,,,,,,,49.36963274056325,None,49.36963274056325,None,49.36963274056325,None,4,2.1176753301988356,49.36963274056325,None,,,,,,,,,,,,,,,,,,,,,,,,,,,,,,,,,,,,,,,,,,,,,,,,,,,,,,,,,,,,,,,,,,,,,,,,,,,,,,,,,,,,,,,,,,,,,,,,,,,,23607,2019_Dec_06_1329,Mmi_3levels,3.1.5,59.99234062387028,
7,example_win.png,"The outcome you received will then be shown on the screen. In this example , you WON 10 points.",,,,,,,,0,3,3,3,,,,,,,,,,,,,,,,,,,,,,,,,,,,,,,,,,,,,,,,,51.52044893486891,None,51.52044893486891,None,51.52044893486891,None,4,2.6178597998805344,51.52044893486891,None,,,,,,,,,,,,,,,,,,,,,,,,,,,,,,,,,,,,,,,,,,,,,,,,,,,,,,,,,,,,,,,,,,,,,,,,,,,,,,,,,,,,,,,,,,,,,,,,,,,,23607,2019_Dec_06_1329,Mmi_3levels,3.1.5,59.99234062387028,
8,example_start.png,"The GUARANTEED OPTION will be shown on the LEFT SIDE. You are 100% guaranteed to gain or lose this amount. In this example, you have a 100% chance of winning 1 point. Select this option using the LEFT (green) button on your keyboard.",,,,,,,,0,4,4,4,,,,,,,,,,,,,,,,,,,,,,,,,,,,,,,,,,,,,,,,,54.18809602665715,None,54.18809602665715,None,54.18809602665715,None,4,5.218937819474377,54.18809602665715,None,,,,,,,,,,,,,,,,,,,,,,,,,,,,,,,,,,,,,,,,,,,,,,,,,,,,,,,,,,,,,,,,,,,,,,,,,,,,,,,,,,,,,,,,,,,,,,,,,,,,23607,2019_Dec_06_1329,Mmi_3levels,3.1.5,59.99234062387028,
9,example_certain.png,"Once you select the guaranteed choice, your selection will remain on the screen.",,,,,,,,0,5,5,5,,,,,,,,,,,,,,,,,,,,,,,,,,,,,,,,,,,,,,,,,59.4400841552997,None,59.4400841552997,None,59.4400841552997,None,4,1.1840200949227437,59.4400841552997,None,,,,,,,,,,,,,,,,,,,,,,,,,,,,,,,,,,,,,,,,,,,,,,,,,,,,,,,,,,,,,,,,,,,,,,,,,,,,,,,,,,,,,,,,,,,,,,,,,,,,23607,2019_Dec_06_1329,Mmi_3levels,3.1.5,59.99234062387028,
10,black.png,"Please make your choices as fast as possible.
You will be given a break at the end of each block.
Let's play!",,,,,,,,0,6,6,6,,,,,,,,,,,,,,,,,,,,,,,,,,,,,,,,,,,,,,,,,60.65724607423181,None,60.65724607423181,None,60.65724607423181,None,4,1.1506203652825207,60.65724607423181,None,,,,,,,,,,,,,,,,,,,,,,,,,,,,,,,,,,,,,,,,,,,,,,,,,,,,,,,,,,,,,,,,,,,,,,,,,,,,,,,,,,,,,,,,,,,,,,,,,,,,23607,2019_Dec_06_1329,Mmi_3levels,3.1.5,59.99234062387028,
,,,,,,,,,,,,,,,,,,,,,,,,,,,,,,,,,,,,,,,,,,,,,,,,,,,,,,,,,,,,,,,,61.824356396042276,None,space,18.590555408911314,61.824356396042276,None,,,,,,,,,,,,,,,,,,,,,,,,,,,,,,,,,,,,,,,,,,,,,,,,,,,,,,,,,,,,,,,,,,,,,,,,,,,,,,,,,,,,,,,,,,,,,,23607,2019_Dec_06_1329,Mmi_3levels,3.1.5,59.99234062387028,
,,,1,1,13.9,,,,,,,,,0,0,0,0,0,0,0,4,,,,,,,,,,,,,,,,,,,,,,,,,,,,,,,,,,,,,,,,,,,,,,,,,80.43137488298817,None,0.67,6.678592398879118,83.44920460454887,None,4,3.65161118976539,83.44920460454887,None,87.1172526338487,None,True,True,False,0.67,-0.32999999999999996,-0.32999999999999996,4.949999999999999,13.9,8.950000000000001,4.4750000000000005,gamble,win,13.9,13.9,90.15174638223834,None,90.15174638223834,None,90.15174638223834,None,90.15174638223834,None,90.15174638223834,None,90.15174638223834,None,90.15174638223834,None,1,1.4174566224101,90.15174638223834,None,91.60230291105108,None,91.60230291105108,None,91.60230291105108,None,91.60230291105108,None,91.60230291105108,None,91.60230291105108,None,91.60230291105108,None,95.58717479824554,None,95.58717479824554,None,95.58717479824554,None,95.58717479824554,None,95.58717479824554,None,95.58717479824554,None,95.58717479824554,None,96.58751845895313,None,,,,,,,,,,,,,,,,,,,,23607,2019_Dec_06_1329,Mmi_3levels,3.1.5,59.99234062387028,
,,,1,1,11.1,,,,,,,,,0,0,0,0,0,1,1,3,,,,,,,,,,,,,,,,,,,,,,,,,,,,,,,,,,,,,,,,,,,,,,,,,,,,,,,,,,,,,True,True,True,0.67,-0.32999999999999996,-0.6599999999999999,5.279999999999999,11.1,5.82,2.91,gamble,win,11.1,25.0,98.60492740408517,None,98.60492740408517,None,98.60492740408517,None,98.60492740408517,None,98.60492740408517,None,98.60492740408517,None,98.60492740408517,None,1,1.033982416964136,98.60492740408517,None,99.67202764644753,None,99.67202764644753,None,99.67202764644753,None,99.67202764644753,None,99.67202764644753,None,99.67202764644753,None,99.67202764644753,None,103.65678562002722,None,103.65678562002722,None,103.65678562002722,None,103.65678562002722,None,103.65678562002722,None,103.65678562002722,None,103.65678562002722,None,104.65724767412758,None,,,,,,,,,,,,,,,,,,,,23607,2019_Dec_06_1329,Mmi_3levels,3.1.5,59.99234062387028,
,,,1,1,9.3,,,,,,,,,0,0,0,0,0,2,2,7,,,,,,,,,,,,,,,,,,,,,,,,,,,,,,,,,,,,,,,,,,,,,,,,,,,,,,,,,,,,,True,True,True,0.67,-0.32999999999999996,-0.9899999999999999,5.609999999999999,9.3,3.6900000000000013,1.8450000000000006,gamble,win,9.3,34.3,106.67467293830123,None,106.67467293830123,None,106.67467293830123,None,106.67467293830123,None,106.67467293830123,None,106.67467293830123,None,106.67467293830123,None,1,1.284099610405974,106.67467293830123,None,107.99183757707942,None,107.99183757707942,None,107.99183757707942,None,107.99183757707942,None,107.99183757707942,None,107.99183757707942,None,107.99183757707942,None,111.9766707464587,None,111.9766707464587,None,111.9766707464587,None,111.9766707464587,None,111.9766707464587,None,111.9766707464587,None,111.9766707464587,None,121.48024670616724,None,112.97706176456995,None,113.97744094330119,None,0.67,7.502701768709812,116.9785644004005,None,None,116.9785644004005,None,,,,,,,,,23607,2019_Dec_06_1329,Mmi_3levels,3.1.5,59.99234062387028,
,,,1,1,-0.5,,,,,,,,,0,0,0,0,0,3,3,13,,,,,,,,,,,,,,,,,,,,,,,,,,,,,,,,,,,,,,,,,,,,,,,,,,,,,,,,,,,,,True,True,False,0.67,-0.32999999999999996,-1.3199999999999998,5.9399999999999995,-0.5,-6.4399999999999995,-3.4699999999999998,certain,certain,-3.4699999999999998,30.83,123.49767613015138,None,123.49767613015138,None,123.49767613015138,None,123.49767613015138,None,123.49767613015138,None,123.49767613015138,None,123.49767613015138,None,3,1.367468701733742,123.49767613015138,None,124.89824377838522,None,124.89824377838522,None,124.89824377838522,None,124.89824377838522,None,124.89824377838522,None,124.89824377838522,None,124.89824377838522,None,128.88308494724333,None,128.88308494724333,None,128.88308494724333,None,128.88308494724333,None,128.88308494724333,None,128.88308494724333,None,128.88308494724333,None,129.8834350076504,None,,,,,,,,,,,,,,,,,,,,23607,2019_Dec_06_1329,Mmi_3levels,3.1.5,59.99234062387028,
,,,1,1,8.5,,,,,,,,,0,0,0,0,0,4,4,15,,,,,,,,,,,,,,,,,,,,,,,,,,,,,,,,,,,,,,,,,,,,,,,,,,,,,,,,,,,,,True,True,False,0.67,-0.32999999999999996,-1.65,6.27,8.5,2.2300000000000004,1.1150000000000002,gamble,win,8.5,39.33,131.9008289136109,None,131.9008289136109,None,131.9008289136109,None,131.9008289136109,None,131.9008289136109,None,131.9008289136109,None,131.9008289136109,None,1,1.1340286543709226,131.9008289136109,None,133.06792707607383,None,133.06792707607383,None,133.06792707607383,None,133.06792707607383,None,133.06792707607383,None,133.06792707607383,None,133.06792707607383,None,137.05283704114845,None,137.05283704114845,None,137.05283704114845,None,137.05283704114845,None,137.05283704114845,None,137.05283704114845,None,137.05283704114845,None,146.5564293199568,None,138.0532213395927,None,139.0536037181737,None,0.81,7.502790723752696,142.05472877522698,None,None,142.05472877522698,None,,,,,,,,,23607,2019_Dec_06_1329,Mmi_3levels,3.1.5,59.99234062387028,
,,,1,1,7.7,,,,,,,,,0,0,0,0,0,5,5,0,,,,,,,,,,,,,,,,,,,,,,,,,,,,,,,,,,,,,,,,,,,,,,,,,,,,,,,,,,,,,True,True,True,0.81,-0.18999999999999995,-1.8399999999999999,4.499999999999999,7.7,3.200000000000001,1.6000000000000005,gamble,win,7.7,47.03,148.57387122319778,None,148.57387122319778,None,148.57387122319778,None,148.57387122319778,None,148.57387122319778,None,148.57387122319778,None,148.57387122319778,None,1,0.9506187653751113,148.57387122319778,None,149.5575457374216,None,149.5575457374216,None,149.5575457374216,None,149.5575457374216,None,149.5575457374216,None,149.5575457374216,None,149.5575457374216,None,153.54237410705537,None,153.54237410705537,None,153.54237410705537,None,153.54237410705537,None,153.54237410705537,None,153.54237410705537,None,153.54237410705537,None,154.54279808333376,None,,,,,,,,,,,,,,,,,,,,23607,2019_Dec_06_1329,Mmi_3levels,3.1.5,59.99234062387028,
,,,1,1,-1.1,,,,,,,,,0,0,0,0,0,6,6,9,,,,,,,,,,,,,,,,,,,,,,,,,,,,,,,,,,,,,,,,,,,,,,,,,,,,,,,,,,,,,True,True,False,0.81,-0.18999999999999995,-2.03,4.6899999999999995,-1.1,-5.789999999999999,-3.4449999999999994,gamble,win,-1.1,45.93,156.5601539114141,None,156.5601539114141,None,156.5601539114141,None,156.5601539114141,None,156.5601539114141,None,156.5601539114141,None,156.5601539114141,None,1,1.400838673056569,156.5601539114141,None,157.99403009429807,None,157.99403009429807,None,157.99403009429807,None,157.99403009429807,None,157.99403009429807,None,157.99403009429807,None,157.99403009429807,None,161.9955781676108,None,161.9955781676108,None,161.9955781676108,None,161.9955781676108,None,161.9955781676108,None,161.9955781676108,None,161.9955781676108,None,162.97929011977976,None,,,,,,,,,,,,,,,,,,,,23607,2019_Dec_06_1329,Mmi_3levels,3.1.5,59.99234062387028,
,,,1,1,0.3,,,,,,,,,0,0,0,0,0,7,7,20,,,,,,,,,,,,,,,,,,,,,,,,,,,,,,,,,,,,,,,,,,,,,,,,,,,,,,,,,,,,,True,True,True,0.81,-0.18999999999999995,-2.2199999999999998,4.879999999999999,0.3,-4.579999999999999,-2.1399999999999997,gamble,win,0.3,46.23,164.9967221035622,None,164.9967221035622,None,164.9967221035622,None,164.9967221035622,None,164.9967221035622,None,164.9967221035622,None,164.9967221035622,None,1,1.2672295151278377,164.9967221035622,None,166.2972143960069,None,166.2972143960069,None,166.2972143960069,None,166.2972143960069,None,166.2972143960069,None,166.2972143960069,None,166.2972143960069,None,170.29869271320058,None,170.29869271320058,None,170.29869271320058,None,170.29869271320058,None,170.29869271320058,None,170.29869271320058,None,170.29869271320058,None,179.78569552104454,None,171.28246674186084,None,172.28281040262664,None,0.84,7.502709768246859,175.28389290202176,None,None,175.28389290202176,None,,,,,,,,,23607,2019_Dec_06_1329,Mmi_3levels,3.1.5,59.99234062387028,
,,,1,1,8.9,,,,,,,,,0,0,0,0,0,8,8,16,,,,,,,,,,,,,,,,,,,,,,,,,,,,,,,,,,,,,,,,,,,,,,,,,,,,,,,,,,,,,True,True,False,0.84,-0.16000000000000003,-2.38,4.62,8.9,4.28,2.14,gamble,win,8.9,55.129999999999995,181.80311726545915,None,181.80311726545915,None,181.80311726545915,None,181.80311726545915,None,181.80311726545915,None,181.80311726545915,None,181.80311726545915,None,1,0.9839241002919152,181.80311726545915,None,182.82017391029513,None,182.82017391029513,None,182.82017391029513,None,182.82017391029513,None,182.82017391029513,None,182.82017391029513,None,182.82017391029513,None,186.80494276323589,None,186.80494276323589,None,186.80494276323589,None,186.80494276323589,None,186.80494276323589,None,186.80494276323589,None,186.80494276323589,None,187.80539393797517,None,,,,,,,,,,,,,,,,,,,,23607,2019_Dec_06_1329,Mmi_3levels,3.1.5,59.99234062387028,
,,,1,1,1.5,,,,,,,,,0,0,0,0,0,9,9,14,,,,,,,,,,,,,,,,,,,,,,,,,,,,,,,,,,,,,,,,,,,,,,,,,,,,,,,,,,,,,True,True,True,0.84,-0.16000000000000003,-2.54,4.78,1.5,-3.2800000000000002,-0.8900000000000001,certain,certain,-0.8900000000000001,54.239999999999995,189.82274144649273,None,189.82274144649273,None,189.82274144649273,None,189.82274144649273,None,189.82274144649273,None,189.82274144649273,None,189.82274144649273,None,3,1.384149687597528,189.82274144649273,None,191.23998592077987,None,191.23998592077987,None,191.23998592077987,None,191.23998592077987,None,191.23998592077987,None,191.23998592077987,None,191.23998592077987,None,195.2415083955275,None,195.2415083955275,None,195.2415083955275,None,195.2415083955275,None,195.2415083955275,None,195.2415083955275,None,195.2415083955275,None,204.7284299279563,None,196.22520658845315,None,197.22559664660366,None,0.75,7.502705288527068,200.22667210636428,None,None,200.22667210636428,None,,,,,,,,,23607,2019_Dec_06_1329,Mmi_3levels,3.1.5,59.99234062387028,
,,,1,1,7.5,,,,,,,,,0,0,0,0,0,10,10,11,,,,,,,,,,,,,,,,,,,,,,,,,,,,,,,,,,,,,,,,,,,,,,,,,,,,,,,,,,,,,True,True,True,0.75,-0.25,-2.79,6.29,7.5,1.21,0.605,gamble,win,7.5,61.739999999999995,206.74585423216922,None,206.74585423216922,None,206.74585423216922,None,206.74585423216922,None,206.74585423216922,None,206.74585423216922,None,206.74585423216922,None,1,1.0006822017603554,206.74585423216922,None,207.77958898304496,None,207.77958898304496,None,207.77958898304496,None,207.77958898304496,None,207.77958898304496,None,207.77958898304496,None,207.77958898304496,None,211.76442567218328,None,211.76442567218328,None,211.76442567218328,None,211.76442567218328,None,211.76442567218328,None,211.76442567218328,None,211.76442567218328,None,212.76484420872293,None,,,,,,,,,,,,,,,,,,,,23607,2019_Dec_06_1329,Mmi_3levels,3.1.5,59.99234062387028,
,,,1,1,-0.9,,,,,,,,,0,0,0,0,0,11,11,6,,,,,,,,,,,,,,,,,,,,,,,,,,,,,,,,,,,,,,,,,,,,,,,,,,,,,,,,,,,,,True,False,True,0.75,-0.25,-3.04,-1.1283333333333334,-0.9,-2.0283333333333333,-1.4641666666666666,gamble,lose,-2.0283333333333333,59.71166666666666,214.78219459712273,None,214.78219459712273,None,214.78219459712273,None,214.78219459712273,None,214.78219459712273,None,214.78219459712273,None,214.78219459712273,None,1,1.2507750765653327,214.78219459712273,None,216.06605966069037,None,216.06605966069037,None,216.06605966069037,None,216.06605966069037,None,216.06605966069037,None,216.06605966069037,None,216.06605966069037,None,220.0675690161297,None,220.0675690161297,None,220.0675690161297,None,220.0675690161297,None,220.0675690161297,None,220.0675690161297,None,220.0675690161297,None,229.55451358726714,None,221.05127616855316,None,222.05165726720588,None,0.73,7.502721927536186,225.0528108025901,None,None,225.0528108025901,None,,,,,,,,,23607,2019_Dec_06_1329,Mmi_3levels,3.1.5,59.99234062387028,
,,,1,1,13.3,,,,,,,,,0,0,0,0,0,12,12,8,,,,,,,,,,,,,,,,,,,,,,,,,,,,,,,,,,,,,,,,,,,,,,,,,,,,,,,,,,,,,True,True,False,0.73,-0.27,-3.31,7.09,13.3,6.210000000000001,3.1050000000000004,gamble,win,13.3,73.01166666666666,231.57192349230172,None,231.57192349230172,None,231.57192349230172,None,231.57192349230172,None,231.57192349230172,None,231.57192349230172,None,231.57192349230172,None,1,0.83386562357191,231.57192349230172,None,232.43887526297476,None,232.43887526297476,None,232.43887526297476,None,232.43887526297476,None,232.43887526297476,None,232.43887526297476,None,232.43887526297476,None,236.44043133588275,None,236.44043133588275,None,236.44043133588275,None,236.44043133588275,None,236.44043133588275,None,236.44043133588275,None,236.44043133588275,None,237.42413976817625,None,,,,,,,,,,,,,,,,,,,,23607,2019_Dec_06_1329,Mmi_3levels,3.1.5,59.99234062387028,
,,,1,1,13.5,,,,,,,,,0,0,0,0,0,13,13,25,,,,,,,,,,,,,,,,,,,,,,,,,,,,,,,,,,,,,,,,,,,,,,,,,,,,,,,,,,,,,True,True,True,0.73,-0.27,-3.58,7.36,13.5,6.14,3.07,gamble,win,13.5,86.51166666666666,239.44160471012583,None,239.44160471012583,None,239.44160471012583,None,239.44160471012583,None,239.44160471012583,None,239.44160471012583,None,239.44160471012583,None,1,0.9005444495123811,239.44160471012583,None,240.37525642564287,None,240.37525642564287,None,240.37525642564287,None,240.37525642564287,None,240.37525642564287,None,240.37525642564287,None,240.37525642564287,None,244.37677282071672,None,244.37677282071672,None,244.37677282071672,None,244.37677282071672,None,244.37677282071672,None,244.37677282071672,None,244.37677282071672,None,245.3604716535774,None,,,,,,,,,,,,,,,,,,,,23607,2019_Dec_06_1329,Mmi_3levels,3.1.5,59.99234062387028,
,,,1,1,8.1,,,,,,,,,0,0,0,0,0,14,14,24,,,,,,,,,,,,,,,,,,,,,,,,,,,,,,,,,,,,,,,,,,,,,,,,,,,,,,,,,,,,,True,True,False,0.73,-0.27,-3.85,7.630000000000001,8.1,0.46999999999999886,0.23499999999999943,gamble,win,8.1,94.61166666666665,247.37786075979238,None,247.37786075979238,None,247.37786075979238,None,247.37786075979238,None,247.37786075979238,None,247.37786075979238,None,247.37786075979238,None,1,0.9506610029493459,247.37786075979238,None,248.36156407243107,None,248.36156407243107,None,248.36156407243107,None,248.36156407243107,None,248.36156407243107,None,248.36156407243107,None,248.36156407243107,None,252.3464490788756,None,252.3464490788756,None,252.3464490788756,None,252.3464490788756,None,252.3464490788756,None,252.3464490788756,None,252.3464490788756,None,261.8500490372535,None,253.34683241741732,None,254.34720743639627,None,0.7,7.502729607105721,257.34830721479375,None,None,257.34830721479375,None,,,,,,,,,23607,2019_Dec_06_1329,Mmi_3levels,3.1.5,59.99234062387028,
,,,1,1,11.5,,,,,,,,,0,0,0,0,0,15,15,22,,,,,,,,,,,,,,,,,,,,,,,,,,,,,,,,,,,,,,,,,,,,,,,,,,,,,,,,,,,,,True,True,False,0.7,-0.30000000000000004,-4.15,8.350000000000001,11.5,3.1499999999999986,1.5749999999999993,gamble,win,11.5,106.11166666666665,263.8674877407029,None,263.8674877407029,None,263.8674877407029,None,263.8674877407029,None,263.8674877407029,None,263.8674877407029,None,263.8674877407029,None,1,0.8338953818310983,263.8674877407029,None,264.734511507384,None,264.734511507384,None,264.734511507384,None,264.734511507384,None,264.734511507384,None,264.734511507384,None,264.734511507384,None,268.7360032638535,None,268.7360032638535,None,268.7360032638535,None,268.7360032638535,None,268.7360032638535,None,268.7360032638535,None,268.7360032638535,None,269.7196934571839,None,,,,,,,,,,,,,,,,,,,,23607,2019_Dec_06_1329,Mmi_3levels,3.1.5,59.99234062387028,
,,,1,1,12.7,,,,,,,,,0,0,0,0,0,16,16,26,,,,,,,,,,,,,,,,,,,,,,,,,,,,,,,,,,,,,,,,,,,,,,,,,,,,,,,,,,,,,True,True,True,0.7,-0.30000000000000004,-4.45,8.650000000000002,12.7,4.049999999999997,2.0249999999999986,gamble,win,12.7,118.81166666666665,271.7371251209988,None,271.7371251209988,None,271.7371251209988,None,271.7371251209988,None,271.7371251209988,None,271.7371251209988,None,271.7371251209988,None,1,0.8505690080928616,271.7371251209988,None,272.62075115792686,None,272.62075115792686,None,272.62075115792686,None,272.62075115792686,None,272.62075115792686,None,272.62075115792686,None,272.62075115792686,None,276.6223104306264,None,276.6223104306264,None,276.6223104306264,None,276.6223104306264,None,276.6223104306264,None,276.6223104306264,None,276.6223104306264,None,286.1092294031405,None,277.60601118340855,None,278.6063695633202,None,0.71,7.5027616053121164,281.60748950060224,None,None,281.60748950060224,None,,,,,,,,,23607,2019_Dec_06_1329,Mmi_3levels,3.1.5,59.99234062387028,
,,,1,1,4.1,,,,,,,,,0,0,0,0,0,17,17,2,,,,,,,,,,,,,,,,,,,,,,,,,,,,,,,,,,,,,,,,,,,,,,,,,,,,,,,,,,,,,True,True,False,0.71,-0.29000000000000004,-4.74,8.8,4.1,-4.700000000000001,-0.3000000000000007,gamble,win,4.1,122.91166666666665,288.12666426680516,None,288.12666426680516,None,288.12666426680516,None,288.12666426680516,None,288.12666426680516,None,288.12666426680516,None,288.12666426680516,None,1,1.2673882262897678,288.12666426680516,None,289.4271603990346,None,289.4271603990346,None,289.4271603990346,None,289.4271603990346,None,289.4271603990346,None,289.4271603990346,None,289.4271603990346,None,293.41195389057975,None,293.41195389057975,None,293.41195389057975,None,293.41195389057975,None,293.41195389057975,None,293.41195389057975,None,293.41195389057975,None,294.41239610582124,None,,,,,,,,,,,,,,,,,,,,23607,2019_Dec_06_1329,Mmi_3levels,3.1.5,59.99234062387028,
,,,1,1,3.3,,,,,,,,,0,0,0,0,0,18,18,19,,,,,,,,,,,,,,,,,,,,,,,,,,,,,,,,,,,,,,,,,,,,,,,,,,,,,,,,,,,,,True,True,False,0.71,-0.29000000000000004,-5.03,9.09,3.3,-5.79,-1.245,certain,certain,-1.245,121.66666666666664,296.42980857071234,None,296.42980857071234,None,296.42980857071234,None,296.42980857071234,None,296.42980857071234,None,296.42980857071234,None,296.42980857071234,None,3,1.6008338732644916,296.42980857071234,None,298.06371419201605,None,298.06371419201605,None,298.06371419201605,None,298.06371419201605,None,298.06371419201605,None,298.06371419201605,None,298.06371419201605,None,302.06522674730513,None,302.06522674730513,None,302.06522674730513,None,302.06522674730513,None,302.06522674730513,None,302.06522674730513,None,302.06522674730513,None,303.0489431791939,None,,,,,,,,,,,,,,,,,,,,23607,2019_Dec_06_1329,Mmi_3levels,3.1.5,59.99234062387028,
,,,1,1,10.3,,,,,,,,,0,0,0,0,0,19,19,23,,,,,,,,,,,,,,,,,,,,,,,,,,,,,,,,,,,,,,,,,,,,,,,,,,,,,,,,,,,,,True,True,False,0.71,-0.29000000000000004,-5.32,9.38,10.3,0.9199999999999999,0.45999999999999996,gamble,win,10.3,131.96666666666664,305.06641420081723,None,305.06641420081723,None,305.06641420081723,None,305.06641420081723,None,305.06641420081723,None,305.06641420081723,None,305.06641420081723,None,1,1.1506648428039625,305.06641420081723,None,306.25017031049356,None,306.25017031049356,None,306.25017031049356,None,306.25017031049356,None,306.25017031049356,None,306.25017031049356,None,306.25017031049356,None,310.25170366460225,None,310.25170366460225,None,310.25170366460225,None,310.25170366460225,None,310.25170366460225,None,310.25170366460225,None,310.25170366460225,None,319.7386264769011,None,311.23537049925653,None,312.2358303135261,None,0.75,7.502756485599093,315.2368692953023,None,None,315.2368692953023,None,,,,,,,,,23607,2019_Dec_06_1329,Mmi_3levels,3.1.5,59.99234062387028,
,,,1,1,9.5,,,,,,,,,0,0,0,0,0,20,20,1,,,,,,,,,,,,,,,,,,,,,,,,,,,,,,,,,,,,,,,,,,,,,,,,,,,,,,,,,,,,,True,True,True,0.75,-0.25,-5.57,9.07,9.5,0.4299999999999997,0.21499999999999986,gamble,win,9.5,141.46666666666664,321.7560175030376,None,321.7560175030376,None,321.7560175030376,None,321.7560175030376,None,321.7560175030376,None,321.7560175030376,None,321.7560175030376,None,1,1.06736038782401,321.7560175030376,None,322.8564745974145,None,322.8564745974145,None,322.8564745974145,None,322.8564745974145,None,322.8564745974145,None,322.8564745974145,None,322.8564745974145,None,326.8413183261873,None,326.8413183261873,None,326.8413183261873,None,326.8413183261873,None,326.8413183261873,None,326.8413183261873,None,326.8413183261873,None,327.84173654275946,None,,,,,,,,,,,,,,,,,,,,23607,2019_Dec_06_1329,Mmi_3levels,3.1.5,59.99234062387028,
,,,1,1,4.9,,,,,,,,,0,0,0,0,0,21,21,21,,,,,,,,,,,,,,,,,,,,,,,,,,,,,,,,,,,,,,,,,,,,,,,,,,,,,,,,,,,,,True,True,True,0.75,-0.25,-5.82,9.32,4.9,-4.42,0.2400000000000002,certain,certain,0.2400000000000002,141.70666666666665,329.8591749262414,None,329.8591749262414,None,329.8591749262414,None,329.8591749262414,None,329.8591749262414,None,329.8591749262414,None,329.8591749262414,None,3,1.484104730130639,329.8591749262414,None,331.3763622837141,None,331.3763622837141,None,331.3763622837141,None,331.3763622837141,None,331.3763622837141,None,331.3763622837141,None,331.3763622837141,None,335.3612098522717,None,335.3612098522717,None,335.3612098522717,None,335.3612098522717,None,335.3612098522717,None,335.3612098522717,None,335.3612098522717,None,344.8647621333366,None,336.3616239090916,None,337.3619678898249,None,0.73,7.50273184699472,340.3630875070812,None,None,340.3630875070812,None,,,,,,,,,23607,2019_Dec_06_1329,Mmi_3levels,3.1.5,59.99234062387028,
,,,1,1,12.9,,,,,,,,,0,0,0,0,0,22,22,18,,,,,,,,,,,,,,,,,,,,,,,,,,,,,,,,,,,,,,,,,,,,,,,,,,,,,,,,,,,,,True,False,False,0.73,-0.27,-6.09,-1.4525000000000001,12.9,11.4475,5.72375,gamble,lose,11.4475,153.15416666666664,346.8822501139948,None,346.8822501139948,None,346.8822501139948,None,346.8822501139948,None,346.8822501139948,None,346.8822501139948,None,346.8822501139948,None,1,1.0671376802492887,346.8822501139948,None,347.982610893785,None,347.982610893785,None,347.982610893785,None,347.982610893785,None,347.982610893785,None,347.982610893785,None,347.982610893785,None,351.9674491828773,None,351.9674491828773,None,351.9674491828773,None,351.9674491828773,None,351.9674491828773,None,351.9674491828773,None,351.9674491828773,None,352.9678264417453,None,,,,,,,,,,,,,,,,,,,,23607,2019_Dec_06_1329,Mmi_3levels,3.1.5,59.99234062387028,
,,,1,1,10.7,,,,,,,,,0,0,0,0,0,23,23,12,,,,,,,,,,,,,,,,,,,,,,,,,,,,,,,,,,,,,,,,,,,,,,,,,,,,,,,,,,,,,True,True,False,0.73,-0.27,-6.359999999999999,10.14,10.7,0.5599999999999987,0.27999999999999936,gamble,win,10.7,163.85416666666663,354.985329461575,None,354.985329461575,None,354.985329461575,None,354.985329461575,None,354.985329461575,None,354.985329461575,None,354.985329461575,None,1,0.9838959418120794,354.985329461575,None,356.0023038709769,None,356.0023038709769,None,356.0023038709769,None,356.0023038709769,None,356.0023038709769,None,356.0023038709769,None,356.0023038709769,None,360.00383626518305,None,360.00383626518305,None,360.00383626518305,None,360.00383626518305,None,360.00383626518305,None,360.00383626518305,None,360.00383626518305,None,369.4907949154731,None,360.9875302982982,None,361.9879533146159,None,0.72,7.502698888827581,364.9890729319304,None,None,364.9890729319304,None,,,,,,,,,23607,2019_Dec_06_1329,Mmi_3levels,3.1.5,59.99234062387028,
,,,1,1,0.9,,,,,,,,,0,0,0,0,0,24,24,5,,,,,,,,,,,,,,,,,,,,,,,,,,,,,,,,,,,,,,,,,,,,,,,,,,,,,,,,,,,,,True,True,True,0.72,-0.28,-6.64,10.56,0.9,-9.66,-4.38,certain,certain,-4.38,159.47416666666663,371.50828161626123,None,371.50828161626123,None,371.50828161626123,None,371.50828161626123,None,371.50828161626123,None,371.50828161626123,None,371.50828161626123,None,3,1.7007994752493687,371.50828161626123,None,373.2422142759897,None,373.2422142759897,None,373.2422142759897,None,373.2422142759897,None,373.2422142759897,None,373.2422142759897,None,373.2422142759897,None,377.2437687489437,None,377.2437687489437,None,377.2437687489437,None,377.2437687489437,None,377.2437687489437,None,377.2437687489437,None,377.2437687489437,None,378.2273904661415,None,,,,,,,,,,,,,,,,,,,,23607,2019_Dec_06_1329,Mmi_3levels,3.1.5,59.99234062387028,
,,,1,1,6.1,,,,,,,,,0,0,0,0,0,25,25,17,,,,,,,,,,,,,,,,,,,,,,,,,,,,,,,,,,,,,,,,,,,,,,,,,,,,,,,,,,,,,True,True,False,0.72,-0.28,-6.92,10.84,6.1,-4.74,0.6799999999999997,certain,certain,0.6799999999999997,160.15416666666664,380.2448646876146,None,380.2448646876146,None,380.2448646876146,None,380.2448646876146,None,380.2448646876146,None,380.2448646876146,None,380.2448646876146,None,3,1.5341828857781366,380.2448646876146,None,381.81212124123704,None,381.81212124123704,None,381.81212124123704,None,381.81212124123704,None,381.81212124123704,None,381.81212124123704,None,381.81212124123704,None,385.81356532033533,None,385.81356532033533,None,385.81356532033533,None,385.81356532033533,None,385.81356532033533,None,385.81356532033533,None,385.81356532033533,None,386.7973447886761,None,,,,,,,,,,,,,,,,,,,,23607,2019_Dec_06_1329,Mmi_3levels,3.1.5,59.99234062387028,
,,,1,1,9.1,,,,,,,,,0,0,0,0,0,26,26,10,,,,,,,,,,,,,,,,,,,,,,,,,,,,,,,,,,,,,,,,,,,,,,,,,,,,,,,,,,,,,True,True,False,0.72,-0.28,-7.2,11.120000000000001,9.1,-2.0200000000000014,-1.0100000000000007,gamble,win,9.1,169.25416666666663,388.81477837241255,None,388.81477837241255,None,388.81477837241255,None,388.81477837241255,None,388.81477837241255,None,388.81477837241255,None,388.81477837241255,None,1,1.0673127105110325,388.81477837241255,None,389.91518746950896,None,389.91518746950896,None,389.91518746950896,None,389.91518746950896,None,389.91518746950896,None,389.91518746950896,None,389.91518746950896,None,393.9000289583928,None,393.9000289583928,None,393.9000289583928,None,393.9000289583928,None,393.9000289583928,None,393.9000289583928,None,393.9000289583928,None,403.40363979618996,None,394.9003962978022,None,395.90079307561973,None,0.83,7.502664010797162,398.9019389314344,None,None,398.9019389314344,None,,,,,,,,,23607,2019_Dec_06_1329,Mmi_3levels,3.1.5,59.99234062387028,
,,,2,0,-0.7,,,,,,,,,0,1,1,1,0,0,0,4,,,,,,,,,,,,,,,,,,,,,,,,,,,,,,,,,,,,,,,,,,,,,,,,,421.9439893765957,None,0.69,7.501800059166271,424.9617759005632,None,None,,424.9617759005632,None,429.4468424968072,None,False,False,True,0.69,0.69,0.69,2.4725,-0.175,-2.6475,-1.41125,gamble,win,-0.175,169.07916666666662,432.48130328702973,None,432.48130328702973,None,432.48130328702973,None,432.48130328702973,None,432.48130328702973,None,432.48130328702973,None,432.48130328702973,None,1,1.7175594966392964,432.48130328702973,None,434.2319662098889,None,434.2319662098889,None,434.2319662098889,None,434.2319662098889,None,434.2319662098889,None,434.2319662098889,None,434.2319662098889,None,438.23343812749954,None,438.23343812749954,None,438.23343812749954,None,438.23343812749954,None,438.23343812749954,None,438.23343812749954,None,438.23343812749954,None,439.21718847745797,None,,,,,,,,,,,,405.404317198263,None,4,16.523163982841652,405.404317198263,None,,,23607,2019_Dec_06_1329,Mmi_3levels,3.1.5,59.99234062387028,
,,,2,0,7.9,,,,,,,,,0,1,1,1,0,1,1,2,,,,,,,,,,,,,,,,,,,,,,,,,,,,,,,,,,,,,,,,,,,,,,,,,,,,,,,,,,,,,False,False,False,0.69,0.69,1.38,2.5300000000000002,1.975,-0.5550000000000002,0.71,certain,certain,0.71,169.78916666666663,441.2346204612404,None,441.2346204612404,None,441.2346204612404,None,441.2346204612404,None,441.2346204612404,None,441.2346204612404,None,441.2346204612404,None,3,1.4007669970742427,441.2346204612404,None,442.66850240388885,None,442.66850240388885,None,442.66850240388885,None,442.66850240388885,None,442.66850240388885,None,442.66850240388885,None,442.66850240388885,None,446.65337301109685,None,446.65337301109685,None,446.65337301109685,None,446.65337301109685,None,446.65337301109685,None,446.65337301109685,None,446.65337301109685,None,456.156928172044,None,447.6537134720711,None,448.65404945326736,None,0.63,7.502794243511744,451.6552119481494,None,None,451.6552119481494,None,,,,,,,,,23607,2019_Dec_06_1329,Mmi_3levels,3.1.5,59.99234062387028,
,,,2,0,0.9,,,,,,,,,0,1,1,1,0,2,2,11,,,,,,,,,,,,,,,,,,,,,,,,,,,,,,,,,,,,,,,,,,,,,,,,,,,,,,,,,,,,,False,False,False,0.63,0.63,2.01,2.3725,0.225,-2.1475,-0.9612499999999999,gamble,win,0.225,170.01416666666663,458.1743643156369,None,458.1743643156369,None,458.1743643156369,None,458.1743643156369,None,458.1743643156369,None,458.1743643156369,None,458.1743643156369,None,1,1.4007705168332905,458.1743643156369,None,459.6081947411294,None,459.6081947411294,None,459.6081947411294,None,459.6081947411294,None,459.6081947411294,None,459.6081947411294,None,459.6081947411294,None,463.59303431009175,None,463.59303431009175,None,463.59303431009175,None,463.59303431009175,None,463.59303431009175,None,463.59303431009175,None,463.59303431009175,None,464.5934544465854,None,,,,,,,,,,,,,,,,,,,,23607,2019_Dec_06_1329,Mmi_3levels,3.1.5,59.99234062387028,
,,,2,0,8.3,,,,,,,,,0,1,1,1,0,3,3,13,,,,,,,,,,,,,,,,,,,,,,,,,,,,,,,,,,,,,,,,,,,,,,,,,,,,,,,,,,,,,False,True,True,0.63,0.63,2.6399999999999997,-11.46,8.3,-3.16,-1.58,gamble,lose,-3.16,166.85416666666663,466.61088931019185,None,466.61088931019185,None,466.61088931019185,None,466.61088931019185,None,466.61088931019185,None,466.61088931019185,None,466.61088931019185,None,1,1.2840349740581587,466.61088931019185,None,467.97802875039633,None,467.97802875039633,None,467.97802875039633,None,467.97802875039633,None,467.97802875039633,None,467.97802875039633,None,467.97802875039633,None,471.9295549849048,None,471.9295549849048,None,471.9295549849048,None,471.9295549849048,None,471.9295549849048,None,471.9295549849048,None,471.9295549849048,None,481.41653123428114,None,472.91327525657834,None,473.9136499555898,None,0.62,7.502763845201116,476.91481565032154,None,None,476.91481565032154,None,,,,,,,,,23607,2019_Dec_06_1329,Mmi_3levels,3.1.5,59.99234062387028,
,,,2,0,13.1,,,,,,,,,0,1,1,1,0,4,4,20,,,,,,,,,,,,,,,,,,,,,,,,,,,,,,,,,,,,,,,,,,,,,,,,,,,,,,,,,,,,,False,True,True,0.62,0.62,3.26,-11.94,13.1,1.1600000000000001,0.5800000000000001,gamble,lose,1.1600000000000001,168.01416666666663,483.43389858171577,None,483.43389858171577,None,483.43389858171577,None,483.43389858171577,None,483.43389858171577,None,483.43389858171577,None,483.43389858171577,None,1,1.2007103602518328,483.43389858171577,None,484.6676880494924,None,484.6676880494924,None,484.6676880494924,None,484.6676880494924,None,484.6676880494924,None,484.6676880494924,None,484.6676880494924,None,488.6692786804051,None,488.6692786804051,None,488.6692786804051,None,488.6692786804051,None,488.6692786804051,None,488.6692786804051,None,488.6692786804051,None,489.6529115969315,None,,,,,,,,,,,,,,,,,,,,23607,2019_Dec_06_1329,Mmi_3levels,3.1.5,59.99234062387028,
,,,2,0,9.9,,,,,,,,,0,1,1,1,0,5,5,21,,,,,,,,,,,,,,,,,,,,,,,,,,,,,,,,,,,,,,,,,,,,,,,,,,,,,,,,,,,,,False,True,False,0.62,0.62,3.88,-12.559999999999999,9.9,-2.6599999999999984,-1.3299999999999992,gamble,lose,-2.6599999999999984,165.35416666666663,491.67037941876333,None,491.67037941876333,None,491.67037941876333,None,491.67037941876333,None,491.67037941876333,None,491.67037941876333,None,491.67037941876333,None,1,1.0172902317717671,491.67037941876333,None,492.72077179676853,None,492.72077179676853,None,492.72077179676853,None,492.72077179676853,None,492.72077179676853,None,492.72077179676853,None,492.72077179676853,None,496.70562000526115,None,496.70562000526115,None,496.70562000526115,None,496.70562000526115,None,496.70562000526115,None,496.70562000526115,None,496.70562000526115,None,497.7059895846178,None,,,,,,,,,,,,,,,,,,,,23607,2019_Dec_06_1329,Mmi_3levels,3.1.5,59.99234062387028,
,,,2,0,7.5,,,,,,,,,0,1,1,1,0,6,6,5,,,,,,,,,,,,,,,,,,,,,,,,,,,,,,,,,,,,,,,,,,,,,,,,,,,,,,,,,,,,,False,True,False,0.62,0.62,4.5,-13.18,7.5,-5.68,0.9100000000000001,gamble,lose,-5.68,159.67416666666662,499.72342668811325,None,499.72342668811325,None,499.72342668811325,None,499.72342668811325,None,499.72342668811325,None,499.72342668811325,None,499.72342668811325,None,1,1.2173497484182008,499.72342668811325,None,500.97385490412125,None,500.97385490412125,None,500.97385490412125,None,500.97385490412125,None,500.97385490412125,None,500.97385490412125,None,500.97385490412125,None,504.9754128968925,None,504.9754128968925,None,504.9754128968925,None,504.9754128968925,None,504.9754128968925,None,504.9754128968925,None,504.9754128968925,None,514.4623779468238,None,505.9591050101444,None,506.9595398657839,None,0.44,7.50268992932979,509.96061884536175,None,None,509.96061884536175,None,,,,,,,,,23607,2019_Dec_06_1329,Mmi_3levels,3.1.5,59.99234062387028,
,,,2,0,4.7,,,,,,,,,0,1,1,1,0,7,7,23,,,,,,,,,,,,,,,,,,,,,,,,,,,,,,,,,,,,,,,,,,,,,,,,,,,,,,,,,,,,,False,True,True,0.44,0.44,4.94,-11.100000000000001,4.7,-6.400000000000001,-0.8500000000000005,certain,certain,-0.8500000000000005,158.82416666666663,516.47976033343,None,516.47976033343,None,516.47976033343,None,516.47976033343,None,516.47976033343,None,516.47976033343,None,516.47976033343,None,3,1.3841170493979007,516.47976033343,None,517.8969670498627,None,517.8969670498627,None,517.8969670498627,None,517.8969670498627,None,517.8969670498627,None,517.8969670498627,None,517.8969670498627,None,521.88180597889,None,521.88180597889,None,521.88180597889,None,521.88180597889,None,521.88180597889,None,521.88180597889,None,521.88180597889,None,522.8822289952077,None,,,,,,,,,,,,,,,,,,,,23607,2019_Dec_06_1329,Mmi_3levels,3.1.5,59.99234062387028,
,,,2,0,10.3,,,,,,,,,0,1,1,1,0,8,8,15,,,,,,,,,,,,,,,,,,,,,,,,,,,,,,,,,,,,,,,,,,,,,,,,,,,,,,,,,,,,,False,True,False,0.44,0.44,5.380000000000001,-11.540000000000001,10.3,-1.2400000000000002,-0.6200000000000001,gamble,lose,-1.2400000000000002,157.58416666666662,524.8996248210315,None,524.8996248210315,None,524.8996248210315,None,524.8996248210315,None,524.8996248210315,None,524.8996248210315,None,524.8996248210315,None,1,1.3674616621574387,524.8996248210315,None,526.3001470317831,None,526.3001470317831,None,526.3001470317831,None,526.3001470317831,None,526.3001470317831,None,526.3001470317831,None,526.3001470317831,None,530.3016647067852,None,530.3016647067852,None,530.3016647067852,None,530.3016647067852,None,530.3016647067852,None,530.3016647067852,None,530.3016647067852,None,539.7885584007599,None,531.2853654595674,None,532.2857417584746,None,0.43,7.5027670450508595,535.2868047389202,None,None,535.2868047389202,None,,,,,,,,,23607,2019_Dec_06_1329,Mmi_3levels,3.1.5,59.99234062387028,
,,,2,0,7.1,,,,,,,,,0,1,1,1,0,9,9,6,,,,,,,,,,,,,,,,,,,,,,,,,,,,,,,,,,,,,,,,,,,,,,,,,,,,,,,,,,,,,False,True,True,0.43,0.43,5.8100000000000005,-11.83,7.1,-4.73,1.1849999999999996,certain,certain,1.1849999999999996,158.76916666666662,541.8060223827488,None,541.8060223827488,None,541.8060223827488,None,541.8060223827488,None,541.8060223827488,None,541.8060223827488,None,541.8060223827488,None,3,1.7009332277229987,541.8060223827488,None,543.5400107193855,None,543.5400107193855,None,543.5400107193855,None,543.5400107193855,None,543.5400107193855,None,543.5400107193855,None,543.5400107193855,None,547.5415629525087,None,547.5415629525087,None,547.5415629525087,None,547.5415629525087,None,547.5415629525087,None,547.5415629525087,None,547.5415629525087,None,548.525179869961,None,,,,,,,,,,,,,,,,,,,,23607,2019_Dec_06_1329,Mmi_3levels,3.1.5,59.99234062387028,
,,,2,0,3.5,,,,,,,,,0,1,1,1,0,10,10,16,,,,,,,,,,,,,,,,,,,,,,,,,,,,,,,,,,,,,,,,,,,,,,,,,,,,,,,,,,,,,False,True,True,0.43,0.43,6.24,-12.26,3.5,-8.76,-2.63,certain,certain,-2.63,156.13916666666663,550.5426345724845,None,550.5426345724845,None,550.5426345724845,None,550.5426345724845,None,550.5426345724845,None,550.5426345724845,None,550.5426345724845,None,3,1.3507173198158853,550.5426345724845,None,551.9264629980898,None,551.9264629980898,None,551.9264629980898,None,551.9264629980898,None,551.9264629980898,None,551.9264629980898,None,551.9264629980898,None,555.9279928324395,None,555.9279928324395,None,555.9279928324395,None,555.9279928324395,None,555.9279928324395,None,555.9279928324395,None,555.9279928324395,None,556.9117303831154,None,,,,,,,,,,,,,,,,,,,,23607,2019_Dec_06_1329,Mmi_3levels,3.1.5,59.99234062387028,
,,,2,0,5.3,,,,,,,,,0,1,1,1,0,11,11,17,,,,,,,,,,,,,,,,,,,,,,,,,,,,,,,,,,,,,,,,,,,,,,,,,,,,,,,,,,,,,False,False,False,0.43,0.43,6.67,2.060833333333333,1.325,-0.7358333333333331,0.2945833333333334,gamble,win,1.325,157.4641666666666,558.9291642868193,None,558.9291642868193,None,558.9291642868193,None,558.9291642868193,None,558.9291642868193,None,558.9291642868193,None,558.9291642868193,None,1,1.167366947454866,558.9291642868193,None,560.1296257009963,None,560.1296257009963,None,560.1296257009963,None,560.1296257009963,None,560.1296257009963,None,560.1296257009963,None,560.1296257009963,None,564.1311337765073,None,564.1311337765073,None,564.1311337765073,None,564.1311337765073,None,564.1311337765073,None,564.1311337765073,None,564.1311337765073,None,573.6180271505145,None,565.1147900517681,None,566.1152639452484,None,0.68,7.502732806955464,569.116261649353,None,None,569.116261649353,None,,,,,,,,,23607,2019_Dec_06_1329,Mmi_3levels,3.1.5,59.99234062387028,
,,,2,0,4.3,,,,,,,,,0,1,1,1,0,12,12,10,,,,,,,,,,,,,,,,,,,,,,,,,,,,,,,,,,,,,,,,,,,,,,,,,,,,,,,,,,,,,False,True,False,0.68,0.68,7.35,-16.87,4.3,-12.57,-4.135,gamble,lose,-12.57,144.89416666666662,575.6354860127904,None,575.6354860127904,None,575.6354860127904,None,575.6354860127904,None,575.6354860127904,None,575.6354860127904,None,575.6354860127904,None,1,2.1677163678687066,575.6354860127904,None,577.8363090067287,None,577.8363090067287,None,577.8363090067287,None,577.8363090067287,None,577.8363090067287,None,577.8363090067287,None,577.8363090067287,None,581.8211562552606,None,581.8211562552606,None,581.8211562552606,None,581.8211562552606,None,581.8211562552606,None,581.8211562552606,None,581.8211562552606,None,582.8214970362023,None,,,,,,,,,,,,,,,,,,,,23607,2019_Dec_06_1329,Mmi_3levels,3.1.5,59.99234062387028,
,,,2,0,6.3,,,,,,,,,0,1,1,1,0,13,13,24,,,,,,,,,,,,,,,,,,,,,,,,,,,,,,,,,,,,,,,,,,,,,,,,,,,,,,,,,,,,,False,True,False,0.68,0.68,8.03,-17.55,6.3,-11.25,-2.475,gamble,lose,-11.25,133.64416666666662,584.8390157351387,None,584.8390157351387,None,584.8390157351387,None,584.8390157351387,None,584.8390157351387,None,584.8390157351387,None,584.8390157351387,None,1,2.467664050811436,584.8390157351387,None,587.3399192045326,None,587.3399192045326,None,587.3399192045326,None,587.3399192045326,None,587.3399192045326,None,587.3399192045326,None,587.3399192045326,None,591.3414311198867,None,591.3414311198867,None,591.3414311198867,None,591.3414311198867,None,591.3414311198867,None,591.3414311198867,None,591.3414311198867,None,600.8283139344421,None,592.3251753901714,None,593.3255177710089,None,0.63,7.502749765990302,596.3266133896541,None,None,596.3266133896541,None,,,,,,,,,23607,2019_Dec_06_1329,Mmi_3levels,3.1.5,59.99234062387028,
,,,2,0,7.3,,,,,,,,,0,1,1,1,0,14,14,7,,,,,,,,,,,,,,,,,,,,,,,,,,,,,,,,,,,,,,,,,,,,,,,,,,,,,,,,,,,,,False,True,False,0.63,0.63,8.66,-17.48,7.3,-10.18,-1.44,certain,certain,-1.44,132.20416666666662,602.8457033606246,None,602.8457033606246,None,602.8457033606246,None,602.8457033606246,None,602.8457033606246,None,602.8457033606246,None,602.8457033606246,None,3,1.450920988456346,602.8457033606246,None,604.3296845776495,None,604.3296845776495,None,604.3296845776495,None,604.3296845776495,None,604.3296845776495,None,604.3296845776495,None,604.3296845776495,None,608.3311574552208,None,608.3311574552208,None,608.3311574552208,None,608.3311574552208,None,608.3311574552208,None,608.3311574552208,None,608.3311574552208,None,609.314902045473,None,,,,,,,,,,,,,,,,,,,,23607,2019_Dec_06_1329,Mmi_3levels,3.1.5,59.99234062387028,
,,,2,0,5.9,,,,,,,,,0,1,1,1,0,15,15,12,,,,,,,,,,,,,,,,,,,,,,,,,,,,,,,,,,,,,,,,,,,,,,,,,,,,,,,,,,,,,False,True,True,0.63,0.63,9.290000000000001,-18.11,5.9,-12.209999999999999,-3.1549999999999994,gamble,lose,-12.209999999999999,119.99416666666663,611.3323100306443,None,611.3323100306443,None,611.3323100306443,None,611.3323100306443,None,611.3323100306443,None,611.3323100306443,None,611.3323100306443,None,1,1.5341681665740907,611.3323100306443,None,612.8995947426884,None,612.8995947426884,None,612.8995947426884,None,612.8995947426884,None,612.8995947426884,None,612.8995947426884,None,612.8995947426884,None,616.901066660299,None,616.901066660299,None,616.901066660299,None,616.901066660299,None,616.901066660299,None,616.901066660299,None,616.901066660299,None,626.3880240306607,None,617.8847642132314,None,618.8851907493081,None,0.27,7.502771844796371,621.8863161263289,None,None,621.8863161263289,None,,,,,,,,,23607,2019_Dec_06_1329,Mmi_3levels,3.1.5,59.99234062387028,
,,,2,0,1.5,,,,,,,,,0,1,1,1,0,16,16,8,,,,,,,,,,,,,,,,,,,,,,,,,,,,,,,,,,,,,,,,,,,,,,,,,,,,,,,,,,,,,False,False,False,0.27,0.27,9.56,1.7416666666666667,0.375,-1.3666666666666667,-0.49583333333333335,gamble,win,0.375,120.36916666666663,628.4055014519254,None,628.4055014519254,None,628.4055014519254,None,628.4055014519254,None,628.4055014519254,None,628.4055014519254,None,628.4055014519254,None,1,2.1843423168174922,628.4055014519254,None,630.6229692737106,None,630.6229692737106,None,630.6229692737106,None,630.6229692737106,None,630.6229692737106,None,630.6229692737106,None,630.6229692737106,None,634.6244863087777,None,634.6244863087777,None,634.6244863087777,None,634.6244863087777,None,634.6244863087777,None,634.6244863087777,None,634.6244863087777,None,635.6082395386184,None,,,,,,,,,,,,,,,,,,,,23607,2019_Dec_06_1329,Mmi_3levels,3.1.5,59.99234062387028,
,,,2,0,4.5,,,,,,,,,0,1,1,1,0,17,17,25,,,,,,,,,,,,,,,,,,,,,,,,,,,,,,,,,,,,,,,,,,,,,,,,,,,,,,,,,,,,,False,True,True,0.27,0.27,9.83,-13.61,4.5,-9.11,-2.3049999999999997,certain,certain,-2.3049999999999997,118.06416666666664,637.6256212852313,None,637.6256212852313,None,637.6256212852313,None,637.6256212852313,None,637.6256212852313,None,637.6256212852313,None,637.6256212852313,None,3,1.784295919467695,637.6256212852313,None,639.4430110313697,None,639.4430110313697,None,639.4430110313697,None,639.4430110313697,None,639.4430110313697,None,639.4430110313697,None,639.4430110313697,None,643.4277981233317,None,643.4277981233317,None,643.4277981233317,None,643.4277981233317,None,643.4277981233317,None,643.4277981233317,None,643.4277981233317,None,644.428194901091,None,,,,,,,,,,,,,,,,,,,,23607,2019_Dec_06_1329,Mmi_3levels,3.1.5,59.99234062387028,
,,,2,0,3.9,,,,,,,,,0,1,1,1,0,18,18,9,,,,,,,,,,,,,,,,,,,,,,,,,,,,,,,,,,,,,,,,,,,,,,,,,,,,,,,,,,,,,False,False,False,0.27,0.27,10.1,1.7866666666666666,0.975,-0.8116666666666666,0.08166666666666667,certain,certain,0.08166666666666667,118.1458333333333,646.445621445193,None,646.445621445193,None,646.445621445193,None,646.445621445193,None,646.445621445193,None,646.445621445193,None,646.445621445193,None,3,1.350770756835118,646.445621445193,None,647.8294415512937,None,647.8294415512937,None,647.8294415512937,None,647.8294415512937,None,647.8294415512937,None,647.8294415512937,None,647.8294415512937,None,651.8310027438565,None,651.8310027438565,None,651.8310027438565,None,651.8310027438565,None,651.8310027438565,None,651.8310027438565,None,651.8310027438565,None,661.3179156367551,None,652.8146551793325,None,653.8150781956501,None,0.27,7.502709768246859,656.816201972717,None,None,656.816201972717,None,,,,,,,,,23607,2019_Dec_06_1329,Mmi_3levels,3.1.5,59.99234062387028,
,,,2,0,5.5,,,,,,,,,0,1,1,1,0,19,19,3,,,,,,,,,,,,,,,,,,,,,,,,,,,,,,,,,,,,,,,,,,,,,,,,,,,,,,,,,,,,,False,False,False,0.27,0.27,10.37,1.8091666666666666,1.375,-0.4341666666666666,0.4704166666666667,certain,certain,0.4704166666666667,118.61624999999997,663.3353511403548,None,663.3353511403548,None,663.3353511403548,None,663.3353511403548,None,663.3353511403548,None,663.3353511403548,None,663.3353511403548,None,3,1.2339014615281485,663.3353511403548,None,664.6025636964478,None,664.6025636964478,None,664.6025636964478,None,664.6025636964478,None,664.6025636964478,None,664.6025636964478,None,664.6025636964478,None,668.6039818570134,None,668.6039818570134,None,668.6039818570134,None,668.6039818570134,None,668.6039818570134,None,668.6039818570134,None,668.6039818570134,None,669.5877187677543,None,,,,,,,,,,,,,,,,,,,,23607,2019_Dec_06_1329,Mmi_3levels,3.1.5,59.99234062387028,
,,,2,0,4.1,,,,,,,,,0,1,1,1,0,20,20,26,,,,,,,,,,,,,,,,,,,,,,,,,,,,,,,,,,,,,,,,,,,,,,,,,,,,,,,,,,,,,False,True,True,0.27,0.27,10.639999999999999,-14.419999999999998,4.1,-10.319999999999999,-3.1099999999999994,gamble,lose,-10.319999999999999,108.29624999999997,671.6051238731015,None,671.6051238731015,None,671.6051238731015,None,671.6051238731015,None,671.6051238731015,None,671.6051238731015,None,671.6051238731015,None,1,1.284122329147067,671.6051238731015,None,672.9223089907318,None,672.9223089907318,None,672.9223089907318,None,672.9223089907318,None,672.9223089907318,None,672.9223089907318,None,672.9223089907318,None,676.9071920772549,None,676.9071920772549,None,676.9071920772549,None,676.9071920772549,None,676.9071920772549,None,676.9071920772549,None,676.9071920772549,None,686.4107462782413,None,677.9075709360186,None,678.9079539545928,None,0.32,7.502758725488093,681.9089903765707,None,None,681.9089903765707,None,,,,,,,,,23607,2019_Dec_06_1329,Mmi_3levels,3.1.5,59.99234062387028,
,,,2,0,-0.9,,,,,,,,,0,1,1,1,0,21,21,0,,,,,,,,,,,,,,,,,,,,,,,,,,,,,,,,,,,,,,,,,,,,,,,,,,,,,,,,,,,,,False,False,False,0.32,0.32,10.959999999999999,2.033333333333333,-0.225,-2.2583333333333333,-1.2416666666666667,certain,certain,-1.2416666666666667,107.05458333333331,688.4281309046783,None,688.4281309046783,None,688.4281309046783,None,688.4281309046783,None,688.4281309046783,None,688.4281309046783,None,688.4281309046783,None,3,1.7509592262795195,688.4281309046783,None,690.2622105962364,None,690.2622105962364,None,690.2622105962364,None,690.2622105962364,None,690.2622105962364,None,690.2622105962364,None,690.2622105962364,None,694.2136757141561,None,694.2136757141561,None,694.2136757141561,None,694.2136757141561,None,694.2136757141561,None,694.2136757141561,None,694.2136757141561,None,695.1974123049295,None,,,,,,,,,,,,,,,,,,,,23607,2019_Dec_06_1329,Mmi_3levels,3.1.5,59.99234062387028,
,,,2,0,11.5,,,,,,,,,0,1,1,1,0,22,22,18,,,,,,,,,,,,,,,,,,,,,,,,,,,,,,,,,,,,,,,,,,,,,,,,,,,,,,,,,,,,,False,True,True,0.32,0.32,11.28,-15.76,11.5,-4.26,-2.13,gamble,lose,-4.26,102.7945833333333,697.2148874863051,None,697.2148874863051,None,697.2148874863051,None,697.2148874863051,None,697.2148874863051,None,697.2148874863051,None,697.2148874863051,None,1,1.1840239346493036,697.2148874863051,None,698.4319271720597,None,698.4319271720597,None,698.4319271720597,None,698.4319271720597,None,698.4319271720597,None,698.4319271720597,None,698.4319271720597,None,702.4334842048702,None,702.4334842048702,None,702.4334842048702,None,702.4334842048702,None,702.4334842048702,None,702.4334842048702,None,702.4334842048702,None,711.9204278160469,None,703.4172313550371,None,704.4175596566638,None,0.35,7.502776324516162,707.4186927131959,None,None,707.4186927131959,None,,,,,,,,,23607,2019_Dec_06_1329,Mmi_3levels,3.1.5,59.99234062387028,
,,,2,0,9.5,,,,,,,,,0,1,1,1,0,23,23,19,,,,,,,,,,,,,,,,,,,,,,,,,,,,,,,,,,,,,,,,,,,,,,,,,,,,,,,,,,,,,False,False,True,0.35,0.35,11.629999999999999,2.1941666666666664,2.375,0.18083333333333362,1.2779166666666668,gamble,win,2.375,105.1695833333333,713.9378380411072,None,713.9378380411072,None,713.9378380411072,None,713.9378380411072,None,713.9378380411072,None,713.9378380411072,None,713.9378380411072,None,1,1.2007570776040666,713.9378380411072,None,715.1716348684859,None,715.1716348684859,None,715.1716348684859,None,715.1716348684859,None,715.1716348684859,None,715.1716348684859,None,715.1716348684859,None,719.1731557432795,None,719.1731557432795,None,719.1731557432795,None,719.1731557432795,None,719.1731557432795,None,719.1731557432795,None,719.1731557432795,None,720.1568593758857,None,,,,,,,,,,,,,,,,,,,,23607,2019_Dec_06_1329,Mmi_3levels,3.1.5,59.99234062387028,
,,,2,0,8.5,,,,,,,,,0,1,1,1,0,24,24,14,,,,,,,,,,,,,,,,,,,,,,,,,,,,,,,,,,,,,,,,,,,,,,,,,,,,,,,,,,,,,False,True,False,0.35,0.35,11.979999999999999,-16.88,8.5,-8.379999999999999,0.0600000000000005,certain,certain,0.0600000000000005,105.22958333333331,722.1743339173263,None,722.1743339173263,None,722.1743339173263,None,722.1743339173263,None,722.1743339173263,None,722.1743339173263,None,722.1743339173263,None,3,2.017429104016628,722.1743339173263,None,724.2250577967498,None,724.2250577967498,None,724.2250577967498,None,724.2250577967498,None,724.2250577967498,None,724.2250577967498,None,724.2250577967498,None,728.2098548081121,None,728.2098548081121,None,728.2098548081121,None,728.2098548081121,None,728.2098548081121,None,728.2098548081121,None,728.2098548081121,None,729.210283584136,None,,,,,,,,,,,,,,,,,,,,23607,2019_Dec_06_1329,Mmi_3levels,3.1.5,59.99234062387028,
,,,2,0,1.1,,,,,,,,,0,1,1,1,0,25,25,22,,,,,,,,,,,,,,,,,,,,,,,,,,,,,,,,,,,,,,,,,,,,,,,,,,,,,,,,,,,,,False,True,False,0.35,0.35,12.329999999999998,-17.229999999999997,1.1,-16.129999999999995,-7.514999999999998,gamble,lose,-16.129999999999995,89.09958333333331,731.2277117281337,None,731.2277117281337,None,731.2277117281337,None,731.2277117281337,None,731.2277117281337,None,731.2277117281337,None,731.2277117281337,None,1,2.501243290374987,731.2277117281337,None,733.7620021278854,None,733.7620021278854,None,733.7620021278854,None,733.7620021278854,None,733.7620021278854,None,733.7620021278854,None,733.7620021278854,None,737.7635178830242,None,737.7635178830242,None,737.7635178830242,None,737.7635178830242,None,737.7635178830242,None,737.7635178830242,None,737.7635178830242,None,747.2504816530272,None,738.7472691929433,None,739.747647411772,None,0.15,7.502769284881651,742.7486943931435,None,None,742.7486943931435,None,,,,,,,,,23607,2019_Dec_06_1329,Mmi_3levels,3.1.5,59.99234062387028,
,,,2,0,2.5,,,,,,,,,0,1,1,1,0,26,26,1,,,,,,,,,,,,,,,,,,,,,,,,,,,,,,,,,,,,,,,,,,,,,,,,,,,,,,,,,,,,,False,True,True,0.15,0.15,12.479999999999999,-14.579999999999998,2.5,-12.079999999999998,-4.789999999999999,gamble,lose,-12.079999999999998,77.01958333333332,749.2678720391705,None,749.2678720391705,None,749.2678720391705,None,749.2678720391705,None,749.2678720391705,None,749.2678720391705,None,749.2678720391705,None,1,1.7842280832119286,749.2678720391705,None,751.0851808298612,None,751.0851808298612,None,751.0851808298612,None,751.0851808298612,None,751.0851808298612,None,751.0851808298612,None,751.0851808298612,None,755.086698824889,None,755.086698824889,None,755.086698824889,None,755.086698824889,None,755.086698824889,None,755.086698824889,None,755.086698824889,None,756.0704456550302,None,,,,,,,,,,,,,,,,,,,,23607,2019_Dec_06_1329,Mmi_3levels,3.1.5,59.99234062387028,
,,,3,1,12.9,,,,,,,,,0,2,2,2,0,0,0,17,,,,,,,,,,,,,,,,,,,,,,,,,,,,,,,,,,,,,,,,,,,,,,,,,835.300388618256,None,0.28,7.501923572272062,838.318230499106,None,None,,838.318230499106,None,842.8032999752322,None,True,True,False,0.28,-0.72,-0.72,10.8,12.9,2.0999999999999996,1.0499999999999998,gamble,win,12.9,89.91958333333332,845.8377623652923,None,845.8377623652923,None,845.8377623652923,None,845.8377623652923,None,845.8377623652923,None,845.8377623652923,None,845.8377623652923,None,1,1.1838629836565815,845.8377623652923,None,847.054882046592,None,847.054882046592,None,847.054882046592,None,847.054882046592,None,847.054882046592,None,847.054882046592,None,847.054882046592,None,851.0396787379868,None,851.0396787379868,None,851.0396787379868,None,851.0396787379868,None,851.0396787379868,None,851.0396787379868,None,851.0396787379868,None,860.5433263737359,None,852.0400886350544,None,853.040538849833,None,0.47,7.502817922155373,856.0415778316674,None,None,856.0415778316674,None,758.0711576151662,None,4,77.21290551725542,758.0711576151662,None,,,23607,2019_Dec_06_1329,Mmi_3levels,3.1.5,59.99234062387028,
,,,3,1,3.5,,,,,,,,,0,2,2,2,0,1,1,18,,,,,,,,,,,,,,,,,,,,,,,,,,,,,,,,,,,,,,,,,,,,,,,,,,,,,,,,,,,,,True,True,False,0.47,-0.53,-1.25,8.67,3.5,-5.17,-0.835,gamble,win,3.5,93.41958333333332,862.5607062004856,None,862.5607062004856,None,862.5607062004856,None,862.5607062004856,None,862.5607062004856,None,862.5607062004856,None,862.5607062004856,None,1,2.267757805529982,862.5607062004856,None,864.8616157495417,None,864.8616157495417,None,864.8616157495417,None,864.8616157495417,None,864.8616157495417,None,864.8616157495417,None,864.8616157495417,None,868.8464687577798,None,868.8464687577798,None,868.8464687577798,None,868.8464687577798,None,868.8464687577798,None,868.8464687577798,None,868.8464687577798,None,869.846889214241,None,,,,,,,,,,,,,,,,,,,,23607,2019_Dec_06_1329,Mmi_3levels,3.1.5,59.99234062387028,
,,,3,1,0.5,,,,,,,,,0,2,2,2,0,2,2,26,,,,,,,,,,,,,,,,,,,,,,,,,,,,,,,,,,,,,,,,,,,,,,,,,,,,,,,,,,,,,True,True,True,0.47,-0.53,-1.78,9.2,0.5,-8.7,-4.1,certain,certain,-4.1,89.31958333333333,871.8642770404695,None,871.8642770404695,None,871.8642770404695,None,871.8642770404695,None,871.8642770404695,None,871.8642770404695,None,871.8642770404695,None,3,1.4341334485216066,871.8642770404695,None,873.3314566384652,None,873.3314566384652,None,873.3314566384652,None,873.3314566384652,None,873.3314566384652,None,873.3314566384652,None,873.3314566384652,None,877.333008231537,None,877.333008231537,None,877.333008231537,None,877.333008231537,None,877.333008231537,None,877.333008231537,None,877.333008231537,None,878.3167173038237,None,,,,,,,,,,,,,,,,,,,,23607,2019_Dec_06_1329,Mmi_3levels,3.1.5,59.99234062387028,
,,,3,1,0.9,,,,,,,,,0,2,2,2,0,3,3,0,,,,,,,,,,,,,,,,,,,,,,,,,,,,,,,,,,,,,,,,,,,,,,,,,,,,,,,,,,,,,True,True,True,0.47,-0.53,-2.31,9.73,0.9,-8.83,-3.965,gamble,win,0.9,90.21958333333333,880.3341467278078,None,880.3341467278078,None,880.3341467278078,None,880.3341467278078,None,880.3341467278078,None,880.3341467278078,None,880.3341467278078,None,1,1.0673709472175688,880.3341467278078,None,881.4345606245915,None,881.4345606245915,None,881.4345606245915,None,881.4345606245915,None,881.4345606245915,None,881.4345606245915,None,881.4345606245915,None,885.4360856591957,None,885.4360856591957,None,885.4360856591957,None,885.4360856591957,None,885.4360856591957,None,885.4360856591957,None,885.4360856591957,None,894.9230459094397,None,886.4197806522716,None,887.4201662307023,None,0.35,7.502748166094534,890.421322325943,None,None,890.421322325943,None,,,,,,,,,23607,2019_Dec_06_1329,Mmi_3levels,3.1.5,59.99234062387028,
,,,3,1,1.5,,,,,,,,,0,2,2,2,0,4,4,6,,,,,,,,,,,,,,,,,,,,,,,,,,,,,,,,,,,,,,,,,,,,,,,,,,,,,,,,,,,,,True,True,True,0.35,-0.65,-2.96,12.059999999999999,1.5,-10.559999999999999,-4.529999999999999,certain,certain,-4.529999999999999,85.68958333333333,896.9404215763789,None,896.9404215763789,None,896.9404215763789,None,896.9404215763789,None,896.9404215763789,None,896.9404215763789,None,896.9404215763789,None,3,1.3674418232403696,896.9404215763789,None,898.3409639460151,None,898.3409639460151,None,898.3409639460151,None,898.3409639460151,None,898.3409639460151,None,898.3409639460151,None,898.3409639460151,None,902.3425219387864,None,902.3425219387864,None,902.3425219387864,None,902.3425219387864,None,902.3425219387864,None,902.3425219387864,None,902.3425219387864,None,903.3261833337601,None,,,,,,,,,,,,,,,,,,,,23607,2019_Dec_06_1329,Mmi_3levels,3.1.5,59.99234062387028,
,,,3,1,1.1,,,,,,,,,0,2,2,2,0,5,5,14,,,,,,,,,,,,,,,,,,,,,,,,,,,,,,,,,,,,,,,,,,,,,,,,,,,,,,,,,,,,,True,False,False,0.35,-0.65,-3.61,-2.575833333333333,1.1,-1.475833333333333,-0.1879166666666665,gamble,lose,-1.475833333333333,84.21375,905.3435622005491,None,905.3435622005491,None,905.3435622005491,None,905.3435622005491,None,905.3435622005491,None,905.3435622005491,None,905.3435622005491,None,1,1.734286879946012,905.3435622005491,None,907.1109160287306,None,907.1109160287306,None,907.1109160287306,None,907.1109160287306,None,907.1109160287306,None,907.1109160287306,None,907.1109160287306,None,911.0957475981559,None,911.0957475981559,None,911.0957475981559,None,911.0957475981559,None,911.0957475981559,None,911.0957475981559,None,911.0957475981559,None,920.5993843544857,None,912.096170934441,None,913.0965501132305,None,0.39,7.502715847920626,916.09767037048,None,None,916.09767037048,None,,,,,,,,,23607,2019_Dec_06_1329,Mmi_3levels,3.1.5,59.99234062387028,
,,,3,1,10.9,,,,,,,,,0,2,2,2,0,6,6,20,,,,,,,,,,,,,,,,,,,,,,,,,,,,,,,,,,,,,,,,,,,,,,,,,,,,,,,,,,,,,True,False,False,0.39,-0.61,-4.22,-2.4866666666666664,10.9,8.413333333333334,4.206666666666667,gamble,lose,8.413333333333334,92.62708333333333,922.6167760205572,None,922.6167760205572,None,922.6167760205572,None,922.6167760205572,None,922.6167760205572,None,922.6167760205572,None,922.6167760205572,None,1,1.284150167601183,922.6167760205572,None,923.933976177359,None,923.933976177359,None,923.933976177359,None,923.933976177359,None,923.933976177359,None,923.933976177359,None,923.933976177359,None,927.9188247058191,None,927.9188247058191,None,927.9188247058191,None,927.9188247058191,None,927.9188247058191,None,927.9188247058191,None,927.9188247058191,None,928.9191987648956,None,,,,,,,,,,,,,,,,,,,,23607,2019_Dec_06_1329,Mmi_3levels,3.1.5,59.99234062387028,
,,,3,1,-0.5,,,,,,,,,0,2,2,2,0,7,7,1,,,,,,,,,,,,,,,,,,,,,,,,,,,,,,,,,,,,,,,,,,,,,,,,,,,,,,,,,,,,,True,True,True,0.39,-0.61,-4.83,13.37,-0.5,-13.87,-7.185,gamble,win,-0.5,92.12708333333333,930.9366221091477,None,930.9366221091477,None,930.9366221091477,None,930.9366221091477,None,930.9366221091477,None,930.9366221091477,None,930.9366221091477,None,1,1.917616133519914,930.9366221091477,None,932.8873570280266,None,932.8873570280266,None,932.8873570280266,None,932.8873570280266,None,932.8873570280266,None,932.8873570280266,None,932.8873570280266,None,936.8889204604784,None,936.8889204604784,None,936.8889204604784,None,936.8889204604784,None,936.8889204604784,None,936.8889204604784,None,936.8889204604784,None,946.3758103146101,None,937.8725898549892,None,938.8729466350051,None,0.36,7.502780484268442,941.8740928107873,None,None,941.8740928107873,None,,,,,,,,,23607,2019_Dec_06_1329,Mmi_3levels,3.1.5,59.99234062387028,
,,,3,1,8.9,,,,,,,,,0,2,2,2,0,8,8,10,,,,,,,,,,,,,,,,,,,,,,,,,,,,,,,,,,,,,,,,,,,,,,,,,,,,,,,,,,,,,True,True,True,0.36,-0.64,-5.47,14.43,8.9,-5.529999999999999,1.6850000000000005,certain,certain,1.6850000000000005,93.81208333333333,948.3932419784833,None,948.3932419784833,None,948.3932419784833,None,948.3932419784833,None,948.3932419784833,None,948.3932419784833,None,948.3932419784833,None,3,1.4674611822119914,948.3932419784833,None,949.8938040270004,None,949.8938040270004,None,949.8938040270004,None,949.8938040270004,None,949.8938040270004,None,949.8938040270004,None,949.8938040270004,None,953.8786851936602,None,953.8786851936602,None,953.8786851936602,None,953.8786851936602,None,953.8786851936602,None,953.8786851936602,None,953.8786851936602,None,954.879026614537,None,,,,,,,,,,,,,,,,,,,,23607,2019_Dec_06_1329,Mmi_3levels,3.1.5,59.99234062387028,
,,,3,1,9.1,,,,,,,,,0,2,2,2,0,9,9,2,,,,,,,,,,,,,,,,,,,,,,,,,,,,,,,,,,,,,,,,,,,,,,,,,,,,,,,,,,,,,True,True,False,0.36,-0.64,-6.109999999999999,15.07,9.1,-5.970000000000001,1.5649999999999995,gamble,win,9.1,102.91208333333333,956.89640836115,None,956.89640836115,None,956.89640836115,None,956.89640836115,None,956.89640836115,None,956.89640836115,None,956.89640836115,None,1,1.4175100594293326,956.89640836115,None,958.3470500052208,None,958.3470500052208,None,958.3470500052208,None,958.3470500052208,None,958.3470500052208,None,958.3470500052208,None,958.3470500052208,None,962.3318313374766,None,962.3318313374766,None,962.3318313374766,None,962.3318313374766,None,962.3318313374766,None,962.3318313374766,None,962.3318313374766,None,963.3322697129333,None,,,,,,,,,,,,,,,,,,,,23607,2019_Dec_06_1329,Mmi_3levels,3.1.5,59.99234062387028,
,,,3,1,3.1,,,,,,,,,0,2,2,2,0,10,10,7,,,,,,,,,,,,,,,,,,,,,,,,,,,,,,,,,,,,,,,,,,,,,,,,,,,,,,,,,,,,,True,True,False,0.36,-0.64,-6.749999999999999,15.71,3.1,-12.610000000000001,-4.755000000000001,gamble,win,3.1,106.01208333333332,965.3496041022008,None,965.3496041022008,None,965.3496041022008,None,965.3496041022008,None,965.3496041022008,None,965.3496041022008,None,965.3496041022008,None,1,2.167777164489962,965.3496041022008,None,967.5504856528132,None,967.5504856528132,None,967.5504856528132,None,967.5504856528132,None,967.5504856528132,None,967.5504856528132,None,967.5504856528132,None,971.5519921284285,None,971.5519921284285,None,971.5519921284285,None,971.5519921284285,None,971.5519921284285,None,971.5519921284285,None,971.5519921284285,None,981.038934459677,None,972.5356644028216,None,973.5361270969152,None,0.3,7.502637772238813,976.5372166358866,None,None,976.5372166358866,None,,,,,,,,,23607,2019_Dec_06_1329,Mmi_3levels,3.1.5,59.99234062387028,
,,,3,1,7.3,,,,,,,,,0,2,2,2,0,11,11,8,,,,,,,,,,,,,,,,,,,,,,,,,,,,,,,,,,,,,,,,,,,,,,,,,,,,,,,,,,,,,True,True,True,0.3,-0.7,-7.449999999999999,17.25,7.3,-9.95,-1.3249999999999997,gamble,win,7.3,113.31208333333332,983.0564067612286,None,983.0564067612286,None,983.0564067612286,None,983.0564067612286,None,983.0564067612286,None,983.0564067612286,None,983.0564067612286,None,1,1.417406065214891,983.0564067612286,None,984.5069130528718,None,984.5069130528718,None,984.5069130528718,None,984.5069130528718,None,984.5069130528718,None,984.5069130528718,None,984.5069130528718,None,988.491780780314,None,988.491780780314,None,988.491780780314,None,988.491780780314,None,988.491780780314,None,988.491780780314,None,988.491780780314,None,989.4921343604801,None,,,,,,,,,,,,,,,,,,,,23607,2019_Dec_06_1329,Mmi_3levels,3.1.5,59.99234062387028,
,,,3,1,11.9,,,,,,,,,0,2,2,2,0,12,12,9,,,,,,,,,,,,,,,,,,,,,,,,,,,,,,,,,,,,,,,,,,,,,,,,,,,,,,,,,,,,,True,False,False,0.3,-0.7,-8.149999999999999,-3.1291666666666664,11.9,8.770833333333334,4.385416666666667,gamble,lose,8.770833333333334,122.08291666666665,991.5095657043275,None,991.5095657043275,None,991.5095657043275,None,991.5095657043275,None,991.5095657043275,None,991.5095657043275,None,991.5095657043275,None,1,1.0506061260239221,991.5095657043275,None,992.5932509379345,None,992.5932509379345,None,992.5932509379345,None,992.5932509379345,None,992.5932509379345,None,992.5932509379345,None,992.5932509379345,None,996.5781986608636,None,996.5781986608636,None,996.5781986608636,None,996.5781986608636,None,996.5781986608636,None,996.5781986608636,None,996.5781986608636,None,1006.0816959050135,None,997.5784748053993,None,998.5788949418929,None,0.56,7.502585615206044,1001.580072795914,None,None,1001.580072795914,None,,,,,,,,,23607,2019_Dec_06_1329,Mmi_3levels,3.1.5,59.99234062387028,
,,,3,1,13.5,,,,,,,,,0,2,2,2,0,13,13,16,,,,,,,,,,,,,,,,,,,,,,,,,,,,,,,,,,,,,,,,,,,,,,,,,,,,,,,,,,,,,True,False,True,0.56,-0.43999999999999995,-8.589999999999998,-2.255833333333333,13.5,11.244166666666667,5.622083333333333,gamble,lose,11.244166666666667,133.32708333333332,1008.0991685265908,None,1008.0991685265908,None,1008.0991685265908,None,1008.0991685265908,None,1008.0991685265908,None,1008.0991685265908,None,1008.0991685265908,None,1,0.9005844472558238,1008.0991685265908,None,1009.0328621597146,None,1009.0328621597146,None,1009.0328621597146,None,1009.0328621597146,None,1009.0328621597146,None,1009.0328621597146,None,1009.0328621597146,None,1013.034331197443,None,1013.034331197443,None,1013.034331197443,None,1013.034331197443,None,1013.034331197443,None,1013.034331197443,None,1013.034331197443,None,1014.0180482693249,None,,,,,,,,,,,,,,,,,,,,23607,2019_Dec_06_1329,Mmi_3levels,3.1.5,59.99234062387028,
,,,3,1,13.9,,,,,,,,,0,2,2,2,0,14,14,4,,,,,,,,,,,,,,,,,,,,,,,,,,,,,,,,,,,,,,,,,,,,,,,,,,,,,,,,,,,,,True,True,False,0.56,-0.43999999999999995,-9.029999999999998,15.189999999999998,13.9,-1.2899999999999974,-0.6449999999999987,gamble,win,13.9,147.22708333333333,1016.0355029718485,None,1016.0355029718485,None,1016.0355029718485,None,1016.0355029718485,None,1016.0355029718485,None,1016.0355029718485,None,1016.0355029718485,None,1,1.3341000103973784,1016.0355029718485,None,1017.4026523314533,None,1017.4026523314533,None,1017.4026523314533,None,1017.4026523314533,None,1017.4026523314533,None,1017.4026523314533,None,1017.4026523314533,None,1021.4042061644723,None,1021.4042061644723,None,1021.4042061644723,None,1021.4042061644723,None,1021.4042061644723,None,1021.4042061644723,None,1021.4042061644723,None,1022.387910117046,None,,,,,,,,,,,,,,,,,,,,23607,2019_Dec_06_1329,Mmi_3levels,3.1.5,59.99234062387028,
,,,3,1,11.1,,,,,,,,,0,2,2,2,0,15,15,24,,,,,,,,,,,,,,,,,,,,,,,,,,,,,,,,,,,,,,,,,,,,,,,,,,,,,,,,,,,,,True,True,False,0.56,-0.43999999999999995,-9.469999999999997,15.629999999999995,11.1,-4.529999999999996,-2.264999999999998,gamble,win,11.1,158.32708333333332,1024.4053373011411,None,1024.4053373011411,None,1024.4053373011411,None,1024.4053373011411,None,1024.4053373011411,None,1024.4053373011411,None,1024.4053373011411,None,1,1.0339712176355533,1024.4053373011411,None,1025.4724109849776,None,1025.4724109849776,None,1025.4724109849776,None,1025.4724109849776,None,1025.4724109849776,None,1025.4724109849776,None,1025.4724109849776,None,1029.4738803427317,None,1029.4738803427317,None,1029.4738803427317,None,1029.4738803427317,None,1029.4738803427317,None,1029.4738803427317,None,1029.4738803427317,None,1038.9775231787353,None,1030.4576319726184,None,1031.4580517890863,None,0.6,7.519379554723855,1034.45913108869,None,None,1034.45913108869,None,,,,,,,,,23607,2019_Dec_06_1329,Mmi_3levels,3.1.5,59.99234062387028,
,,,3,1,9.7,,,,,,,,,0,2,2,2,0,16,16,3,,,,,,,,,,,,,,,,,,,,,,,,,,,,,,,,,,,,,,,,,,,,,,,,,,,,,,,,,,,,,True,True,False,0.6,-0.4,-9.869999999999997,15.469999999999999,9.7,-5.77,1.9649999999999999,certain,certain,1.9649999999999999,160.29208333333332,1040.9949503627722,None,1040.9949503627722,None,1040.9949503627722,None,1040.9949503627722,None,1040.9949503627722,None,1040.9949503627722,None,1040.9949503627722,None,3,1.2507590774912387,1040.9949503627722,None,1042.278778628388,None,1042.278778628388,None,1042.278778628388,None,1042.278778628388,None,1042.278778628388,None,1042.278778628388,None,1042.278778628388,None,1046.2636066780542,None,1046.2636066780542,None,1046.2636066780542,None,1046.2636066780542,None,1046.2636066780542,None,1046.2636066780542,None,1046.2636066780542,None,1047.2639628180768,None,,,,,,,,,,,,,,,,,,,,23607,2019_Dec_06_1329,Mmi_3levels,3.1.5,59.99234062387028,
,,,3,1,6.1,,,,,,,,,0,2,2,2,0,17,17,13,,,,,,,,,,,,,,,,,,,,,,,,,,,,,,,,,,,,,,,,,,,,,,,,,,,,,,,,,,,,,True,True,False,0.6,-0.4,-10.269999999999998,15.869999999999997,6.1,-9.769999999999998,-1.834999999999999,gamble,win,6.1,166.39208333333332,1049.2814280800521,None,1049.2814280800521,None,1049.2814280800521,None,1049.2814280800521,None,1049.2814280800521,None,1049.2814280800521,None,1049.2814280800521,None,1,2.0176927691791207,1049.2814280800521,None,1051.3321711583994,None,1051.3321711583994,None,1051.3321711583994,None,1051.3321711583994,None,1051.3321711583994,None,1051.3321711583994,None,1051.3321711583994,None,1055.3169944083202,None,1055.3169944083202,None,1055.3169944083202,None,1055.3169944083202,None,1055.3169944083202,None,1055.3169944083202,None,1055.3169944083202,None,1064.8206689225626,None,1056.3174177446053,None,1057.3177569255931,None,0.76,7.502808002755046,1060.3189178206376,None,None,1060.3189178206376,None,,,,,,,,,23607,2019_Dec_06_1329,Mmi_3levels,3.1.5,59.99234062387028,
,,,3,1,8.7,,,,,,,,,0,2,2,2,0,18,18,22,,,,,,,,,,,,,,,,,,,,,,,,,,,,,,,,,,,,,,,,,,,,,,,,,,,,,,,,,,,,,True,False,False,0.76,-0.24,-10.509999999999998,-1.715833333333333,8.7,6.984166666666666,3.492083333333333,gamble,lose,6.984166666666666,173.37624999999997,1066.8380711480277,None,1066.8380711480277,None,1066.8380711480277,None,1066.8380711480277,None,1066.8380711480277,None,1066.8380711480277,None,1066.8380711480277,None,1,0.8672890317975543,1066.8380711480277,None,1067.7384095290909,None,1067.7384095290909,None,1067.7384095290909,None,1067.7384095290909,None,1067.7384095290909,None,1067.7384095290909,None,1067.7384095290909,None,1071.7232094202773,None,1071.7232094202773,None,1071.7232094202773,None,1071.7232094202773,None,1071.7232094202773,None,1071.7232094202773,None,1071.7232094202773,None,1072.7235959586105,None,,,,,,,,,,,,,,,,,,,,23607,2019_Dec_06_1329,Mmi_3levels,3.1.5,59.99234062387028,
,,,3,1,9.3,,,,,,,,,0,2,2,2,0,19,19,5,,,,,,,,,,,,,,,,,,,,,,,,,,,,,,,,,,,,,,,,,,,,,,,,,,,,,,,,,,,,,True,True,True,0.76,-0.24,-10.749999999999998,14.109999999999998,9.3,-4.809999999999997,-2.4049999999999985,gamble,win,9.3,182.67624999999998,1074.741057380801,None,1074.741057380801,None,1074.741057380801,None,1074.741057380801,None,1074.741057380801,None,1074.741057380801,None,1074.741057380801,None,1,1.7509227482951246,1074.741057380801,None,1076.5250665962812,None,1076.5250665962812,None,1076.5250665962812,None,1076.5250665962812,None,1076.5250665962812,None,1076.5250665962812,None,1076.5250665962812,None,1080.5098988056998,None,1080.5098988056998,None,1080.5098988056998,None,1080.5098988056998,None,1080.5098988056998,None,1080.5098988056998,None,1080.5098988056998,None,1090.0135429216316,None,1081.5102520658984,None,1082.510730119131,None,0.59,7.502724167483393,1085.5117684609722,None,None,1085.5117684609722,None,,,,,,,,,23607,2019_Dec_06_1329,Mmi_3levels,3.1.5,59.99234062387028,
,,,3,1,6.7,,,,,,,,,0,2,2,2,0,20,20,19,,,,,,,,,,,,,,,,,,,,,,,,,,,,,,,,,,,,,,,,,,,,,,,,,,,,,,,,,,,,,True,False,False,0.59,-0.41000000000000003,-11.159999999999998,-2.3649999999999998,6.7,4.335000000000001,2.1675000000000004,gamble,lose,4.335000000000001,187.01125,1092.030909629073,None,1092.030909629073,None,1092.030909629073,None,1092.030909629073,None,1092.030909629073,None,1092.030909629073,None,1092.030909629073,None,1,1.0507104402058758,1092.030909629073,None,1093.1146838177228,None,1093.1146838177228,None,1093.1146838177228,None,1093.1146838177228,None,1093.1146838177228,None,1093.1146838177228,None,1093.1146838177228,None,1097.0995598646696,None,1097.0995598646696,None,1097.0995598646696,None,1097.0995598646696,None,1097.0995598646696,None,1097.0995598646696,None,1097.0995598646696,None,1098.0998740870855,None,,,,,,,,,,,,,,,,,,,,23607,2019_Dec_06_1329,Mmi_3levels,3.1.5,59.99234062387028,
,,,3,1,7.7,,,,,,,,,0,2,2,2,0,21,21,15,,,,,,,,,,,,,,,,,,,,,,,,,,,,,,,,,,,,,,,,,,,,,,,,,,,,,,,,,,,,,True,False,True,0.59,-0.41000000000000003,-11.569999999999999,-2.3991666666666664,7.7,5.300833333333333,2.6504166666666666,gamble,lose,5.300833333333333,192.31208333333333,1100.1173351892503,None,1100.1173351892503,None,1100.1173351892503,None,1100.1173351892503,None,1100.1173351892503,None,1100.1173351892503,None,1100.1173351892503,None,1,0.867246154230088,1100.1173351892503,None,1101.0176697305287,None,1101.0176697305287,None,1101.0176697305287,None,1101.0176697305287,None,1101.0176697305287,None,1101.0176697305287,None,1101.0176697305287,None,1105.0025457774173,None,1105.0025457774173,None,1105.0025457774173,None,1105.0025457774173,None,1105.0025457774173,None,1105.0025457774173,None,1105.0025457774173,None,1106.0028923180653,None,,,,,,,,,,,,,,,,,,,,23607,2019_Dec_06_1329,Mmi_3levels,3.1.5,59.99234062387028,
,,,3,1,12.5,,,,,,,,,0,2,2,2,0,22,22,21,,,,,,,,,,,,,,,,,,,,,,,,,,,,,,,,,,,,,,,,,,,,,,,,,,,,,,,,,,,,,True,True,True,0.59,-0.41000000000000003,-11.979999999999999,17.72,12.5,-5.219999999999999,-2.6099999999999994,gamble,win,12.5,204.81208333333333,1108.0203236619127,None,1108.0203236619127,None,1108.0203236619127,None,1108.0203236619127,None,1108.0203236619127,None,1108.0203236619127,None,1108.0203236619127,None,1,0.3003460606560111,1108.0203236619127,None,1108.353778588411,None,1108.353778588411,None,1108.353778588411,None,1108.353778588411,None,1108.353778588411,None,1108.353778588411,None,1108.353778588411,None,1112.3552965833806,None,1112.3552965833806,None,1112.3552965833806,None,1112.3552965833806,None,1112.3552965833806,None,1112.3552965833806,None,1112.3552965833806,None,1121.8422193957376,None,1113.339005975693,None,1114.3393349172547,None,0.79,7.502786563942209,1117.3405047717388,None,None,1117.3405047717388,None,,,,,,,,,23607,2019_Dec_06_1329,Mmi_3levels,3.1.5,59.99234062387028,
,,,3,1,6.9,,,,,,,,,0,2,2,2,0,23,23,23,,,,,,,,,,,,,,,,,,,,,,,,,,,,,,,,,,,,,,,,,,,,,,,,,,,,,,,,,,,,,True,False,True,0.79,-0.20999999999999996,-12.189999999999998,-1.750833333333333,6.9,5.149166666666668,2.574583333333334,gamble,lose,5.149166666666668,209.96125,1123.8596580991289,None,1123.8596580991289,None,1123.8596580991289,None,1123.8596580991289,None,1123.8596580991289,None,1123.8596580991289,None,1123.8596580991289,None,1,0.8338989016483538,1123.8596580991289,None,1124.7266489076428,None,1124.7266489076428,None,1124.7266489076428,None,1124.7266489076428,None,1124.7266489076428,None,1124.7266489076428,None,1124.7266489076428,None,1128.7114414392854,None,1128.7114414392854,None,1128.7114414392854,None,1128.7114414392854,None,1128.7114414392854,None,1128.7114414392854,None,1128.7114414392854,None,1129.7118708552443,None,,,,,,,,,,,,,,,,,,,,23607,2019_Dec_06_1329,Mmi_3levels,3.1.5,59.99234062387028,
,,,3,1,1.3,,,,,,,,,0,2,2,2,0,24,24,12,,,,,,,,,,,,,,,,,,,,,,,,,,,,,,,,,,,,,,,,,,,,,,,,,,,,,,,,,,,,,True,False,False,0.79,-0.20999999999999996,-12.399999999999999,-1.768333333333333,1.3,-0.46833333333333305,0.4158333333333335,gamble,lose,-0.46833333333333305,209.49291666666667,1131.7293313174741,None,1131.7293313174741,None,1131.7293313174741,None,1131.7293313174741,None,1131.7293313174741,None,1131.7293313174741,None,1131.7293313174741,None,1,1.600819474144373,1131.7293313174741,None,1133.3632318190066,None,1133.3632318190066,None,1133.3632318190066,None,1133.3632318190066,None,1133.3632318190066,None,1133.3632318190066,None,1133.3632318190066,None,1137.348136024375,None,1137.348136024375,None,1137.348136024375,None,1137.348136024375,None,1137.348136024375,None,1137.348136024375,None,1137.348136024375,None,1146.8516851056484,None,1138.348470725643,None,1139.348845104687,None,0.44,7.5027884838636965,1142.349935603619,None,None,1142.349935603619,None,,,,,,,,,23607,2019_Dec_06_1329,Mmi_3levels,3.1.5,59.99234062387028,
,,,3,1,1.9,,,,,,,,,0,2,2,2,0,25,25,25,,,,,,,,,,,,,,,,,,,,,,,,,,,,,,,,,,,,,,,,,,,,,,,,,,,,,,,,,,,,,True,True,False,0.44,-0.56,-12.959999999999999,20.8,1.9,-18.900000000000002,-8.500000000000002,certain,certain,-8.500000000000002,200.99291666666667,1148.8691145295743,None,1148.8691145295743,None,1148.8691145295743,None,1148.8691145295743,None,1148.8691145295743,None,1148.8691145295743,None,1148.8691145295743,None,3,1.6508579519577324,1148.8691145295743,None,1150.5530551089323,None,1150.5530551089323,None,1150.5530551089323,None,1150.5530551089323,None,1150.5530551089323,None,1150.5530551089323,None,1150.5530551089323,None,1154.554551665089,None,1154.554551665089,None,1154.554551665089,None,1154.554551665089,None,1154.554551665089,None,1154.554551665089,None,1154.554551665089,None,1155.5383119345643,None,,,,,,,,,,,,,,,,,,,,23607,2019_Dec_06_1329,Mmi_3levels,3.1.5,59.99234062387028,
,,,3,1,2.7,,,,,,,,,0,2,2,2,0,26,26,11,,,,,,,,,,,,,,,,,,,,,,,,,,,,,,,,,,,,,,,,,,,,,,,,,,,,,,,,,,,,,True,True,True,0.44,-0.56,-13.52,21.36,2.7,-18.66,-7.98,gamble,win,2.7,203.69291666666666,1157.555740078562,None,1157.555740078562,None,1157.555740078562,None,1157.555740078562,None,1157.555740078562,None,1157.555740078562,None,1157.555740078562,None,1,2.2011176974046975,1157.555740078562,None,1159.7899148048018,None,1159.7899148048018,None,1159.7899148048018,None,1159.7899148048018,None,1159.7899148048018,None,1159.7899148048018,None,1159.7899148048018,None,1163.7747569336207,None,1163.7747569336207,None,1163.7747569336207,None,1163.7747569336207,None,1163.7747569336207,None,1163.7747569336207,None,1163.7747569336207,None,1173.2783556120703,None,1164.7751754701603,None,1165.7755578487413,None,0.78,7.502799363224767,1168.7765949107124,None,None,1168.7765949107124,None,,,,,,,,,23607,2019_Dec_06_1329,Mmi_3levels,3.1.5,59.99234062387028,
,,,,,,,,,,,,,,,,,,,,,,,,,,,,,,,,,,,,,,,,,,,,,,,,,,,,,,,,,,,,,,,,,,,,,,,,,,,,,,,,,,,,,,,,,,,,,,,,,,,,,,,,,,,,,,,,,,,,,,,,,,,,,,,,,,,,,,,,,,,,,,,,,,,,,,,,,,,1175.279136048397,None,4,13.75538361852523,1175.279136048397,None,203.69291666666666,5,,,,,,
