currSlide,currImage,currText,blockNum,targetHappiness,highAmount,instructionLoop1.thisRepN,instructionLoop1.thisTrialN,instructionLoop1.thisN,instructionLoop1.thisIndex,instructionLoop2.thisRepN,instructionLoop2.thisTrialN,instructionLoop2.thisN,instructionLoop2.thisIndex,blockLoop.thisRepN,blockLoop.thisTrialN,blockLoop.thisN,blockLoop.thisIndex,trialLoop.thisRepN,trialLoop.thisTrialN,trialLoop.thisN,trialLoop.thisIndex,doRatingLoop.thisRepN,doRatingLoop.thisTrialN,doRatingLoop.thisN,doRatingLoop.thisIndex,trialHappyLoop.thisRepN,trialHappyLoop.thisTrialN,trialHappyLoop.thisN,trialHappyLoop.thisIndex,logWinningsLoop.thisRepN,logWinningsLoop.thisTrialN,logWinningsLoop.thisN,logWinningsLoop.thisIndex,instrImage.started,instrImage.stopped,instrText.started,instrText.stopped,instrContinueText.started,instrContinueText.stopped,instrKeyResp.keys,instrKeyResp.rt,instrKeyResp.started,instrKeyResp.stopped,lifeHappyText.started,lifeHappyText.stopped,lifeHappySlider.response,lifeHappySlider.rt,lifeHappySlider.started,lifeHappySlider.stopped,lifeHappyResp.keys,lifeHappyResp.rt,lifeHappyResp.started,lifeHappyResp.stopped,instrImage_2.started,instrImage_2.stopped,instrText_2.started,instrText_2.stopped,instrContinueText_2.started,instrContinueText_2.stopped,instrKeyResp_2.keys,instrKeyResp_2.rt,instrKeyResp_2.started,instrKeyResp_2.stopped,localizing.started,localizing.stopped,start_exp.keys,start_exp.rt,start_exp.started,start_exp.stopped,blockHappyText.started,blockHappyText.stopped,blockHappySlider.response,blockHappySlider.rt,blockHappySlider.started,blockHappySlider.stopped,blockHappyResp.keys,blockHappyResp.rt,blockHappyResp.started,blockHappyResp.stopped,blankText.started,blankText.stopped,isHappyBlock,isCongruent,isWinOnTop,lastHappyRating,diff,sumDiff,RPE,winAmount,loseAmount,certainAmount,choice,outcome,outcomeAmount,currentWinnings,fixCross.started,fixCross.stopped,certainBox.started,certainBox.stopped,outcome1Box.started,outcome1Box.stopped,outcome2Box.started,outcome2Box.stopped,certainText.started,certainText.stopped,outcome1Text.started,outcome1Text.stopped,outcome2Text.started,outcome2Text.stopped,choiceKey.keys,choiceKey.rt,choiceKey.started,choiceKey.stopped,fixCross_2.started,fixCross_2.stopped,certainBox_2.started,certainBox_2.stopped,outcome1Box_2.started,outcome1Box_2.stopped,outcome2Box_2.started,outcome2Box_2.stopped,certainText_2.started,certainText_2.stopped,outcome1Text_2.started,outcome1Text_2.stopped,outcome2Text_2.started,outcome2Text_2.stopped,fixCross_3.started,fixCross_3.stopped,certainBox_3.started,certainBox_3.stopped,outcome1Box_3.started,outcome1Box_3.stopped,outcome2Box_3.started,outcome2Box_3.stopped,certainText_3.started,certainText_3.stopped,outcome1Text_3.started,outcome1Text_3.stopped,outcome2Text_3.started,outcome2Text_3.stopped,fixCross_ITI.started,fixCross_ITI.stopped,fixCross_ISI.started,fixCross_ISI.stopped,happyText.started,happyText.stopped,happySlider.response,happySlider.rt,happySlider.started,happySlider.stopped,happyResp.keys,happyResp.started,happyResp.stopped,endOfBlockText.started,endOfBlockText.stopped,restKeyResp.keys,restKeyResp.rt,restKeyResp.started,restKeyResp.stopped,finalWinnings,cashBonus,goodbyeText.started,goodbyeText.stopped,finalWinningsText.started,finalWinningsText.stopped,spaceToContinue.started,spaceToContinue.stopped,goodbyeKeyResp_2.keys,goodbyeKeyResp_2.rt,goodbyeKeyResp_2.started,goodbyeKeyResp_2.stopped,participant,date,expName,psychopyVersion,frameRate,
1,black.png,"Welcome! You are about to play our gambling task.
This task has 3 blocks and takes about 15 minutes.",,,,0,0,0,0,,,,,,,,,,,,,,,,,,,,,,,,,2233.754354236182,None,2233.754354236182,None,2233.754354236182,None,4,2.9846498196129687,2233.754354236182,None,,,,,,,,,,,,,,,,,,,,,,,,,,,,,,,,,,,,,,,,,,,,,,,,,,,,,,,,,,,,,,,,,,,,,,,,,,,,,,,,,,,,,,,,,,,,,,,,,,,,,,,,,,,,,,,,,,,,,,,,,,,,,,,,,,24169,2019_Dec_09_1610,Mmi_3levels,3.1.5,59.96747546005408,
2,black.png,"In this game, you may win or lose points. Your goal is to get as many points as possible. These points will be converted to a cash bonus at the end.
Sometimes we will ask you to rate your mood.",,,,0,1,1,1,,,,,,,,,,,,,,,,,,,,,,,,,2236.7888316654426,None,2236.7888316654426,None,2236.7888316654426,None,4,4.051684465666767,2236.7888316654426,None,,,,,,,,,,,,,,,,,,,,,,,,,,,,,,,,,,,,,,,,,,,,,,,,,,,,,,,,,,,,,,,,,,,,,,,,,,,,,,,,,,,,,,,,,,,,,,,,,,,,,,,,,,,,,,,,,,,,,,,,,,,,,,,,,,24169,2019_Dec_09_1610,Mmi_3levels,3.1.5,59.96747546005408,
3,black.png,"On the next screen, please rate how you feel about your life these days. Use the LEFT (green) and RIGHT (blue) buttons to move the slider (you can press and hold them to slide gradually) and the TOP (red) button to lock in your response.
Make your rating as accurately and quickly as you can!",,,,0,2,2,2,,,,,,,,,,,,,,,,,,,,,,,,,2240.8903770188917,None,2240.8903770188917,None,2240.8903770188917,None,4,8.620043357572285,2240.8903770188917,None,,,,,,,,,,,,,,,,,,,,,,,,,,,,,,,,,,,,,,,,,,,,,,,,,,,,,,,,,,,,,,,,,,,,,,,,,,,,,,,,,,,,,,,,,,,,,,,,,,,,,,,,,,,,,,,,,,,,,,,,,,,,,,,,,,24169,2019_Dec_09_1610,Mmi_3levels,3.1.5,59.96747546005408,
,,,,,,,,,,,,,,,,,,,,,,,,,,,,,,,,,,,,,,,,,,,,2249.527012407314,None,0.79,8.16897997711203,2253.5284206484503,None,4,4.151883334532613,2253.5284206484503,None,,,,,,,,,,,,,,,,,,,,,,,,,,,,,,,,,,,,,,,,,,,,,,,,,,,,,,,,,,,,,,,,,,,,,,,,,,,,,,,,,,,,,,,,,,,,,,,,,,,,,,,,,,,,,,,,,,,,,,,,24169,2019_Dec_09_1610,Mmi_3levels,3.1.5,59.96747546005408,
4,black.png,"In this game you can win money by earning points according to your choices. You will decide whether to gamble a number of points or stick with a guaranteed number of points. 
Make your choice by pressing the left or right arrow key once. An example of one trial is shown on the next screen.",,,,,,,,0,0,0,0,,,,,,,,,,,,,,,,,,,,,,,,,,,,,,,,,,,,,,,,,2257.7467610613967,None,2257.7467610613967,None,2257.7467610613967,None,4,4.752097082557157,2257.7467610613967,None,,,,,,,,,,,,,,,,,,,,,,,,,,,,,,,,,,,,,,,,,,,,,,,,,,,,,,,,,,,,,,,,,,,,,,,,,,,,,,,,,,,,,,,,,,,,,,,,,,,,,,,,,,,,,,24169,2019_Dec_09_1610,Mmi_3levels,3.1.5,59.96747546005408,
5,example_start.png,"The GAMBLING OPTION will be shown on the RIGHT SIDE. 
Select this option using the RIGHT (blue) button on your keypad.",,,,,,,,0,1,1,1,,,,,,,,,,,,,,,,,,,,,,,,,,,,,,,,,,,,,,,,,2262.5651875495096,None,2262.5651875495096,None,2262.5651875495096,None,4,3.16821841977071,2262.5651875495096,None,,,,,,,,,,,,,,,,,,,,,,,,,,,,,,,,,,,,,,,,,,,,,,,,,,,,,,,,,,,,,,,,,,,,,,,,,,,,,,,,,,,,,,,,,,,,,,,,,,,,,,,,,,,,,,24169,2019_Dec_09_1610,Mmi_3levels,3.1.5,59.96747546005408,
6,example_gamble.png,"Once you select the gambling choice, the choice you made will remain on the screen.",,,,,,,,0,2,2,2,,,,,,,,,,,,,,,,,,,,,,,,,,,,,,,,,,,,,,,,,2265.7664262001344,None,2265.7664262001344,None,2265.7664262001344,None,4,1.417374387034215,2265.7664262001344,None,,,,,,,,,,,,,,,,,,,,,,,,,,,,,,,,,,,,,,,,,,,,,,,,,,,,,,,,,,,,,,,,,,,,,,,,,,,,,,,,,,,,,,,,,,,,,,,,,,,,,,,,,,,,,,24169,2019_Dec_09_1610,Mmi_3levels,3.1.5,59.96747546005408,
7,example_win.png,"The outcome you received will then be shown on the screen. In this example , you WON 10 points.",,,,,,,,0,3,3,3,,,,,,,,,,,,,,,,,,,,,,,,,,,,,,,,,,,,,,,,,2267.2169993680436,None,2267.2169993680436,None,2267.2169993680436,None,4,1.2840228147106245,2267.2169993680436,None,,,,,,,,,,,,,,,,,,,,,,,,,,,,,,,,,,,,,,,,,,,,,,,,,,,,,,,,,,,,,,,,,,,,,,,,,,,,,,,,,,,,,,,,,,,,,,,,,,,,,,,,,,,,,,24169,2019_Dec_09_1610,Mmi_3levels,3.1.5,59.96747546005408,
8,example_start.png,"The GUARANTEED OPTION will be shown on the LEFT SIDE. You are 100% guaranteed to gain or lose this amount. In this example, you have a 100% chance of winning 1 point. Select this option using the LEFT (green) button on your keyboard.",,,,,,,,0,4,4,4,,,,,,,,,,,,,,,,,,,,,,,,,,,,,,,,,,,,,,,,,2268.5508625917137,None,2268.5508625917137,None,2268.5508625917137,None,4,1.0173891062149778,2268.5508625917137,None,,,,,,,,,,,,,,,,,,,,,,,,,,,,,,,,,,,,,,,,,,,,,,,,,,,,,,,,,,,,,,,,,,,,,,,,,,,,,,,,,,,,,,,,,,,,,,,,,,,,,,,,,,,,,,24169,2019_Dec_09_1610,Mmi_3levels,3.1.5,59.96747546005408,
9,example_certain.png,"Once you select the guaranteed choice, your selection will remain on the screen.",,,,,,,,0,5,5,5,,,,,,,,,,,,,,,,,,,,,,,,,,,,,,,,,,,,,,,,,2269.601262329321,None,2269.601262329321,None,2269.601262329321,None,4,0.8170800035295542,2269.601262329321,None,,,,,,,,,,,,,,,,,,,,,,,,,,,,,,,,,,,,,,,,,,,,,,,,,,,,,,,,,,,,,,,,,,,,,,,,,,,,,,,,,,,,,,,,,,,,,,,,,,,,,,,,,,,,,,24169,2019_Dec_09_1610,Mmi_3levels,3.1.5,59.96747546005408,
10,black.png,"Please make your choices as fast as possible.
You will be given a break at the end of each block.
Let's play!",,,,,,,,0,6,6,6,,,,,,,,,,,,,,,,,,,,,,,,,,,,,,,,,,,,,,,,,2270.4515609525843,None,2270.4515609525843,None,2270.4515609525843,None,4,2.401193213183433,2270.4515609525843,None,,,,,,,,,,,,,,,,,,,,,,,,,,,,,,,,,,,,,,,,,,,,,,,,,,,,,,,,,,,,,,,,,,,,,,,,,,,,,,,,,,,,,,,,,,,,,,,,,,,,,,,,,,,,,,24169,2019_Dec_09_1610,Mmi_3levels,3.1.5,59.96747546005408,
,,,,,,,,,,,,,,,,,,,,,,,,,,,,,,,,,,,,,,,,,,,,,,,,,,,,,,,,,,,,,,,,2272.869191965263,None,space,355.0847549337195,2272.869191965263,None,,,,,,,,,,,,,,,,,,,,,,,,,,,,,,,,,,,,,,,,,,,,,,,,,,,,,,,,,,,,,,,,,,,,,,,,,,,,,,,,,,,,,,,,,,,,,,,,,,,,,,,,24169,2019_Dec_09_1610,Mmi_3levels,3.1.5,59.96747546005408,
,,,1,1,12.9,,,,,,,,,0,0,0,0,0,0,0,6,,,,,,,,,,,,,,,,,,,,,,,,,,,,,,,,,,,,,,,,,,,,,,,,,2627.9702707848337,None,0.9,6.259215243946528,2630.988125144999,None,4,3.234772132738726,2630.988125144999,None,2634.23932227795,None,True,True,False,0.9,-0.09999999999999998,-0.09999999999999998,1.4999999999999996,12.9,11.4,5.7,gamble,win,12.9,12.9,2637.2737817882153,None,2637.2737817882153,None,2637.2737817882153,None,2637.2737817882153,None,2637.2737817882153,None,2637.2737817882153,None,2637.2737817882153,None,1,2.8013224859605543,2637.2737817882153,None,2640.1082105802197,None,2640.1082105802197,None,2640.1082105802197,None,2640.1082105802197,None,2640.1082105802197,None,2640.1082105802197,None,2640.1082105802197,None,2644.0930226307537,None,2644.0930226307537,None,2644.0930226307537,None,2644.0930226307537,None,2644.0930226307537,None,2644.0930226307537,None,2644.0930226307537,None,2645.0934248482226,None,,,,,,,,,,,,,,,,,,,,,,,,,,,,,,24169,2019_Dec_09_1610,Mmi_3levels,3.1.5,59.96747546005408,
,,,1,1,9.7,,,,,,,,,0,0,0,0,0,1,1,9,,,,,,,,,,,,,,,,,,,,,,,,,,,,,,,,,,,,,,,,,,,,,,,,,,,,,,,,,,,,,True,False,True,0.9,-0.09999999999999998,-0.19999999999999996,-0.3666666666666666,9.7,9.333333333333332,4.666666666666666,gamble,lose,9.333333333333332,22.233333333333334,2647.1108030750474,None,2647.1108030750474,None,2647.1108030750474,None,2647.1108030750474,None,2647.1108030750474,None,2647.1108030750474,None,2647.1108030750474,None,1,1.8343420768505894,2647.1108030750474,None,2648.978184581676,None,2648.978184581676,None,2648.978184581676,None,2648.978184581676,None,2648.978184581676,None,2648.978184581676,None,2648.978184581676,None,2652.9631297447486,None,2652.9631297447486,None,2652.9631297447486,None,2652.9631297447486,None,2652.9631297447486,None,2652.9631297447486,None,2652.9631297447486,None,2653.963457406382,None,,,,,,,,,,,,,,,,,,,,,,,,,,,,,,24169,2019_Dec_09_1610,Mmi_3levels,3.1.5,59.96747546005408,
,,,1,1,5.1,,,,,,,,,0,0,0,0,0,2,2,26,,,,,,,,,,,,,,,,,,,,,,,,,,,,,,,,,,,,,,,,,,,,,,,,,,,,,,,,,,,,,True,False,True,0.9,-0.09999999999999998,-0.29999999999999993,-0.3749999999999999,5.1,4.725,2.3625,gamble,lose,4.725,26.958333333333336,2655.980854512163,None,2655.980854512163,None,2655.980854512163,None,2655.980854512163,None,2655.980854512163,None,2655.980854512163,None,2655.980854512163,None,1,1.3008071547956206,2655.980854512163,None,2657.3147446142975,None,2657.3147446142975,None,2657.3147446142975,None,2657.3147446142975,None,2657.3147446142975,None,2657.3147446142975,None,2657.3147446142975,None,2661.2995429056173,None,2661.2995429056173,None,2661.2995429056173,None,2661.2995429056173,None,2661.2995429056173,None,2661.2995429056173,None,2661.2995429056173,None,2670.803142863995,None,2662.2999256041658,None,2663.3003099026682,None,0.91,7.5027817642258015,2666.30149095651,None,None,2666.30149095651,None,,,,,,,,,,,,,,,,,,,24169,2019_Dec_09_1610,Mmi_3levels,3.1.5,59.96747546005408,
,,,1,1,2.3,,,,,,,,,0,0,0,0,0,3,3,3,,,,,,,,,,,,,,,,,,,,,,,,,,,,,,,,,,,,,,,,,,,,,,,,,,,,,,,,,,,,,True,True,False,0.91,-0.08999999999999997,-0.3899999999999999,1.6499999999999995,2.3,0.6500000000000004,1.475,gamble,win,2.3,29.258333333333336,2672.8205662083055,None,2672.8205662083055,None,2672.8205662083055,None,2672.8205662083055,None,2672.8205662083055,None,2672.8205662083055,None,2672.8205662083055,None,1,1.750941307283938,2672.8205662083055,None,2674.60459782253,None,2674.60459782253,None,2674.60459782253,None,2674.60459782253,None,2674.60459782253,None,2674.60459782253,None,2674.60459782253,None,2678.6061615749495,None,2678.6061615749495,None,2678.6061615749495,None,2678.6061615749495,None,2678.6061615749495,None,2678.6061615749495,None,2678.6061615749495,None,2679.589817210246,None,,,,,,,,,,,,,,,,,,,,,,,,,,,,,,24169,2019_Dec_09_1610,Mmi_3levels,3.1.5,59.96747546005408,
,,,1,1,0.5,,,,,,,,,0,0,0,0,0,4,4,13,,,,,,,,,,,,,,,,,,,,,,,,,,,,,,,,,,,,,,,,,,,,,,,,,,,,,,,,,,,,,True,True,True,0.91,-0.08999999999999997,-0.47999999999999987,1.7399999999999993,0.5,-1.2399999999999993,-0.36999999999999966,gamble,win,0.5,29.758333333333336,2681.6073323893943,None,2681.6073323893943,None,2681.6073323893943,None,2681.6073323893943,None,2681.6073323893943,None,2681.6073323893943,None,2681.6073323893943,None,1,1.9676235730876215,2681.6073323893943,None,2683.608007231611,None,2683.608007231611,None,2683.608007231611,None,2683.608007231611,None,2683.608007231611,None,2683.608007231611,None,2683.608007231611,None,2687.592838801036,None,2687.592838801036,None,2687.592838801036,None,2687.592838801036,None,2687.592838801036,None,2687.592838801036,None,2687.592838801036,None,2697.096443239192,None,2688.5932237394736,None,2689.593616037513,None,0.93,7.502617933409056,2692.594713896018,None,None,2692.594713896018,None,,,,,,,,,,,,,,,,,,,24169,2019_Dec_09_1610,Mmi_3levels,3.1.5,59.96747546005408,
,,,1,1,13.7,,,,,,,,,0,0,0,0,0,5,5,15,,,,,,,,,,,,,,,,,,,,,,,,,,,,,,,,,,,,,,,,,,,,,,,,,,,,,,,,,,,,,True,False,False,0.93,-0.06999999999999995,-0.5499999999999998,-0.29083333333333317,13.7,13.409166666666666,6.704583333333333,gamble,lose,13.409166666666666,43.167500000000004,2699.113873303111,None,2699.113873303111,None,2699.113873303111,None,2699.113873303111,None,2699.113873303111,None,2699.113873303111,None,2699.113873303111,None,1,1.5008093946962617,2699.113873303111,None,2700.647864199622,None,2700.647864199622,None,2700.647864199622,None,2700.647864199622,None,2700.647864199622,None,2700.647864199622,None,2700.647864199622,None,2704.6326461718127,None,2704.6326461718127,None,2704.6326461718127,None,2704.6326461718127,None,2704.6326461718127,None,2704.6326461718127,None,2704.6326461718127,None,2705.633043589565,None,,,,,,,,,,,,,,,,,,,,,,,,,,,,,,24169,2019_Dec_09_1610,Mmi_3levels,3.1.5,59.96747546005408,
,,,1,1,8.3,,,,,,,,,0,0,0,0,0,6,6,0,,,,,,,,,,,,,,,,,,,,,,,,,,,,,,,,,,,,,,,,,,,,,,,,,,,,,,,,,,,,,True,True,True,0.93,-0.06999999999999995,-0.6199999999999998,1.5999999999999992,8.3,6.700000000000001,3.3500000000000005,gamble,win,8.3,51.4675,2707.6504374954966,None,2707.6504374954966,None,2707.6504374954966,None,2707.6504374954966,None,2707.6504374954966,None,2707.6504374954966,None,2707.6504374954966,None,1,0.9839615381788462,2707.6504374954966,None,2708.66747910119,None,2708.66747910119,None,2708.66747910119,None,2708.66747910119,None,2708.66747910119,None,2708.66747910119,None,2708.66747910119,None,2712.652341708861,None,2712.652341708861,None,2712.652341708861,None,2712.652341708861,None,2712.652341708861,None,2712.652341708861,None,2712.652341708861,None,2713.6527148079767,None,,,,,,,,,,,,,,,,,,,,,,,,,,,,,,24169,2019_Dec_09_1610,Mmi_3levels,3.1.5,59.96747546005408,
,,,1,1,9.3,,,,,,,,,0,0,0,0,0,7,7,8,,,,,,,,,,,,,,,,,,,,,,,,,,,,,,,,,,,,,,,,,,,,,,,,,,,,,,,,,,,,,True,True,True,0.93,-0.06999999999999995,-0.6899999999999997,1.669999999999999,9.3,7.630000000000002,3.815000000000001,gamble,win,9.3,60.7675,2715.6701685505686,None,2715.6701685505686,None,2715.6701685505686,None,2715.6701685505686,None,2715.6701685505686,None,2715.6701685505686,None,2715.6701685505686,None,1,0.8672256753779948,2715.6701685505686,None,2716.570486132783,None,2716.570486132783,None,2716.570486132783,None,2716.570486132783,None,2716.570486132783,None,2716.570486132783,None,2716.570486132783,None,2720.5553500204114,None,2720.5553500204114,None,2720.5553500204114,None,2720.5553500204114,None,2720.5553500204114,None,2720.5553500204114,None,2720.5553500204114,None,2730.058947418962,None,2721.555684081686,None,2722.556108377932,None,0.93,7.502754885732429,2725.5571569592285,None,None,2725.5571569592285,None,,,,,,,,,,,,,,,,,,,24169,2019_Dec_09_1610,Mmi_3levels,3.1.5,59.96747546005408,
,,,1,1,0.7,,,,,,,,,0,0,0,0,0,8,8,22,,,,,,,,,,,,,,,,,,,,,,,,,,,,,,,,,,,,,,,,,,,,,,,,,,,,,,,,,,,,,True,False,True,0.93,-0.06999999999999995,-0.7599999999999997,-0.3083333333333331,0.7,0.39166666666666683,0.5458333333333334,gamble,lose,0.39166666666666683,61.159166666666664,2732.0763522042835,None,2732.0763522042835,None,2732.0763522042835,None,2732.0763522042835,None,2732.0763522042835,None,2732.0763522042835,None,2732.0763522042835,None,1,0.900662522908533,2732.0763522042835,None,2732.9933994096355,None,2732.9933994096355,None,2732.9933994096355,None,2732.9933994096355,None,2732.9933994096355,None,2732.9933994096355,None,2732.9933994096355,None,2736.9948818866105,None,2736.9948818866105,None,2736.9948818866105,None,2736.9948818866105,None,2736.9948818866105,None,2736.9948818866105,None,2736.9948818866105,None,2737.995282184216,None,,,,,,,,,,,,,,,,,,,,,,,,,,,,,,24169,2019_Dec_09_1610,Mmi_3levels,3.1.5,59.96747546005408,
,,,1,1,8.5,,,,,,,,,0,0,0,0,0,9,9,4,,,,,,,,,,,,,,,,,,,,,,,,,,,,,,,,,,,,,,,,,,,,,,,,,,,,,,,,,,,,,True,True,True,0.93,-0.06999999999999995,-0.8299999999999996,1.809999999999999,8.5,6.690000000000001,3.3450000000000006,gamble,win,8.5,69.65916666666666,2740.012683129753,None,2740.012683129753,None,2740.012683129753,None,2740.012683129753,None,2740.012683129753,None,2740.012683129753,None,2740.012683129753,None,1,0.9839960962126497,2740.012683129753,None,2741.0298178502126,None,2741.0298178502126,None,2741.0298178502126,None,2741.0298178502126,None,2741.0298178502126,None,2741.0298178502126,None,2741.0298178502126,None,2745.014617101464,None,2745.014617101464,None,2745.014617101464,None,2745.014617101464,None,2745.014617101464,None,2745.014617101464,None,2745.014617101464,None,2754.518201700703,None,2746.0149543625594,None,2747.0153514603153,None,0.94,7.502679369965335,2750.016460518207,None,None,2750.016460518207,None,,,,,,,,,,,,,,,,,,,24169,2019_Dec_09_1610,Mmi_3levels,3.1.5,59.96747546005408,
,,,1,1,2.5,,,,,,,,,0,0,0,0,0,10,10,17,,,,,,,,,,,,,,,,,,,,,,,,,,,,,,,,,,,,,,,,,,,,,,,,,,,,,,,,,,,,,True,True,True,0.94,-0.06000000000000005,-0.8899999999999997,1.7300000000000004,2.5,0.7699999999999996,1.6349999999999998,gamble,win,2.5,72.15916666666666,2756.5356048861286,None,2756.5356048861286,None,2756.5356048861286,None,2756.5356048861286,None,2756.5356048861286,None,2756.5356048861286,None,2756.5356048861286,None,1,0.9673419888422359,2756.5356048861286,None,2757.5193385970488,None,2757.5193385970488,None,2757.5193385970488,None,2757.5193385970488,None,2757.5193385970488,None,2757.5193385970488,None,2757.5193385970488,None,2761.520804754953,None,2761.520804754953,None,2761.520804754953,None,2761.520804754953,None,2761.520804754953,None,2761.520804754953,None,2761.520804754953,None,2762.5211874535016,None,,,,,,,,,,,,,,,,,,,,,,,,,,,,,,24169,2019_Dec_09_1610,Mmi_3levels,3.1.5,59.96747546005408,
,,,1,1,-1.3,,,,,,,,,0,0,0,0,0,11,11,24,,,,,,,,,,,,,,,,,,,,,,,,,,,,,,,,,,,,,,,,,,,,,,,,,,,,,,,,,,,,,True,True,True,0.94,-0.06000000000000005,-0.9499999999999997,1.7900000000000005,-1.3,-3.0900000000000007,-2.1950000000000003,certain,certain,-2.1950000000000003,69.96416666666667,2764.5386111177795,None,2764.5386111177795,None,2764.5386111177795,None,2764.5386111177795,None,2764.5386111177795,None,2764.5386111177795,None,2764.5386111177795,None,3,2.1342276832438074,2764.5386111177795,None,2766.7061018983077,None,2766.7061018983077,None,2766.7061018983077,None,2766.7061018983077,None,2766.7061018983077,None,2766.7061018983077,None,2766.7061018983077,None,2770.7076166934858,None,2770.7076166934858,None,2770.7076166934858,None,2770.7076166934858,None,2770.7076166934858,None,2770.7076166934858,None,2770.7076166934858,None,2780.1945990224776,None,2771.6913388850226,None,2772.6917286232056,None,0.92,7.502758725517197,2775.692876078945,None,None,2775.692876078945,None,,,,,,,,,,,,,,,,,,,24169,2019_Dec_09_1610,Mmi_3levels,3.1.5,59.96747546005408,
,,,1,1,6.5,,,,,,,,,0,0,0,0,0,12,12,12,,,,,,,,,,,,,,,,,,,,,,,,,,,,,,,,,,,,,,,,,,,,,,,,,,,,,,,,,,,,,True,True,True,0.92,-0.07999999999999996,-1.0299999999999998,2.1499999999999995,6.5,4.3500000000000005,2.1750000000000003,gamble,win,6.5,76.46416666666667,2782.2119852488395,None,2782.2119852488395,None,2782.2119852488395,None,2782.2119852488395,None,2782.2119852488395,None,2782.2119852488395,None,2782.2119852488395,None,1,1.1673730271286331,2782.2119852488395,None,2783.412491780473,None,2783.412491780473,None,2783.412491780473,None,2783.412491780473,None,2783.412491780473,None,2783.412491780473,None,2783.412491780473,None,2787.397236314777,None,2787.397236314777,None,2787.397236314777,None,2787.397236314777,None,2787.397236314777,None,2787.397236314777,None,2787.397236314777,None,2788.3976663707,None,,,,,,,,,,,,,,,,,,,,,,,,,,,,,,24169,2019_Dec_09_1610,Mmi_3levels,3.1.5,59.96747546005408,
,,,1,1,11.5,,,,,,,,,0,0,0,0,0,13,13,10,,,,,,,,,,,,,,,,,,,,,,,,,,,,,,,,,,,,,,,,,,,,,,,,,,,,,,,,,,,,,True,False,False,0.92,-0.07999999999999996,-1.1099999999999999,-0.37249999999999983,11.5,11.1275,5.56375,gamble,lose,11.1275,87.59166666666667,2790.415124913008,None,2790.415124913008,None,2790.415124913008,None,2790.415124913008,None,2790.415124913008,None,2790.415124913008,None,2790.415124913008,None,1,0.7338248257874511,2790.415124913008,None,2791.1820848432544,None,2791.1820848432544,None,2791.1820848432544,None,2791.1820848432544,None,2791.1820848432544,None,2791.1820848432544,None,2791.1820848432544,None,2795.1668850544374,None,2795.1668850544374,None,2795.1668850544374,None,2795.1668850544374,None,2795.1668850544374,None,2795.1668850544374,None,2795.1668850544374,None,2796.1672520738794,None,,,,,,,,,,,,,,,,,,,,,,,,,,,,,,24169,2019_Dec_09_1610,Mmi_3levels,3.1.5,59.96747546005408,
,,,1,1,11.9,,,,,,,,,0,0,0,0,0,14,14,14,,,,,,,,,,,,,,,,,,,,,,,,,,,,,,,,,,,,,,,,,,,,,,,,,,,,,,,,,,,,,True,False,False,0.92,-0.07999999999999996,-1.19,-0.37916666666666654,11.9,11.520833333333334,5.760416666666667,gamble,lose,11.520833333333334,99.1125,2798.1847070963995,None,2798.1847070963995,None,2798.1847070963995,None,2798.1847070963995,None,2798.1847070963995,None,2798.1847070963995,None,2798.1847070963995,None,1,1.0339830569573678,2798.1847070963995,None,2799.251755821693,None,2799.251755821693,None,2799.251755821693,None,2799.251755821693,None,2799.251755821693,None,2799.251755821693,None,2799.251755821693,None,2803.2532984552963,None,2803.2532984552963,None,2803.2532984552963,None,2803.2532984552963,None,2803.2532984552963,None,2803.2532984552963,None,2803.2532984552963,None,2812.7402372667275,None,2804.2370014479384,None,2805.237372307165,None,0.95,7.5027299271314405,2808.2384781652363,None,None,2808.2384781652363,None,,,,,,,,,,,,,,,,,,,24169,2019_Dec_09_1610,Mmi_3levels,3.1.5,59.96747546005408,
,,,1,1,-1.1,,,,,,,,,0,0,0,0,0,15,15,18,,,,,,,,,,,,,,,,,,,,,,,,,,,,,,,,,,,,,,,,,,,,,,,,,,,,,,,,,,,,,True,True,False,0.95,-0.050000000000000044,-1.24,1.9400000000000006,-1.1,-3.040000000000001,-2.0700000000000003,gamble,win,-1.1,98.0125,2814.7576900493586,None,2814.7576900493586,None,2814.7576900493586,None,2814.7576900493586,None,2814.7576900493586,None,2814.7576900493586,None,2814.7576900493586,None,1,1.4841124097001739,2814.7576900493586,None,2816.274862367718,None,2816.274862367718,None,2816.274862367718,None,2816.274862367718,None,2816.274862367718,None,2816.274862367718,None,2816.274862367718,None,2820.2763813226484,None,2820.2763813226484,None,2820.2763813226484,None,2820.2763813226484,None,2820.2763813226484,None,2820.2763813226484,None,2820.2763813226484,None,2821.2600635164417,None,,,,,,,,,,,,,,,,,,,,,,,,,,,,,,24169,2019_Dec_09_1610,Mmi_3levels,3.1.5,59.96747546005408,
,,,1,1,-0.9,,,,,,,,,0,0,0,0,0,16,16,16,,,,,,,,,,,,,,,,,,,,,,,,,,,,,,,,,,,,,,,,,,,,,,,,,,,,,,,,,,,,,True,True,True,0.95,-0.050000000000000044,-1.29,1.9900000000000007,-0.9,-2.8900000000000006,-1.8950000000000002,gamble,win,-0.9,97.1125,2823.277523018711,None,2823.277523018711,None,2823.277523018711,None,2823.277523018711,None,2823.277523018711,None,2823.277523018711,None,2823.277523018711,None,1,1.1840373738959897,2823.277523018711,None,2824.4946641388233,None,2824.4946641388233,None,2824.4946641388233,None,2824.4946641388233,None,2824.4946641388233,None,2824.4946641388233,None,2824.4946641388233,None,2828.496176374145,None,2828.496176374145,None,2828.496176374145,None,2828.496176374145,None,2828.496176374145,None,2828.496176374145,None,2828.496176374145,None,2837.983101106336,None,2829.479865287547,None,2830.480277744442,None,0.93,7.5028825585905,2833.481385202438,None,None,2833.481385202438,None,,,,,,,,,,,,,,,,,,,24169,2019_Dec_09_1610,Mmi_3levels,3.1.5,59.96747546005408,
,,,1,1,11.1,,,,,,,,,0,0,0,0,0,17,17,20,,,,,,,,,,,,,,,,,,,,,,,,,,,,,,,,,,,,,,,,,,,,,,,,,,,,,,,,,,,,,True,True,True,0.93,-0.06999999999999995,-1.3599999999999999,2.339999999999999,11.1,8.760000000000002,4.380000000000001,gamble,win,11.1,108.21249999999999,2840.0005193309335,None,2840.0005193309335,None,2840.0005193309335,None,2840.0005193309335,None,2840.0005193309335,None,2840.0005193309335,None,2840.0005193309335,None,1,0.9174254241806921,2840.0005193309335,None,2840.9508862703806,None,2840.9508862703806,None,2840.9508862703806,None,2840.9508862703806,None,2840.9508862703806,None,2840.9508862703806,None,2840.9508862703806,None,2844.952429543948,None,2844.952429543948,None,2844.952429543948,None,2844.952429543948,None,2844.952429543948,None,2844.952429543948,None,2844.952429543948,None,2845.9360858192085,None,,,,,,,,,,,,,,,,,,,,,,,,,,,,,,24169,2019_Dec_09_1610,Mmi_3levels,3.1.5,59.96747546005408,
,,,1,1,3.5,,,,,,,,,0,0,0,0,0,18,18,25,,,,,,,,,,,,,,,,,,,,,,,,,,,,,,,,,,,,,,,,,,,,,,,,,,,,,,,,,,,,,True,True,True,0.93,-0.06999999999999995,-1.4299999999999997,2.4099999999999993,3.5,1.0900000000000007,0.5450000000000004,gamble,win,3.5,111.71249999999999,2847.953642596025,None,2847.953642596025,None,2847.953642596025,None,2847.953642596025,None,2847.953642596025,None,2847.953642596025,None,2847.953642596025,None,1,0.8671188013686333,2847.953642596025,None,2848.8371870375413,None,2848.8371870375413,None,2848.8371870375413,None,2848.8371870375413,None,2848.8371870375413,None,2848.8371870375413,None,2848.8371870375413,None,2852.8387223115715,None,2852.8387223115715,None,2852.8387223115715,None,2852.8387223115715,None,2852.8387223115715,None,2852.8387223115715,None,2852.8387223115715,None,2853.8390781316266,None,,,,,,,,,,,,,,,,,,,,,,,,,,,,,,24169,2019_Dec_09_1610,Mmi_3levels,3.1.5,59.96747546005408,
,,,1,1,10.1,,,,,,,,,0,0,0,0,0,19,19,11,,,,,,,,,,,,,,,,,,,,,,,,,,,,,,,,,,,,,,,,,,,,,,,,,,,,,,,,,,,,,True,True,True,0.93,-0.06999999999999995,-1.4999999999999996,2.4799999999999986,10.1,7.620000000000001,3.8100000000000005,gamble,win,10.1,121.81249999999999,2855.8565613125684,None,2855.8565613125684,None,2855.8565613125684,None,2855.8565613125684,None,2855.8565613125684,None,2855.8565613125684,None,2855.8565613125684,None,1,0.9172475141240284,2855.8565613125684,None,2856.806998328102,None,2856.806998328102,None,2856.806998328102,None,2856.806998328102,None,2856.806998328102,None,2856.806998328102,None,2856.806998328102,None,2860.7917329429765,None,2860.7917329429765,None,2860.7917329429765,None,2860.7917329429765,None,2860.7917329429765,None,2860.7917329429765,None,2860.7917329429765,None,2870.2953313014586,None,2861.7921092418837,None,2862.792488420644,None,0.93,7.502754245768301,2865.793629156775,None,None,2865.793629156775,None,,,,,,,,,,,,,,,,,,,24169,2019_Dec_09_1610,Mmi_3levels,3.1.5,59.96747546005408,
,,,1,1,1.9,,,,,,,,,0,0,0,0,0,20,20,1,,,,,,,,,,,,,,,,,,,,,,,,,,,,,,,,,,,,,,,,,,,,,,,,,,,,,,,,,,,,,True,False,True,0.93,-0.06999999999999995,-1.5699999999999994,-0.37583333333333313,1.9,1.524166666666667,1.7120833333333334,gamble,lose,1.524166666666667,123.33666666666666,2872.3127434463822,None,2872.3127434463822,None,2872.3127434463822,None,2872.3127434463822,None,2872.3127434463822,None,2872.3127434463822,None,2872.3127434463822,None,1,1.4341417680552695,2872.3127434463822,None,2873.7799611222,None,2873.7799611222,None,2873.7799611222,None,2873.7799611222,None,2873.7799611222,None,2873.7799611222,None,2873.7799611222,None,2877.7648298095446,None,2877.7648298095446,None,2877.7648298095446,None,2877.7648298095446,None,2877.7648298095446,None,2877.7648298095446,None,2877.7648298095446,None,2878.765191389277,None,,,,,,,,,,,,,,,,,,,,,,,,,,,,,,24169,2019_Dec_09_1610,Mmi_3levels,3.1.5,59.96747546005408,
,,,1,1,11.7,,,,,,,,,0,0,0,0,0,21,21,5,,,,,,,,,,,,,,,,,,,,,,,,,,,,,,,,,,,,,,,,,,,,,,,,,,,,,,,,,,,,,True,True,False,0.93,-0.06999999999999995,-1.6399999999999992,2.6199999999999983,11.7,9.080000000000002,4.540000000000001,gamble,win,11.7,135.03666666666666,2880.782632332586,None,2880.782632332586,None,2880.782632332586,None,2880.782632332586,None,2880.782632332586,None,2880.782632332586,None,2880.782632332586,None,1,1.0171651187702082,2880.782632332586,None,2881.8330621485366,None,2881.8330621485366,None,2881.8330621485366,None,2881.8330621485366,None,2881.8330621485366,None,2881.8330621485366,None,2881.8330621485366,None,2885.817851160333,None,2885.817851160333,None,2885.817851160333,None,2885.817851160333,None,2885.817851160333,None,2885.817851160333,None,2885.817851160333,None,2895.321467757807,None,2886.8182556176907,None,2887.8186360763793,None,0.96,7.502867519418942,2890.819791531685,None,None,2890.819791531685,None,,,,,,,,,,,,,,,,,,,24169,2019_Dec_09_1610,Mmi_3levels,3.1.5,59.96747546005408,
,,,1,1,4.3,,,,,,,,,0,0,0,0,0,22,22,7,,,,,,,,,,,,,,,,,,,,,,,,,,,,,,,,,,,,,,,,,,,,,,,,,,,,,,,,,,,,,True,True,True,0.96,-0.040000000000000036,-1.6799999999999993,2.2399999999999998,4.3,2.06,1.03,gamble,win,4.3,139.33666666666667,2897.338883422548,None,2897.338883422548,None,2897.338883422548,None,2897.338883422548,None,2897.338883422548,None,2897.338883422548,None,2897.338883422548,None,1,0.9337841880624183,2897.338883422548,None,2898.306037581904,None,2898.306037581904,None,2898.306037581904,None,2898.306037581904,None,2898.306037581904,None,2898.306037581904,None,2898.306037581904,None,2902.3074589423195,None,2902.3074589423195,None,2902.3074589423195,None,2902.3074589423195,None,2902.3074589423195,None,2902.3074589423195,None,2902.3074589423195,None,2903.291154255363,None,,,,,,,,,,,,,,,,,,,,,,,,,,,,,,24169,2019_Dec_09_1610,Mmi_3levels,3.1.5,59.96747546005408,
,,,1,1,-0.7,,,,,,,,,0,0,0,0,0,23,23,19,,,,,,,,,,,,,,,,,,,,,,,,,,,,,,,,,,,,,,,,,,,,,,,,,,,,,,,,,,,,,True,True,False,0.96,-0.040000000000000036,-1.7199999999999993,2.28,-0.7,-2.9799999999999995,-1.8399999999999999,certain,certain,-1.8399999999999999,137.49666666666667,2905.3085951986723,None,2905.3085951986723,None,2905.3085951986723,None,2905.3085951986723,None,2905.3085951986723,None,2905.3085951986723,None,2905.3085951986723,None,3,1.5341451278654858,2905.3085951986723,None,2906.8758629516815,None,2906.8758629516815,None,2906.8758629516815,None,2906.8758629516815,None,2906.8758629516815,None,2906.8758629516815,None,2906.8758629516815,None,2910.877307670773,None,2910.877307670773,None,2910.877307670773,None,2910.877307670773,None,2910.877307670773,None,2910.877307670773,None,2910.877307670773,None,2920.3642813602637,None,2911.861146655807,None,2912.86144167927,None,0.94,7.502740486554103,2915.8625603366236,None,None,2915.8625603366236,None,,,,,,,,,,,,,,,,,,,24169,2019_Dec_09_1610,Mmi_3levels,3.1.5,59.96747546005408,
,,,1,1,12.3,,,,,,,,,0,0,0,0,0,24,24,23,,,,,,,,,,,,,,,,,,,,,,,,,,,,,,,,,,,,,,,,,,,,,,,,,,,,,,,,,,,,,True,False,False,0.94,-0.06000000000000005,-1.7799999999999994,-0.3583333333333335,12.3,11.941666666666666,5.970833333333333,gamble,lose,11.941666666666666,149.43833333333333,2922.3817146240035,None,2922.3817146240035,None,2922.3817146240035,None,2922.3817146240035,None,2922.3817146240035,None,2922.3817146240035,None,2922.3817146240035,None,1,0.8172377546725329,2922.3817146240035,None,2923.2320311662625,None,2923.2320311662625,None,2923.2320311662625,None,2923.2320311662625,None,2923.2320311662625,None,2923.2320311662625,None,2923.2320311662625,None,2927.2336326765653,None,2927.2336326765653,None,2927.2336326765653,None,2927.2336326765653,None,2927.2336326765653,None,2927.2336326765653,None,2927.2336326765653,None,2928.217284472077,None,,,,,,,,,,,,,,,,,,,,,,,,,,,,,,24169,2019_Dec_09_1610,Mmi_3levels,3.1.5,59.96747546005408,
,,,1,1,10.5,,,,,,,,,0,0,0,0,0,25,25,21,,,,,,,,,,,,,,,,,,,,,,,,,,,,,,,,,,,,,,,,,,,,,,,,,,,,,,,,,,,,,True,False,True,0.94,-0.06000000000000005,-1.8399999999999994,-0.3633333333333335,10.5,10.136666666666667,5.068333333333333,gamble,lose,10.136666666666667,159.575,2930.234688937431,None,2930.234688937431,None,2930.234688937431,None,2930.234688937431,None,2930.234688937431,None,2930.234688937431,None,2930.234688937431,None,1,0.9839727375365328,2930.234688937431,None,2931.251715503953,None,2931.251715503953,None,2931.251715503953,None,2931.251715503953,None,2931.251715503953,None,2931.251715503953,None,2931.251715503953,None,2935.2365742718393,None,2935.2365742718393,None,2935.2365742718393,None,2935.2365742718393,None,2935.2365742718393,None,2935.2365742718393,None,2935.2365742718393,None,2936.236958570342,None,,,,,,,,,,,,,,,,,,,,,,,,,,,,,,24169,2019_Dec_09_1610,Mmi_3levels,3.1.5,59.96747546005408,
,,,1,1,1.1,,,,,,,,,0,0,0,0,0,26,26,2,,,,,,,,,,,,,,,,,,,,,,,,,,,,,,,,,,,,,,,,,,,,,,,,,,,,,,,,,,,,,True,False,False,0.94,-0.06000000000000005,-1.8999999999999995,-0.3683333333333335,1.1,0.7316666666666666,0.9158333333333333,gamble,lose,0.7316666666666666,160.30666666666664,2938.2543879942677,None,2938.2543879942677,None,2938.2543879942677,None,2938.2543879942677,None,2938.2543879942677,None,2938.2543879942677,None,2938.2543879942677,None,1,0.8839188205602113,2938.2543879942677,None,2939.171425600187,None,2939.171425600187,None,2939.171425600187,None,2939.171425600187,None,2939.171425600187,None,2939.171425600187,None,2939.171425600187,None,2943.1562414904765,None,2943.1562414904765,None,2943.1562414904765,None,2943.1562414904765,None,2943.1562414904765,None,2943.1562414904765,None,2943.1562414904765,None,2952.65987120723,None,2944.156625788979,None,2945.1570296063437,None,0.91,7.5027228875260334,2948.1580791475717,None,None,2948.1580791475717,None,,,,,,,,,,,,,,,,,,,24169,2019_Dec_09_1610,Mmi_3levels,3.1.5,59.96747546005408,
,,,2,0,10.3,,,,,,,,,0,1,1,1,0,0,0,0,,,,,,,,,,,,,,,,,,,,,,,,,,,,,,,,,,,,,,,,,,,,,,,,,2959.912580575503,None,0.95,7.50178022030741,2962.930389498186,None,None,,2962.930389498186,None,2967.4154247362167,None,False,False,False,0.95,0.95,0.95,3.4041666666666663,2.575,-0.8291666666666662,0.872916666666667,gamble,win,2.575,162.88166666666663,2970.4499511227477,None,2970.4499511227477,None,2970.4499511227477,None,2970.4499511227477,None,2970.4499511227477,None,2970.4499511227477,None,2970.4499511227477,None,1,2.3677627652941737,2970.4499511227477,None,2972.8508496324357,None,2972.8508496324357,None,2972.8508496324357,None,2972.8508496324357,None,2972.8508496324357,None,2972.8508496324357,None,2972.8508496324357,None,2976.8356501635863,None,2976.8356501635863,None,2976.8356501635863,None,2976.8356501635863,None,2976.8356501635863,None,2976.8356501635863,None,2976.8356501635863,None,2977.836031262268,None,,,,,,,,,,,,2954.660619005357,None,4,5.235503611795139,2954.660619005357,None,,,,,,,,,,,,,24169,2019_Dec_09_1610,Mmi_3levels,3.1.5,59.96747546005408,
,,,2,0,10.7,,,,,,,,,0,1,1,1,0,1,1,16,,,,,,,,,,,,,,,,,,,,,,,,,,,,,,,,,,,,,,,,,,,,,,,,,,,,,,,,,,,,,False,True,False,0.95,0.95,1.9,-15.2,10.7,-4.5,-2.25,gamble,lose,-4.5,158.38166666666663,2979.853458446334,None,2979.853458446334,None,2979.853458446334,None,2979.853458446334,None,2979.853458446334,None,2979.853458446334,None,2979.853458446334,None,1,1.134018094977364,2979.853458446334,None,2981.020601406344,None,2981.020601406344,None,2981.020601406344,None,2981.020601406344,None,2981.020601406344,None,2981.020601406344,None,2981.020601406344,None,2985.005407697172,None,2985.005407697172,None,2985.005407697172,None,2985.005407697172,None,2985.005407697172,None,2985.005407697172,None,2985.005407697172,None,2994.509008295543,None,2986.0057689569367,None,2987.0061682945816,None,0.92,7.5027308870630804,2990.0072933515767,None,None,2990.0072933515767,None,,,,,,,,,,,,,,,,,,,24169,2019_Dec_09_1610,Mmi_3levels,3.1.5,59.96747546005408,
,,,2,0,10.5,,,,,,,,,0,1,1,1,0,2,2,1,,,,,,,,,,,,,,,,,,,,,,,,,,,,,,,,,,,,,,,,,,,,,,,,,,,,,,,,,,,,,False,False,False,0.92,0.92,2.82,3.455,2.625,-0.8300000000000001,0.8975,gamble,win,2.625,161.00666666666663,2996.526411160972,None,2996.526411160972,None,2996.526411160972,None,2996.526411160972,None,2996.526411160972,None,2996.526411160972,None,2996.526411160972,None,1,2.217803802981507,2996.526411160972,None,2998.7773014311388,None,2998.7773014311388,None,2998.7773014311388,None,2998.7773014311388,None,2998.7773014311388,None,2998.7773014311388,None,2998.7773014311388,None,3002.762125640962,None,3002.762125640962,None,3002.762125640962,None,3002.762125640962,None,3002.762125640962,None,3002.762125640962,None,3002.762125640962,None,3003.7625083395396,None,,,,,,,,,,,,,,,,,,,,,,,,,,,,,,24169,2019_Dec_09_1610,Mmi_3levels,3.1.5,59.96747546005408,
,,,2,0,1.1,,,,,,,,,0,1,1,1,0,3,3,19,,,,,,,,,,,,,,,,,,,,,,,,,,,,,,,,,,,,,,,,,,,,,,,,,,,,,,,,,,,,,False,True,False,0.92,0.92,3.7399999999999998,-16.62,1.1,-15.520000000000001,-7.210000000000001,gamble,lose,-15.520000000000001,145.48666666666662,3005.779938083462,None,3005.779938083462,None,3005.779938083462,None,3005.779938083462,None,3005.779938083462,None,3005.779938083462,None,3005.779938083462,None,1,1.4508118745288812,3005.779938083462,None,3007.2638668234576,None,3007.2638668234576,None,3007.2638668234576,None,3007.2638668234576,None,3007.2638668234576,None,3007.2638668234576,None,3007.2638668234576,None,3011.265347060573,None,3011.265347060573,None,3011.265347060573,None,3011.265347060573,None,3011.265347060573,None,3011.265347060573,None,3011.265347060573,None,3020.752249074052,None,3012.2490468533942,None,3013.2493924340233,None,0.93,7.502739206596743,3016.2505885270657,None,None,3016.2505885270657,None,,,,,,,,,,,,,,,,,,,24169,2019_Dec_09_1610,Mmi_3levels,3.1.5,59.96747546005408,
,,,2,0,-1.1,,,,,,,,,0,1,1,1,0,4,4,26,,,,,,,,,,,,,,,,,,,,,,,,,,,,,,,,,,,,,,,,,,,,,,,,,,,,,,,,,,,,,False,False,True,0.93,0.93,4.67,3.644166666666667,-0.275,-3.919166666666667,-2.0970833333333334,certain,certain,-2.0970833333333334,143.3895833333333,3022.769705056533,None,3022.769705056533,None,3022.769705056533,None,3022.769705056533,None,3022.769705056533,None,3022.769705056533,None,3022.769705056533,None,3,2.017652131500654,3022.769705056533,None,3024.8204628540843,None,3024.8204628540843,None,3024.8204628540843,None,3024.8204628540843,None,3024.8204628540843,None,3024.8204628540843,None,3024.8204628540843,None,3028.8220310862816,None,3028.8220310862816,None,3028.8220310862816,None,3028.8220310862816,None,3028.8220310862816,None,3028.8220310862816,None,3028.8220310862816,None,3029.805661122984,None,,,,,,,,,,,,,,,,,,,,,,,,,,,,,,24169,2019_Dec_09_1610,Mmi_3levels,3.1.5,59.96747546005408,
,,,2,0,-0.9,,,,,,,,,0,1,1,1,0,5,5,3,,,,,,,,,,,,,,,,,,,,,,,,,,,,,,,,,,,,,,,,,,,,,,,,,,,,,,,,,,,,,False,True,False,0.93,0.93,5.6,-18.62,-0.9,-19.52,-10.209999999999999,gamble,lose,-19.52,123.8695833333333,3031.823135984392,None,3031.823135984392,None,3031.823135984392,None,3031.823135984392,None,3031.823135984392,None,3031.823135984392,None,3031.823135984392,None,1,1.6175017398782074,3031.823135984392,None,3033.473752349877,None,3033.473752349877,None,3033.473752349877,None,3033.473752349877,None,3033.473752349877,None,3033.473752349877,None,3033.473752349877,None,3037.475246666203,None,3037.475246666203,None,3037.475246666203,None,3037.475246666203,None,3037.475246666203,None,3037.475246666203,None,3037.475246666203,None,3038.4590066156525,None,,,,,,,,,,,,,,,,,,,,,,,,,,,,,,24169,2019_Dec_09_1610,Mmi_3levels,3.1.5,59.96747546005408,
,,,2,0,1.9,,,,,,,,,0,1,1,1,0,6,6,21,,,,,,,,,,,,,,,,,,,,,,,,,,,,,,,,,,,,,,,,,,,,,,,,,,,,,,,,,,,,,False,True,True,0.93,0.93,6.529999999999999,-19.55,1.9,-17.650000000000002,-7.875000000000001,certain,certain,-7.875000000000001,115.9945833333333,3040.4764024414762,None,3040.4764024414762,None,3040.4764024414762,None,3040.4764024414762,None,3040.4764024414762,None,3040.4764024414762,None,3040.4764024414762,None,3,1.4675491772650275,3040.4764024414762,None,3041.9769939283433,None,3041.9769939283433,None,3041.9769939283433,None,3041.9769939283433,None,3041.9769939283433,None,3041.9769939283433,None,3041.9769939283433,None,3045.978489844565,None,3045.978489844565,None,3045.978489844565,None,3045.978489844565,None,3045.978489844565,None,3045.978489844565,None,3045.978489844565,None,3055.465412656893,None,3046.9621777980647,None,3047.9625771356805,None,0.9,7.502775684552034,3050.963693873142,None,None,3050.963693873142,None,,,,,,,,,,,,,,,,,,,24169,2019_Dec_09_1610,Mmi_3levels,3.1.5,59.96747546005408,
,,,2,0,4.1,,,,,,,,,0,1,1,1,0,7,7,17,,,,,,,,,,,,,,,,,,,,,,,,,,,,,,,,,,,,,,,,,,,,,,,,,,,,,,,,,,,,,False,False,False,0.9,0.9,7.43,3.7691666666666666,1.025,-2.7441666666666666,-0.8595833333333334,gamble,win,1.025,117.0195833333333,3057.482818722172,None,3057.482818722172,None,3057.482818722172,None,3057.482818722172,None,3057.482818722172,None,3057.482818722172,None,3057.482818722172,None,1,1.0006646027904935,3057.482818722172,None,3058.5165733119065,None,3058.5165733119065,None,3058.5165733119065,None,3058.5165733119065,None,3058.5165733119065,None,3058.5165733119065,None,3058.5165733119065,None,3062.518085547228,None,3062.518085547228,None,3062.518085547228,None,3062.518085547228,None,3062.518085547228,None,3062.518085547228,None,3062.518085547228,None,3063.5018166982627,None,,,,,,,,,,,,,,,,,,,,,,,,,,,,,,24169,2019_Dec_09_1610,Mmi_3levels,3.1.5,59.96747546005408,
,,,2,0,13.1,,,,,,,,,0,1,1,1,0,8,8,8,,,,,,,,,,,,,,,,,,,,,,,,,,,,,,,,,,,,,,,,,,,,,,,,,,,,,,,,,,,,,False,False,True,0.9,0.9,8.33,3.8441666666666667,3.275,-0.5691666666666668,1.3529166666666665,gamble,win,3.275,120.2945833333333,3065.5192477221426,None,3065.5192477221426,None,3065.5192477221426,None,3065.5192477221426,None,3065.5192477221426,None,3065.5192477221426,None,3065.5192477221426,None,1,1.2840589726984035,3065.5192477221426,None,3066.8363890022156,None,3066.8363890022156,None,3066.8363890022156,None,3066.8363890022156,None,3066.8363890022156,None,3066.8363890022156,None,3066.8363890022156,None,3070.837932915776,None,3070.837932915776,None,3070.837932915776,None,3070.837932915776,None,3070.837932915776,None,3070.837932915776,None,3070.837932915776,None,3080.3248192501196,None,3071.821555912873,None,3072.821998448082,None,0.88,7.5029359955806285,3075.8231071860064,None,None,3075.8231071860064,None,,,,,,,,,,,,,,,,,,,24169,2019_Dec_09_1610,Mmi_3levels,3.1.5,59.96747546005408,
,,,2,0,7.1,,,,,,,,,0,1,1,1,0,9,9,6,,,,,,,,,,,,,,,,,,,,,,,,,,,,,,,,,,,,,,,,,,,,,,,,,,,,,,,,,,,,,False,True,False,0.88,0.88,9.21,-21.53,7.1,-14.430000000000001,-3.665000000000001,certain,certain,-3.665000000000001,116.6295833333333,3082.342250593967,None,3082.342250593967,None,3082.342250593967,None,3082.342250593967,None,3082.342250593967,None,3082.342250593967,None,3082.342250593967,None,3,2.450997144158464,3082.342250593967,None,3084.8265258745523,None,3084.8265258745523,None,3084.8265258745523,None,3084.8265258745523,None,3084.8265258745523,None,3084.8265258745523,None,3084.8265258745523,None,3088.8280304303044,None,3088.8280304303044,None,3088.8280304303044,None,3088.8280304303044,None,3088.8280304303044,None,3088.8280304303044,None,3088.8280304303044,None,3089.811768300977,None,,,,,,,,,,,,,,,,,,,,,,,,,,,,,,24169,2019_Dec_09_1610,Mmi_3levels,3.1.5,59.96747546005408,
,,,2,0,7.7,,,,,,,,,0,1,1,1,0,10,10,7,,,,,,,,,,,,,,,,,,,,,,,,,,,,,,,,,,,,,,,,,,,,,,,,,,,,,,,,,,,,,False,True,False,0.88,0.88,10.090000000000002,-22.410000000000004,7.7,-14.710000000000004,-3.505000000000002,certain,certain,-3.505000000000002,113.1245833333333,3091.829177886044,None,3091.829177886044,None,3091.829177886044,None,3091.829177886044,None,3091.829177886044,None,3091.829177886044,None,3091.829177886044,None,3,1.1840258545707911,3091.829177886044,None,3093.046302367089,None,3093.046302367089,None,3093.046302367089,None,3093.046302367089,None,3093.046302367089,None,3093.046302367089,None,3093.046302367089,None,3097.031148975657,None,3097.031148975657,None,3097.031148975657,None,3097.031148975657,None,3097.031148975657,None,3097.031148975657,None,3097.031148975657,None,3098.031502555852,None,,,,,,,,,,,,,,,,,,,,,,,,,,,,,,24169,2019_Dec_09_1610,Mmi_3levels,3.1.5,59.96747546005408,
,,,2,0,10.1,,,,,,,,,0,1,1,1,0,11,11,15,,,,,,,,,,,,,,,,,,,,,,,,,,,,,,,,,,,,,,,,,,,,,,,,,,,,,,,,,,,,,False,True,True,0.88,0.88,10.970000000000002,-23.290000000000003,10.1,-13.190000000000003,-1.5450000000000017,certain,certain,-1.5450000000000017,111.5795833333333,3100.0489594982646,None,3100.0489594982646,None,3100.0489594982646,None,3100.0489594982646,None,3100.0489594982646,None,3100.0489594982646,None,3100.0489594982646,None,3,1.634194565092912,3100.0489594982646,None,3101.716245330259,None,3101.716245330259,None,3101.716245330259,None,3101.716245330259,None,3101.716245330259,None,3101.716245330259,None,3101.716245330259,None,3105.717761085398,None,3105.717761085398,None,3105.717761085398,None,3105.717761085398,None,3105.717761085398,None,3105.717761085398,None,3105.717761085398,None,3115.204690297338,None,3106.7015002359985,None,3107.7018832545436,None,0.86,7.502699208853301,3110.702995512256,None,None,3110.702995512256,None,,,,,,,,,,,,,,,,,,,24169,2019_Dec_09_1610,Mmi_3levels,3.1.5,59.96747546005408,
,,,2,0,8.1,,,,,,,,,0,1,1,1,0,12,12,12,,,,,,,,,,,,,,,,,,,,,,,,,,,,,,,,,,,,,,,,,,,,,,,,,,,,,,,,,,,,,False,True,False,0.86,0.86,11.830000000000002,-23.87,8.1,-15.770000000000001,-3.835000000000001,gamble,lose,-15.770000000000001,95.80958333333331,3117.2221485196787,None,3117.2221485196787,None,3117.2221485196787,None,3117.2221485196787,None,3117.2221485196787,None,3117.2221485196787,None,3117.2221485196787,None,1,2.2343958338315133,3117.2221485196787,None,3119.4896445799095,None,3119.4896445799095,None,3119.4896445799095,None,3119.4896445799095,None,3119.4896445799095,None,3119.4896445799095,None,3119.4896445799095,None,3123.4911433759844,None,3123.4911433759844,None,3123.4911433759844,None,3123.4911433759844,None,3123.4911433759844,None,3123.4911433759844,None,3123.4911433759844,None,3124.4748578879808,None,,,,,,,,,,,,,,,,,,,,,,,,,,,,,,24169,2019_Dec_09_1610,Mmi_3levels,3.1.5,59.96747546005408,
,,,2,0,8.3,,,,,,,,,0,1,1,1,0,13,13,10,,,,,,,,,,,,,,,,,,,,,,,,,,,,,,,,,,,,,,,,,,,,,,,,,,,,,,,,,,,,,False,True,False,0.86,0.86,12.690000000000001,-24.73,8.3,-16.43,-4.0649999999999995,certain,certain,-4.0649999999999995,91.74458333333331,3126.4923292295716,None,3126.4923292295716,None,3126.4923292295716,None,3126.4923292295716,None,3126.4923292295716,None,3126.4923292295716,None,3126.4923292295716,None,3,1.9507441983150784,3126.4923292295716,None,3128.4763794027676,None,3128.4763794027676,None,3128.4763794027676,None,3128.4763794027676,None,3128.4763794027676,None,3128.4763794027676,None,3128.4763794027676,None,3132.4778717992012,None,3132.4778717992012,None,3132.4778717992012,None,3132.4778717992012,None,3132.4778717992012,None,3132.4778717992012,None,3132.4778717992012,None,3141.9648419688456,None,3133.461599750415,None,3134.4619562104635,None,0.91,7.502801283146255,3137.4631020663073,None,None,3137.4631020663073,None,,,,,,,,,,,,,,,,,,,24169,2019_Dec_09_1610,Mmi_3levels,3.1.5,59.96747546005408,
,,,2,0,-1.3,,,,,,,,,0,1,1,1,0,14,14,24,,,,,,,,,,,,,,,,,,,,,,,,,,,,,,,,,,,,,,,,,,,,,,,,,,,,,,,,,,,,,False,True,False,0.91,0.91,13.600000000000001,-26.340000000000003,-1.3,-27.640000000000004,-14.470000000000002,gamble,lose,-27.640000000000004,64.10458333333331,3143.9822441943397,None,3143.9822441943397,None,3143.9822441943397,None,3143.9822441943397,None,3143.9822441943397,None,3143.9822441943397,None,3143.9822441943397,None,None,,3143.9822441943397,None,3146.983385250438,None,3146.983385250438,None,3146.983385250438,None,3146.983385250438,None,3146.983385250438,None,3146.983385250438,None,3146.983385250438,None,3150.9848981257237,None,3150.9848981257237,None,3150.9848981257237,None,3150.9848981257237,None,3150.9848981257237,None,3150.9848981257237,None,3150.9848981257237,None,3151.96860399819,None,,,,,,,,,,,,,,,,,,,,,,,,,,,,,,24169,2019_Dec_09_1610,Mmi_3levels,3.1.5,59.96747546005408,
,,,2,0,5.5,,,,,,,,,0,1,1,1,0,15,15,4,,,,,,,,,,,,,,,,,,,,,,,,,,,,,,,,,,,,,,,,,,,,,,,,,,,,,,,,,,,,,False,True,False,0.91,0.91,14.510000000000002,-27.25,5.5,-21.75,-8.125,certain,certain,-8.125,55.97958333333331,3153.9860107034037,None,3153.9860107034037,None,3153.9860107034037,None,3153.9860107034037,None,3153.9860107034037,None,3153.9860107034037,None,3153.9860107034037,None,3,0.7838844224752393,3153.9860107034037,None,3154.803089427005,None,3154.803089427005,None,3154.803089427005,None,3154.803089427005,None,3154.803089427005,None,3154.803089427005,None,3154.803089427005,None,3158.7878752390097,None,3158.7878752390097,None,3158.7878752390097,None,3158.7878752390097,None,3158.7878752390097,None,3158.7878752390097,None,3158.7878752390097,None,3168.291446399002,None,3159.7882256193843,None,3160.788609597861,None,0.87,7.502729287138209,3163.7897285752115,None,None,3163.7897285752115,None,,,,,,,,,,,,,,,,,,,24169,2019_Dec_09_1610,Mmi_3levels,3.1.5,59.96747546005408,
,,,2,0,-0.7,,,,,,,,,0,1,1,1,0,16,16,13,,,,,,,,,,,,,,,,,,,,,,,,,,,,,,,,,,,,,,,,,,,,,,,,,,,,,,,,,,,,,False,True,True,0.87,0.87,15.38,-27.560000000000002,-0.7,-28.26,-14.48,gamble,lose,-28.26,27.719583333333308,3170.3088777428493,None,3170.3088777428493,None,3170.3088777428493,None,3170.3088777428493,None,3170.3088777428493,None,3170.3088777428493,None,3170.3088777428493,None,1,0.9505842072831001,3170.3088777428493,None,3171.2925791355665,None,3171.2925791355665,None,3171.2925791355665,None,3171.2925791355665,None,3171.2925791355665,None,3171.2925791355665,None,3171.2925791355665,None,3175.2941320086247,None,3175.2941320086247,None,3175.2941320086247,None,3175.2941320086247,None,3175.2941320086247,None,3175.2941320086247,None,3175.2941320086247,None,3176.277805562888,None,,,,,,,,,,,,,,,,,,,,,,,,,,,,,,24169,2019_Dec_09_1610,Mmi_3levels,3.1.5,59.96747546005408,
,,,2,0,2.1,,,,,,,,,0,1,1,1,0,17,17,14,,,,,,,,,,,,,,,,,,,,,,,,,,,,,,,,,,,,,,,,,,,,,,,,,,,,,,,,,,,,,False,True,True,0.87,0.87,16.25,-28.43,2.1,-26.33,-12.114999999999998,certain,certain,-12.114999999999998,15.60458333333331,3178.295334821247,None,3178.295334821247,None,3178.295334821247,None,3178.295334821247,None,3178.295334821247,None,3178.295334821247,None,3178.295334821247,None,3,1.6507833961222786,3178.295334821247,None,3179.9791918852716,None,3179.9791918852716,None,3179.9791918852716,None,3179.9791918852716,None,3179.9791918852716,None,3179.9791918852716,None,3179.9791918852716,None,3183.980721079628,None,3183.980721079628,None,3183.980721079628,None,3183.980721079628,None,3183.980721079628,None,3183.980721079628,None,3183.980721079628,None,3184.964454790548,None,,,,,,,,,,,,,,,,,,,,,,,,,,,,,,24169,2019_Dec_09_1610,Mmi_3levels,3.1.5,59.96747546005408,
,,,2,0,6.5,,,,,,,,,0,1,1,1,0,18,18,22,,,,,,,,,,,,,,,,,,,,,,,,,,,,,,,,,,,,,,,,,,,,,,,,,,,,,,,,,,,,,False,True,True,0.87,0.87,17.12,-29.3,6.5,-22.8,-8.15,certain,certain,-8.15,7.454583333333309,3186.981877174898,None,3186.981877174898,None,3186.981877174898,None,3186.981877174898,None,3186.981877174898,None,3186.981877174898,None,3186.981877174898,None,3,1.7008653915545437,3186.981877174898,None,3188.715845352679,None,3188.715845352679,None,3188.715845352679,None,3188.715845352679,None,3188.715845352679,None,3188.715845352679,None,3188.715845352679,None,3192.717396305816,None,3192.717396305816,None,3192.717396305816,None,3192.717396305816,None,3192.717396305816,None,3192.717396305816,None,3192.717396305816,None,3202.204251281946,None,3193.7010413816897,None,3194.7014621581184,None,0.88,7.502806402859278,3197.702595534647,None,None,3197.702595534647,None,,,,,,,,,,,,,,,,,,,24169,2019_Dec_09_1610,Mmi_3levels,3.1.5,59.96747546005408,
,,,2,0,4.7,,,,,,,,,0,1,1,1,0,19,19,2,,,,,,,,,,,,,,,,,,,,,,,,,,,,,,,,,,,,,,,,,,,,,,,,,,,,,,,,,,,,,False,False,True,0.88,0.88,18.0,4.58,1.175,-3.4050000000000002,-1.1150000000000002,gamble,win,1.175,8.62958333333331,3204.221769020951,None,3204.221769020951,None,3204.221769020951,None,3204.221769020951,None,3204.221769020951,None,3204.221769020951,None,3204.221769020951,None,1,1.4507667570433114,3204.221769020951,None,3205.705590886908,None,3205.705590886908,None,3205.705590886908,None,3205.705590886908,None,3205.705590886908,None,3205.705590886908,None,3205.705590886908,None,3209.690445495071,None,3209.690445495071,None,3209.690445495071,None,3209.690445495071,None,3209.690445495071,None,3209.690445495071,None,3209.690445495071,None,3210.6908253137954,None,,,,,,,,,,,,,,,,,,,,,,,,,,,,,,24169,2019_Dec_09_1610,Mmi_3levels,3.1.5,59.96747546005408,
,,,2,0,-0.1,,,,,,,,,0,1,1,1,0,20,20,9,,,,,,,,,,,,,,,,,,,,,,,,,,,,,,,,,,,,,,,,,,,,,,,,,,,,,,,,,,,,,False,True,False,0.88,0.88,18.88,-31.2,-0.1,-31.3,-15.700000000000001,certain,certain,-15.700000000000001,-7.070416666666691,3212.7082838561037,None,3212.7082838561037,None,3212.7082838561037,None,3212.7082838561037,None,3212.7082838561037,None,3212.7082838561037,None,3212.7082838561037,None,3,1.750889150222065,3212.7082838561037,None,3214.492265233159,None,3214.492265233159,None,3214.492265233159,None,3214.492265233159,None,3214.492265233159,None,3214.492265233159,None,3214.492265233159,None,3218.493782908161,None,3218.493782908161,None,3218.493782908161,None,3218.493782908161,None,3218.493782908161,None,3218.493782908161,None,3218.493782908161,None,3227.9807853960374,None,3219.4774875006988,None,3220.477838841034,None,0.83,7.502761925337836,3223.4789872567344,None,None,3223.4789872567344,None,,,,,,,,,,,,,,,,,,,24169,2019_Dec_09_1610,Mmi_3levels,3.1.5,59.96747546005408,
,,,2,0,12.7,,,,,,,,,0,1,1,1,0,21,21,5,,,,,,,,,,,,,,,,,,,,,,,,,,,,,,,,,,,,,,,,,,,,,,,,,,,,,,,,,,,,,False,True,False,0.83,0.83,19.709999999999997,-31.33,12.7,-18.63,-2.965,gamble,lose,-18.63,-25.70041666666669,3229.998136424372,None,3229.998136424372,None,3229.998136424372,None,3229.998136424372,None,3229.998136424372,None,3229.998136424372,None,3229.998136424372,None,1,2.1842508019763045,3229.998136424372,None,3232.215597206552,None,3232.215597206552,None,3232.215597206552,None,3232.215597206552,None,3232.215597206552,None,3232.215597206552,None,3232.215597206552,None,3236.2171100818377,None,3236.2171100818377,None,3236.2171100818377,None,3236.2171100818377,None,3236.2171100818377,None,3236.2171100818377,None,3236.2171100818377,None,3237.2008117945516,None,,,,,,,,,,,,,,,,,,,,,,,,,,,,,,24169,2019_Dec_09_1610,Mmi_3levels,3.1.5,59.96747546005408,
,,,2,0,1.3,,,,,,,,,0,1,1,1,0,22,22,11,,,,,,,,,,,,,,,,,,,,,,,,,,,,,,,,,,,,,,,,,,,,,,,,,,,,,,,,,,,,,False,True,True,0.83,0.83,20.539999999999996,-32.16,1.3,-30.859999999999996,-14.779999999999998,gamble,lose,-30.859999999999996,-56.56041666666668,3239.21831929413,None,3239.21831929413,None,3239.21831929413,None,3239.21831929413,None,3239.21831929413,None,3239.21831929413,None,3239.21831929413,None,1,1.2340614525601268,3239.21831929413,None,3240.4854172966443,None,3240.4854172966443,None,3240.4854172966443,None,3240.4854172966443,None,3240.4854172966443,None,3240.4854172966443,None,3240.4854172966443,None,3244.486945531069,None,3244.486945531069,None,3244.486945531069,None,3244.486945531069,None,3244.486945531069,None,3244.486945531069,None,3244.486945531069,None,3253.9738549041213,None,3245.47068468167,None,3246.4710891390278,None,0.87,7.502754245768301,3249.472137720295,None,None,3249.472137720295,None,,,,,,,,,,,,,,,,,,,24169,2019_Dec_09_1610,Mmi_3levels,3.1.5,59.96747546005408,
,,,2,0,11.7,,,,,,,,,0,1,1,1,0,23,23,18,,,,,,,,,,,,,,,,,,,,,,,,,,,,,,,,,,,,,,,,,,,,,,,,,,,,,,,,,,,,,False,False,False,0.87,0.87,21.409999999999997,4.829166666666667,2.925,-1.9041666666666668,0.5104166666666665,gamble,win,2.925,-53.635416666666686,3255.9913032070326,None,3255.9913032070326,None,3255.9913032070326,None,3255.9913032070326,None,3255.9913032070326,None,3255.9913032070326,None,3255.9913032070326,None,1,1.3341736063011922,3255.9913032070326,None,3257.358489684586,None,3257.358489684586,None,3257.358489684586,None,3257.358489684586,None,3257.358489684586,None,3257.358489684586,None,3257.358489684586,None,3261.3433282936167,None,3261.3433282936167,None,3261.3433282936167,None,3261.3433282936167,None,3261.3433282936167,None,3261.3433282936167,None,3261.3433282936167,None,3262.3437106721976,None,,,,,,,,,,,,,,,,,,,,,,,,,,,,,,24169,2019_Dec_09_1610,Mmi_3levels,3.1.5,59.96747546005408,
,,,2,0,11.1,,,,,,,,,0,1,1,1,0,24,24,20,,,,,,,,,,,,,,,,,,,,,,,,,,,,,,,,,,,,,,,,,,,,,,,,,,,,,,,,,,,,,False,False,True,0.87,0.87,22.279999999999998,4.901666666666666,2.775,-2.1266666666666665,0.3241666666666667,gamble,win,2.775,-50.86041666666669,3264.3611173774407,None,3264.3611173774407,None,3264.3611173774407,None,3264.3611173774407,None,3264.3611173774407,None,3264.3611173774407,None,3264.3611173774407,None,1,1.9843592758697923,3264.3611173774407,None,3266.3785596006783,None,3266.3785596006783,None,3266.3785596006783,None,3266.3785596006783,None,3266.3785596006783,None,3266.3785596006783,None,3266.3785596006783,None,3270.3801108738116,None,3270.3801108738116,None,3270.3801108738116,None,3270.3801108738116,None,3270.3801108738116,None,3270.3801108738116,None,3270.3801108738116,None,3271.3637962674256,None,,,,,,,,,,,,,,,,,,,,,,,,,,,,,,24169,2019_Dec_09_1610,Mmi_3levels,3.1.5,59.96747546005408,
,,,2,0,2.3,,,,,,,,,0,1,1,1,0,25,25,23,,,,,,,,,,,,,,,,,,,,,,,,,,,,,,,,,,,,,,,,,,,,,,,,,,,,,,,,,,,,,False,True,True,0.87,0.87,23.15,-35.33,2.3,-33.03,-15.365,certain,certain,-15.365,-66.22541666666669,3273.3812688889448,None,3273.3812688889448,None,3273.3812688889448,None,3273.3812688889448,None,3273.3812688889448,None,3273.3812688889448,None,3273.3812688889448,None,3,1.567486300773453,3273.3812688889448,None,3274.981833657337,None,3274.981833657337,None,3274.981833657337,None,3274.981833657337,None,3274.981833657337,None,3274.981833657337,None,3274.981833657337,None,3278.9833321334154,None,3278.9833321334154,None,3278.9833321334154,None,3278.9833321334154,None,3278.9833321334154,None,3278.9833321334154,None,3278.9833321334154,None,3288.4702431063924,None,3279.9670488852717,None,3280.9674578223785,None,0.82,7.5026576111558825,3283.9685483213107,None,None,3283.9685483213107,None,,,,,,,,,,,,,,,,,,,24169,2019_Dec_09_1610,Mmi_3levels,3.1.5,59.96747546005408,
,,,2,0,7.9,,,,,,,,,0,1,1,1,0,26,26,25,,,,,,,,,,,,,,,,,,,,,,,,,,,,,,,,,,,,,,,,,,,,,,,,,,,,,,,,,,,,,False,False,False,0.82,0.82,23.97,4.8675,1.975,-2.8924999999999996,-0.45874999999999977,gamble,win,1.975,-64.2504166666667,3290.4876747702074,None,3290.4876747702074,None,3290.4876747702074,None,3290.4876747702074,None,3290.4876747702074,None,3290.4876747702074,None,3290.4876747702074,None,1,1.1340299342991784,3290.4876747702074,None,3291.6547985312936,None,3291.6547985312936,None,3291.6547985312936,None,3291.6547985312936,None,3291.6547985312936,None,3291.6547985312936,None,3291.6547985312936,None,3295.6396611389937,None,3295.6396611389937,None,3295.6396611389937,None,3295.6396611389937,None,3295.6396611389937,None,3295.6396611389937,None,3295.6396611389937,None,3296.640024318651,None,,,,,,,,,,,,,,,,,,,,,,,,,,,,,,24169,2019_Dec_09_1610,Mmi_3levels,3.1.5,59.96747546005408,
,,,3,1,3.5,,,,,,,,,0,2,2,2,0,0,0,3,,,,,,,,,,,,,,,,,,,,,,,,,,,,,,,,,,,,,,,,,,,,,,,,,3308.7445791035716,None,0.83,7.501904053351609,3311.7624021054944,None,None,,3311.7624021054944,None,3316.2474261441384,None,True,False,False,0.83,-0.17000000000000004,-0.17000000000000004,-0.6091666666666669,3.5,2.890833333333333,1.4454166666666666,gamble,lose,2.890833333333333,-61.35958333333336,3319.281917012646,None,3319.281917012646,None,3319.281917012646,None,3319.281917012646,None,3319.281917012646,None,3319.281917012646,None,3319.281917012646,None,1,1.017321589984931,3319.281917012646,None,3320.3323061908595,None,3320.3323061908595,None,3320.3323061908595,None,3320.3323061908595,None,3320.3323061908595,None,3320.3323061908595,None,3320.3323061908595,None,3324.317166238703,None,3324.317166238703,None,3324.317166238703,None,3324.317166238703,None,3324.317166238703,None,3324.317166238703,None,3324.317166238703,None,3333.8207642772177,None,3325.3175444575318,None,3326.317921396403,None,0.83,7.502769604878267,3329.319038453861,None,None,3329.319038453861,None,3298.640775636566,None,4,10.08746646187501,3298.640775636566,None,,,,,,,,,,,,,24169,2019_Dec_09_1610,Mmi_3levels,3.1.5,59.96747546005408,
,,,3,1,9.9,,,,,,,,,0,2,2,2,0,1,1,10,,,,,,,,,,,,,,,,,,,,,,,,,,,,,,,,,,,,,,,,,,,,,,,,,,,,,,,,,,,,,True,True,True,0.83,-0.17000000000000004,-0.3400000000000001,2.7200000000000006,9.9,7.18,3.59,gamble,win,9.9,-51.45958333333336,3335.838193381176,None,3335.838193381176,None,3335.838193381176,None,3335.838193381176,None,3335.838193381176,None,3335.838193381176,None,3335.838193381176,None,1,1.3674450230610091,3335.838193381176,None,3337.2387194317125,None,3337.2387194317125,None,3337.2387194317125,None,3337.2387194317125,None,3337.2387194317125,None,3337.2387194317125,None,3337.2387194317125,None,3341.2235925988352,None,3341.2235925988352,None,3341.2235925988352,None,3341.2235925988352,None,3341.2235925988352,None,3341.2235925988352,None,3341.2235925988352,None,3342.223939779389,None,,,,,,,,,,,,,,,,,,,,,,,,,,,,,,24169,2019_Dec_09_1610,Mmi_3levels,3.1.5,59.96747546005408,
,,,3,1,7.3,,,,,,,,,0,2,2,2,0,2,2,22,,,,,,,,,,,,,,,,,,,,,,,,,,,,,,,,,,,,,,,,,,,,,,,,,,,,,,,,,,,,,True,True,False,0.83,-0.17000000000000004,-0.5100000000000001,2.890000000000001,7.3,4.409999999999998,2.204999999999999,gamble,win,7.3,-44.159583333333366,3344.241403121443,None,3344.241403121443,None,3344.241403121443,None,3344.241403121443,None,3344.241403121443,None,3344.241403121443,None,3344.241403121443,None,1,0.9505835673189722,3344.241403121443,None,3345.2250926748093,None,3345.2250926748093,None,3345.2250926748093,None,3345.2250926748093,None,3345.2250926748093,None,3345.2250926748093,None,3345.2250926748093,None,3349.2099172046583,None,3349.2099172046583,None,3349.2099172046583,None,3349.2099172046583,None,3349.2099172046583,None,3349.2099172046583,None,3349.2099172046583,None,3350.210272704746,None,,,,,,,,,,,,,,,,,,,,,,,,,,,,,,24169,2019_Dec_09_1610,Mmi_3levels,3.1.5,59.96747546005408,
,,,3,1,5.3,,,,,,,,,0,2,2,2,0,3,3,0,,,,,,,,,,,,,,,,,,,,,,,,,,,,,,,,,,,,,,,,,,,,,,,,,,,,,,,,,,,,,True,True,True,0.83,-0.17000000000000004,-0.6800000000000002,3.060000000000001,5.3,2.239999999999999,1.1199999999999994,gamble,win,5.3,-38.85958333333337,3352.22775780558,None,3352.22775780558,None,3352.22775780558,None,3352.22775780558,None,3352.22775780558,None,3352.22775780558,None,3352.22775780558,None,1,0.850388538237894,3352.22775780558,None,3353.111395041895,None,3353.111395041895,None,3353.111395041895,None,3353.111395041895,None,3353.111395041895,None,3353.111395041895,None,3353.111395041895,None,3357.096231731033,None,3357.096231731033,None,3357.096231731033,None,3357.096231731033,None,3357.096231731033,None,3357.096231731033,None,3357.096231731033,None,3366.599839049013,None,3358.0966160295065,None,3359.0969942483352,None,0.82,7.502763205266092,3362.0981426640064,None,None,3362.0981426640064,None,,,,,,,,,,,,,,,,,,,24169,2019_Dec_09_1610,Mmi_3levels,3.1.5,59.96747546005408,
,,,3,1,6.7,,,,,,,,,0,2,2,2,0,4,4,16,,,,,,,,,,,,,,,,,,,,,,,,,,,,,,,,,,,,,,,,,,,,,,,,,,,,,,,,,,,,,True,True,True,0.82,-0.18000000000000005,-0.8600000000000002,3.380000000000001,6.7,3.3199999999999994,1.6599999999999997,gamble,win,6.7,-32.159583333333366,3368.617301751103,None,3368.617301751103,None,3368.617301751103,None,3368.617301751103,None,3368.617301751103,None,3368.617301751103,None,3368.617301751103,None,1,0.8004991720372345,3368.617301751103,None,3369.4509187485673,None,3369.4509187485673,None,3369.4509187485673,None,3369.4509187485673,None,3369.4509187485673,None,3369.4509187485673,None,3369.4509187485673,None,3373.435734638857,None,3373.435734638857,None,3373.435734638857,None,3373.435734638857,None,3373.435734638857,None,3373.435734638857,None,3373.435734638857,None,3374.4361387762474,None,,,,,,,,,,,,,,,,,,,,,,,,,,,,,,24169,2019_Dec_09_1610,Mmi_3levels,3.1.5,59.96747546005408,
,,,3,1,7.1,,,,,,,,,0,2,2,2,0,5,5,1,,,,,,,,,,,,,,,,,,,,,,,,,,,,,,,,,,,,,,,,,,,,,,,,,,,,,,,,,,,,,True,True,True,0.82,-0.18000000000000005,-1.0400000000000003,3.5600000000000005,7.1,3.539999999999999,1.7699999999999996,gamble,win,7.1,-25.059583333333364,3376.4535563608515,None,3376.4535563608515,None,3376.4535563608515,None,3376.4535563608515,None,3376.4535563608515,None,3376.4535563608515,None,3376.4535563608515,None,1,0.683844264713116,3376.4535563608515,None,3377.1705325301737,None,3377.1705325301737,None,3377.1705325301737,None,3377.1705325301737,None,3377.1705325301737,None,3377.1705325301737,None,3377.1705325301737,None,3381.155338501063,None,3381.155338501063,None,3381.155338501063,None,3381.155338501063,None,3381.155338501063,None,3381.155338501063,None,3381.155338501063,None,3390.658899421629,None,3382.1557314390375,None,3383.156103898189,None,0.85,7.502696648996789,3386.157275352598,None,None,3386.157275352598,None,,,,,,,,,,,,,,,,,,,24169,2019_Dec_09_1610,Mmi_3levels,3.1.5,59.96747546005408,
,,,3,1,-1.5,,,,,,,,,0,2,2,2,0,6,6,20,,,,,,,,,,,,,,,,,,,,,,,,,,,,,,,,,,,,,,,,,,,,,,,,,,,,,,,,,,,,,True,True,True,0.85,-0.15000000000000002,-1.1900000000000004,3.290000000000001,-1.5,-4.790000000000001,-3.1450000000000005,certain,certain,-3.1450000000000005,-28.204583333333364,3392.676375242998,None,3392.676375242998,None,3392.676375242998,None,3392.676375242998,None,3392.676375242998,None,3392.676375242998,None,3392.676375242998,None,3,1.800892750005005,3392.676375242998,None,3394.51037941876,None,3394.51037941876,None,3394.51037941876,None,3394.51037941876,None,3394.51037941876,None,3394.51037941876,None,3394.51037941876,None,3398.511910213041,None,3398.511910213041,None,3398.511910213041,None,3398.511910213041,None,3398.511910213041,None,3398.511910213041,None,3398.511910213041,None,3399.4956439239613,None,,,,,,,,,,,,,,,,,,,,,,,,,,,,,,24169,2019_Dec_09_1610,Mmi_3levels,3.1.5,59.96747546005408,
,,,3,1,9.7,,,,,,,,,0,2,2,2,0,7,7,6,,,,,,,,,,,,,,,,,,,,,,,,,,,,,,,,,,,,,,,,,,,,,,,,,,,,,,,,,,,,,True,False,True,0.85,-0.15000000000000002,-1.3400000000000003,-0.6366666666666668,9.7,9.063333333333333,4.531666666666666,gamble,lose,9.063333333333333,-19.14125000000003,3401.513049349247,None,3401.513049349247,None,3401.513049349247,None,3401.513049349247,None,3401.513049349247,None,3401.513049349247,None,3401.513049349247,None,1,0.8339241802459583,3401.513049349247,None,3402.3800491172587,None,3402.3800491172587,None,3402.3800491172587,None,3402.3800491172587,None,3402.3800491172587,None,3402.3800491172587,None,3402.3800491172587,None,3406.364883566537,None,3406.364883566537,None,3406.364883566537,None,3406.364883566537,None,3406.364883566537,None,3406.364883566537,None,3406.364883566537,None,3415.868501123943,None,3407.3652611453726,None,3408.365640964126,None,0.85,7.502774724620394,3411.366763141268,None,None,3411.366763141268,None,,,,,,,,,,,,,,,,,,,24169,2019_Dec_09_1610,Mmi_3levels,3.1.5,59.96747546005408,
,,,3,1,11.1,,,,,,,,,0,2,2,2,0,8,8,8,,,,,,,,,,,,,,,,,,,,,,,,,,,,,,,,,,,,,,,,,,,,,,,,,,,,,,,,,,,,,True,True,False,0.85,-0.15000000000000002,-1.4900000000000002,3.5900000000000007,11.1,7.509999999999999,3.7549999999999994,gamble,win,11.1,-8.041250000000032,3417.8858934299788,None,3417.8858934299788,None,3417.8858934299788,None,3417.8858934299788,None,3417.8858934299788,None,3417.8858934299788,None,3417.8858934299788,None,1,0.7504146168066654,3417.8858934299788,None,3418.669570824044,None,3418.669570824044,None,3418.669570824044,None,3418.669570824044,None,3418.669570824044,None,3418.669570824044,None,3418.669570824044,None,3422.6543825545814,None,3422.6543825545814,None,3422.6543825545814,None,3422.6543825545814,None,3422.6543825545814,None,3422.6543825545814,None,3422.6543825545814,None,3423.6547911716916,None,,,,,,,,,,,,,,,,,,,,,,,,,,,,,,24169,2019_Dec_09_1610,Mmi_3levels,3.1.5,59.96747546005408,
,,,3,1,5.7,,,,,,,,,0,2,2,2,0,9,9,5,,,,,,,,,,,,,,,,,,,,,,,,,,,,,,,,,,,,,,,,,,,,,,,,,,,,,,,,,,,,,True,True,False,0.85,-0.15000000000000002,-1.6400000000000001,3.7400000000000007,5.7,1.9599999999999995,0.9799999999999998,gamble,win,5.7,-2.3412500000000316,3425.6722257153597,None,3425.6722257153597,None,3425.6722257153597,None,3425.6722257153597,None,3425.6722257153597,None,3425.6722257153597,None,3425.6722257153597,None,1,0.7671922372246627,3425.6722257153597,None,3426.45584807251,None,3426.45584807251,None,3426.45584807251,None,3426.45584807251,None,3426.45584807251,None,3426.45584807251,None,3426.45584807251,None,3430.457338549051,None,3430.457338549051,None,3430.457338549051,None,3430.457338549051,None,3430.457338549051,None,3430.457338549051,None,3430.457338549051,None,3431.457692449243,None,,,,,,,,,,,,,,,,,,,,,,,,,,,,,,24169,2019_Dec_09_1610,Mmi_3levels,3.1.5,59.96747546005408,
,,,3,1,9.5,,,,,,,,,0,2,2,2,0,10,10,2,,,,,,,,,,,,,,,,,,,,,,,,,,,,,,,,,,,,,,,,,,,,,,,,,,,,,,,,,,,,,True,True,True,0.85,-0.15000000000000002,-1.79,3.8900000000000006,9.5,5.609999999999999,2.8049999999999997,gamble,win,9.5,7.158749999999968,3433.4752162678924,None,3433.4752162678924,None,3433.4752162678924,None,3433.4752162678924,None,3433.4752162678924,None,3433.4752162678924,None,3433.4752162678924,None,1,0.9003207820351236,3433.4752162678924,None,3434.4088846224768,None,3434.4088846224768,None,3434.4088846224768,None,3434.4088846224768,None,3434.4088846224768,None,3434.4088846224768,None,3434.4088846224768,None,3438.3936790739826,None,3438.3936790739826,None,3438.3936790739826,None,3438.3936790739826,None,3438.3936790739826,None,3438.3936790739826,None,3438.3936790739826,None,3447.8972726327484,None,3439.394052493066,None,3440.3944079931534,None,0.85,7.502772484731395,3443.39555032918,None,None,3443.39555032918,None,,,,,,,,,,,,,,,,,,,24169,2019_Dec_09_1610,Mmi_3levels,3.1.5,59.96747546005408,
,,,3,1,11.3,,,,,,,,,0,2,2,2,0,11,11,17,,,,,,,,,,,,,,,,,,,,,,,,,,,,,,,,,,,,,,,,,,,,,,,,,,,,,,,,,,,,,True,False,True,0.85,-0.15000000000000002,-1.94,-0.6866666666666668,11.3,10.613333333333333,5.306666666666667,gamble,lose,10.613333333333333,17.772083333333303,3449.9146988568828,None,3449.9146988568828,None,3449.9146988568828,None,3449.9146988568828,None,3449.9146988568828,None,3449.9146988568828,None,3449.9146988568828,None,1,0.967275752540445,3449.9146988568828,None,3450.9151842696883,None,3450.9151842696883,None,3450.9151842696883,None,3450.9151842696883,None,3450.9151842696883,None,3450.9151842696883,None,3450.9151842696883,None,3454.8999713616213,None,3454.8999713616213,None,3454.8999713616213,None,3454.8999713616213,None,3454.8999713616213,None,3454.8999713616213,None,3454.8999713616213,None,3455.9003006231796,None,,,,,,,,,,,,,,,,,,,,,,,,,,,,,,24169,2019_Dec_09_1610,Mmi_3levels,3.1.5,59.96747546005408,
,,,3,1,2.9,,,,,,,,,0,2,2,2,0,12,12,24,,,,,,,,,,,,,,,,,,,,,,,,,,,,,,,,,,,,,,,,,,,,,,,,,,,,,,,,,,,,,True,True,False,0.85,-0.15000000000000002,-2.09,4.19,2.9,-1.2900000000000005,0.8049999999999997,gamble,win,2.9,20.6720833333333,3457.91772620735,None,3457.91772620735,None,3457.91772620735,None,3457.91772620735,None,3457.91772620735,None,3457.91772620735,None,3457.91772620735,None,1,1.4339564984547906,3457.91772620735,None,3459.38494804292,None,3459.38494804292,None,3459.38494804292,None,3459.38494804292,None,3459.38494804292,None,3459.38494804292,None,3459.38494804292,None,3463.386420280469,None,3463.386420280469,None,3463.386420280469,None,3463.386420280469,None,3463.386420280469,None,3463.386420280469,None,3463.386420280469,None,3472.8734189285606,None,3464.370131272648,None,3465.370545969432,None,0.83,7.502781444258289,3468.371674866212,None,None,3468.371674866212,None,,,,,,,,,,,,,,,,,,,24169,2019_Dec_09_1610,Mmi_3levels,3.1.5,59.96747546005408,
,,,3,1,0.5,,,,,,,,,0,2,2,2,0,13,13,12,,,,,,,,,,,,,,,,,,,,,,,,,,,,,,,,,,,,,,,,,,,,,,,,,,,,,,,,,,,,,True,True,True,0.83,-0.17000000000000004,-2.26,4.640000000000001,0.5,-4.140000000000001,-1.8200000000000003,certain,certain,-1.8200000000000003,18.8520833333333,3474.890818594169,None,3474.890818594169,None,3474.890818594169,None,3474.890818594169,None,3474.890818594169,None,3474.890818594169,None,3474.890818594169,None,3,1.5173201500729192,3474.890818594169,None,3476.441410800995,None,3476.441410800995,None,3476.441410800995,None,3476.441410800995,None,3476.441410800995,None,3476.441410800995,None,3476.441410800995,None,3480.4262282912387,None,3480.4262282912387,None,3480.4262282912387,None,3480.4262282912387,None,3480.4262282912387,None,3480.4262282912387,None,3480.4262282912387,None,3481.426628588815,None,,,,,,,,,,,,,,,,,,,,,,,,,,,,,,24169,2019_Dec_09_1610,Mmi_3levels,3.1.5,59.96747546005408,
,,,3,1,3.1,,,,,,,,,0,2,2,2,0,14,14,15,,,,,,,,,,,,,,,,,,,,,,,,,,,,,,,,,,,,,,,,,,,,,,,,,,,,,,,,,,,,,True,True,False,0.83,-0.17000000000000004,-2.4299999999999997,4.8100000000000005,3.1,-1.7100000000000004,0.6949999999999998,gamble,win,3.1,21.952083333333302,3483.444034654065,None,3483.444034654065,None,3483.444034654065,None,3483.444034654065,None,3483.444034654065,None,3483.444034654065,None,3483.444034654065,None,1,1.5842159239109606,3483.444034654065,None,3485.06132744567,None,3485.06132744567,None,3485.06132744567,None,3485.06132744567,None,3485.06132744567,None,3485.06132744567,None,3485.06132744567,None,3489.0461737342703,None,3489.0461737342703,None,3489.0461737342703,None,3489.0461737342703,None,3489.0461737342703,None,3489.0461737342703,None,3489.0461737342703,None,3490.046557072812,None,,,,,,,,,,,,,,,,,,,,,,,,,,,,,,24169,2019_Dec_09_1610,Mmi_3levels,3.1.5,59.96747546005408,
,,,3,1,9.1,,,,,,,,,0,2,2,2,0,15,15,19,,,,,,,,,,,,,,,,,,,,,,,,,,,,,,,,,,,,,,,,,,,,,,,,,,,,,,,,,,,,,True,False,True,0.83,-0.17000000000000004,-2.5999999999999996,-0.8116666666666669,9.1,8.288333333333332,4.144166666666666,gamble,lose,8.288333333333332,30.240416666666633,3492.063960898202,None,3492.063960898202,None,3492.063960898202,None,3492.063960898202,None,3492.063960898202,None,3492.063960898202,None,3492.063960898202,None,1,0.9006244450574741,3492.063960898202,None,3492.9976663707057,None,3492.9976663707057,None,3492.9976663707057,None,3492.9976663707057,None,3492.9976663707057,None,3492.9976663707057,None,3492.9976663707057,None,3496.9824915404897,None,3496.9824915404897,None,3496.9824915404897,None,3496.9824915404897,None,3496.9824915404897,None,3496.9824915404897,None,3496.9824915404897,None,3506.48610973786,None,3497.982898557704,None,3498.9832697368984,None,0.83,7.502801283146255,3501.984388394252,None,None,3501.984388394252,None,,,,,,,,,,,,,,,,,,,24169,2019_Dec_09_1610,Mmi_3levels,3.1.5,59.96747546005408,
,,,3,1,6.3,,,,,,,,,0,2,2,2,0,16,16,14,,,,,,,,,,,,,,,,,,,,,,,,,,,,,,,,,,,,,,,,,,,,,,,,,,,,,,,,,,,,,True,False,False,0.83,-0.17000000000000004,-2.7699999999999996,-0.8258333333333335,6.3,5.474166666666666,2.737083333333333,gamble,lose,5.474166666666666,35.7145833333333,3508.50355164113,None,3508.50355164113,None,3508.50355164113,None,3508.50355164113,None,3508.50355164113,None,3508.50355164113,None,3508.50355164113,None,1,0.8005522890598513,3508.50355164113,None,3509.3371903973457,None,3509.3371903973457,None,3509.3371903973457,None,3509.3371903973457,None,3509.3371903973457,None,3509.3371903973457,None,3509.3371903973457,None,3513.338738790626,None,3513.338738790626,None,3513.338738790626,None,3513.338738790626,None,3513.338738790626,None,3513.338738790626,None,3513.338738790626,None,3514.3224142648105,None,,,,,,,,,,,,,,,,,,,,,,,,,,,,,,24169,2019_Dec_09_1610,Mmi_3levels,3.1.5,59.96747546005408,
,,,3,1,-0.3,,,,,,,,,0,2,2,2,0,17,17,4,,,,,,,,,,,,,,,,,,,,,,,,,,,,,,,,,,,,,,,,,,,,,,,,,,,,,,,,,,,,,True,True,False,0.83,-0.17000000000000004,-2.9399999999999995,5.32,-0.3,-5.62,-2.96,certain,certain,-2.96,32.7545833333333,3516.3398347292677,None,3516.3398347292677,None,3516.3398347292677,None,3516.3398347292677,None,3516.3398347292677,None,3516.3398347292677,None,3516.3398347292677,None,3,1.9509918644616846,3516.3398347292677,None,3518.323920740455,None,3518.323920740455,None,3518.323920740455,None,3518.323920740455,None,3518.323920740455,None,3518.323920740455,None,3518.323920740455,None,3522.325467213843,None,3522.325467213843,None,3522.325467213843,None,3522.325467213843,None,3522.325467213843,None,3522.325467213843,None,3522.325467213843,None,3531.812363467645,None,3523.3091023702873,None,3524.3095570648147,None,0.79,7.502842880785465,3527.3106494836393,None,None,3527.3106494836393,None,,,,,,,,,,,,,,,,,,,24169,2019_Dec_09_1610,Mmi_3levels,3.1.5,59.96747546005408,
,,,3,1,5.1,,,,,,,,,0,2,2,2,0,18,18,26,,,,,,,,,,,,,,,,,,,,,,,,,,,,,,,,,,,,,,,,,,,,,,,,,,,,,,,,,,,,,True,True,False,0.79,-0.20999999999999996,-3.1499999999999995,6.089999999999999,5.1,-0.9899999999999993,-0.49499999999999966,gamble,win,5.1,37.8545833333333,3533.829795131489,None,3533.829795131489,None,3533.829795131489,None,3533.829795131489,None,3533.829795131489,None,3533.829795131489,None,3533.829795131489,None,1,1.5677086883224547,3533.829795131489,None,3535.430355100136,None,3535.430355100136,None,3535.430355100136,None,3535.430355100136,None,3535.430355100136,None,3535.430355100136,None,3535.430355100136,None,3539.415267305041,None,3539.415267305041,None,3539.415267305041,None,3539.415267305041,None,3539.415267305041,None,3539.415267305041,None,3539.415267305041,None,3540.4155988064886,None,,,,,,,,,,,,,,,,,,,,,,,,,,,,,,24169,2019_Dec_09_1610,Mmi_3levels,3.1.5,59.96747546005408,
,,,3,1,13.1,,,,,,,,,0,2,2,2,0,19,19,9,,,,,,,,,,,,,,,,,,,,,,,,,,,,,,,,,,,,,,,,,,,,,,,,,,,,,,,,,,,,,True,True,True,0.79,-0.20999999999999996,-3.3599999999999994,6.299999999999999,13.1,6.800000000000001,3.4000000000000004,gamble,win,13.1,50.954583333333304,3542.4330503091915,None,3542.4330503091915,None,3542.4330503091915,None,3542.4330503091915,None,3542.4330503091915,None,3542.4330503091915,None,3542.4330503091915,None,1,0.783886662335135,3542.4330503091915,None,3543.249982800975,None,3543.249982800975,None,3543.249982800975,None,3543.249982800975,None,3543.249982800975,None,3543.249982800975,None,3543.249982800975,None,3547.251546873391,None,3547.251546873391,None,3547.251546873391,None,3547.251546873391,None,3547.251546873391,None,3547.251546873391,None,3547.251546873391,None,3556.738465845934,None,3548.235247626144,None,3549.235627764865,None,0.82,7.502755845693173,3552.2367758605687,None,None,3552.2367758605687,None,,,,,,,,,,,,,,,,,,,24169,2019_Dec_09_1610,Mmi_3levels,3.1.5,59.96747546005408,
,,,3,1,12.7,,,,,,,,,0,2,2,2,0,20,20,7,,,,,,,,,,,,,,,,,,,,,,,,,,,,,,,,,,,,,,,,,,,,,,,,,,,,,,,,,,,,,True,True,True,0.82,-0.18000000000000005,-3.5399999999999996,6.0600000000000005,12.7,6.639999999999999,3.3199999999999994,gamble,win,12.7,63.654583333333306,3558.75589303,None,3558.75589303,None,3558.75589303,None,3558.75589303,None,3558.75589303,None,3558.75589303,None,3558.75589303,None,1,0.9338977817387786,3558.75589303,None,3559.722930715885,None,3559.722930715885,None,3559.722930715885,None,3559.722930715885,None,3559.722930715885,None,3559.722930715885,None,3559.722930715885,None,3563.707750125992,None,3563.707750125992,None,3563.707750125992,None,3563.707750125992,None,3563.707750125992,None,3563.707750125992,None,3563.707750125992,None,3564.7081488236727,None,,,,,,,,,,,,,,,,,,,,,,,,,,,,,,24169,2019_Dec_09_1610,Mmi_3levels,3.1.5,59.96747546005408,
,,,3,1,3.9,,,,,,,,,0,2,2,2,0,21,21,25,,,,,,,,,,,,,,,,,,,,,,,,,,,,,,,,,,,,,,,,,,,,,,,,,,,,,,,,,,,,,True,True,True,0.82,-0.18000000000000005,-3.7199999999999998,6.24,3.9,-2.3400000000000003,0.7799999999999998,gamble,win,3.9,67.55458333333331,3566.7255702480616,None,3566.7255702480616,None,3566.7255702480616,None,3566.7255702480616,None,3566.7255702480616,None,3566.7255702480616,None,3566.7255702480616,None,1,1.0506541233626194,3566.7255702480616,None,3567.809316918254,None,3567.809316918254,None,3567.809316918254,None,3567.809316918254,None,3567.809316918254,None,3567.809316918254,None,3567.809316918254,None,3571.7941872055235,None,3571.7941872055235,None,3571.7941872055235,None,3571.7941872055235,None,3571.7941872055235,None,3571.7941872055235,None,3571.7941872055235,None,3572.794514227222,None,,,,,,,,,,,,,,,,,,,,,,,,,,,,,,24169,2019_Dec_09_1610,Mmi_3levels,3.1.5,59.96747546005408,
,,,3,1,6.9,,,,,,,,,0,2,2,2,0,22,22,23,,,,,,,,,,,,,,,,,,,,,,,,,,,,,,,,,,,,,,,,,,,,,,,,,,,,,,,,,,,,,True,True,False,0.82,-0.18000000000000005,-3.9,6.42,6.9,0.4800000000000004,0.2400000000000002,gamble,win,6.9,74.45458333333332,3574.8119718095986,None,3574.8119718095986,None,3574.8119718095986,None,3574.8119718095986,None,3574.8119718095986,None,3574.8119718095986,None,3574.8119718095986,None,1,0.9506482036958914,3574.8119718095986,None,3575.795706800418,None,3575.795706800418,None,3575.795706800418,None,3575.795706800418,None,3575.795706800418,None,3575.795706800418,None,3575.795706800418,None,3579.7804958122433,None,3579.7804958122433,None,3579.7804958122433,None,3579.7804958122433,None,3579.7804958122433,None,3579.7804958122433,None,3579.7804958122433,None,3589.2841277688567,None,3580.7808980297123,None,3581.7812714487955,None,0.82,7.502733766916208,3584.782427224098,None,None,3584.782427224098,None,,,,,,,,,,,,,,,,,,,24169,2019_Dec_09_1610,Mmi_3levels,3.1.5,59.96747546005408,
,,,3,1,6.1,,,,,,,,,0,2,2,2,0,23,23,18,,,,,,,,,,,,,,,,,,,,,,,,,,,,,,,,,,,,,,,,,,,,,,,,,,,,,,,,,,,,,True,True,False,0.82,-0.18000000000000005,-4.08,6.6000000000000005,6.1,-0.5000000000000009,-0.25000000000000044,gamble,win,6.1,80.55458333333331,3591.301551113138,None,3591.301551113138,None,3591.301551113138,None,3591.301551113138,None,3591.301551113138,None,3591.301551113138,None,3591.301551113138,None,1,1.133812026528176,3591.301551113138,None,3592.4686527954473,None,3592.4686527954473,None,3592.4686527954473,None,3592.4686527954473,None,3592.4686527954473,None,3592.4686527954473,None,3592.4686527954473,None,3596.4701666306646,None,3596.4701666306646,None,3596.4701666306646,None,3596.4701666306646,None,3596.4701666306646,None,3596.4701666306646,None,3596.4701666306646,None,3597.45390738119,None,,,,,,,,,,,,,,,,,,,,,,,,,,,,,,24169,2019_Dec_09_1610,Mmi_3levels,3.1.5,59.96747546005408,
,,,3,1,7.9,,,,,,,,,0,2,2,2,0,24,24,13,,,,,,,,,,,,,,,,,,,,,,,,,,,,,,,,,,,,,,,,,,,,,,,,,,,,,,,,,,,,,True,True,False,0.82,-0.18000000000000005,-4.26,6.78,7.9,1.12,0.56,gamble,win,7.9,88.45458333333332,3599.471406881232,None,3599.471406881232,None,3599.471406881232,None,3599.471406881232,None,3599.471406881232,None,3599.471406881232,None,3599.471406881232,None,1,0.7837829881464131,3599.471406881232,None,3600.2883707312576,None,3600.2883707312576,None,3600.2883707312576,None,3600.2883707312576,None,3600.2883707312576,None,3600.2883707312576,None,3600.2883707312576,None,3604.273070148076,None,3604.273070148076,None,3604.273070148076,None,3604.273070148076,None,3604.273070148076,None,3604.273070148076,None,3604.273070148076,None,3613.7767197037174,None,3605.273473645473,None,3606.2738528242626,None,0.85,7.502783044154057,3609.275024598639,None,None,3609.275024598639,None,,,,,,,,,,,,,,,,,,,24169,2019_Dec_09_1610,Mmi_3levels,3.1.5,59.96747546005408,
,,,3,1,-0.9,,,,,,,,,0,2,2,2,0,25,25,11,,,,,,,,,,,,,,,,,,,,,,,,,,,,,,,,,,,,,,,,,,,,,,,,,,,,,,,,,,,,,True,True,True,0.85,-0.15000000000000002,-4.41,6.510000000000001,-0.9,-7.410000000000001,-4.155,gamble,win,-0.9,87.55458333333331,3615.7941526474606,None,3615.7941526474606,None,3615.7941526474606,None,3615.7941526474606,None,3615.7941526474606,None,3615.7941526474606,None,3615.7941526474606,None,1,0.6171062420471571,3615.7941526474606,None,3616.4443991136504,None,3616.4443991136504,None,3616.4443991136504,None,3616.4443991136504,None,3616.4443991136504,None,3616.4443991136504,None,3616.4443991136504,None,3620.4459103890404,None,3620.4459103890404,None,3620.4459103890404,None,3620.4459103890404,None,3620.4459103890404,None,3620.4459103890404,None,3620.4459103890404,None,3621.429593222798,None,,,,,,,,,,,,,,,,,,,,,,,,,,,,,,24169,2019_Dec_09_1610,Mmi_3levels,3.1.5,59.96747546005408,
,,,3,1,13.9,,,,,,,,,0,2,2,2,0,26,26,21,,,,,,,,,,,,,,,,,,,,,,,,,,,,,,,,,,,,,,,,,,,,,,,,,,,,,,,,,,,,,True,False,False,0.85,-0.15000000000000002,-4.5600000000000005,-0.9050000000000002,13.9,12.995000000000001,6.4975000000000005,gamble,lose,12.995000000000001,100.54958333333332,3623.447089203022,None,3623.447089203022,None,3623.447089203022,None,3623.447089203022,None,3623.447089203022,None,3623.447089203022,None,3623.447089203022,None,1,0.8837053924798965,3623.447089203022,None,3624.364033054153,None,3624.364033054153,None,3624.364033054153,None,3624.364033054153,None,3624.364033054153,None,3624.364033054153,None,3624.364033054153,None,3628.348900781566,None,3628.348900781566,None,3628.348900781566,None,3628.348900781566,None,3628.348900781566,None,3628.348900781566,None,3628.348900781566,None,3637.8524946602993,None,3629.34927740047,None,3630.349649539625,None,0.79,7.502743686345639,3633.3507512379438,None,None,3633.3507512379438,None,,,,,,,,,,,,,,,,,,,24169,2019_Dec_09_1610,Mmi_3levels,3.1.5,59.96747546005408,
,,,,,,,,,,,,,,,,,,,,,,,,,,,,,,0,0,0,0,,,,,,,,,,,,,,,,,,,,,,,,,,,,,,,,,,,,,,,,,,,,,,,,,,,,,,,,,,,,,,,,,,,,,,,,,,,,,,,,,,,,,,,,,,,,,,,,,,,,,,,,,,,,,,,,,,,,,,,,,,3639.853247898136,None,4,11.087774604617152,3639.853247898136,None,100.54958333333332,3,3650.974145127868,None,3650.974145127868,None,3650.974145127868,None,4,6.386072139954194,3650.974145127868,None,24169,2019_Dec_09_1610,Mmi_3levels,3.1.5,59.96747546005408,
