currSlide,currImage,currText,blockNum,targetHappiness,highAmount,instructionLoop1.thisRepN,instructionLoop1.thisTrialN,instructionLoop1.thisN,instructionLoop1.thisIndex,instructionLoop2.thisRepN,instructionLoop2.thisTrialN,instructionLoop2.thisN,instructionLoop2.thisIndex,blockLoop.thisRepN,blockLoop.thisTrialN,blockLoop.thisN,blockLoop.thisIndex,trialLoop.thisRepN,trialLoop.thisTrialN,trialLoop.thisN,trialLoop.thisIndex,doRatingLoop.thisRepN,doRatingLoop.thisTrialN,doRatingLoop.thisN,doRatingLoop.thisIndex,trialHappyLoop.thisRepN,trialHappyLoop.thisTrialN,trialHappyLoop.thisN,trialHappyLoop.thisIndex,logWinningsLoop.thisRepN,logWinningsLoop.thisTrialN,logWinningsLoop.thisN,logWinningsLoop.thisIndex,instrImage.started,instrImage.stopped,instrText.started,instrText.stopped,instrContinueText.started,instrContinueText.stopped,instrKeyResp.keys,instrKeyResp.rt,instrKeyResp.started,instrKeyResp.stopped,lifeHappyText.started,lifeHappyText.stopped,lifeHappySlider.response,lifeHappySlider.rt,lifeHappySlider.started,lifeHappySlider.stopped,lifeHappyResp.keys,lifeHappyResp.rt,lifeHappyResp.started,lifeHappyResp.stopped,instrImage_2.started,instrImage_2.stopped,instrText_2.started,instrText_2.stopped,instrContinueText_2.started,instrContinueText_2.stopped,instrKeyResp_2.keys,instrKeyResp_2.rt,instrKeyResp_2.started,instrKeyResp_2.stopped,localizing.started,localizing.stopped,start_exp.keys,start_exp.rt,start_exp.started,start_exp.stopped,blockHappyText.started,blockHappyText.stopped,blockHappySlider.response,blockHappySlider.rt,blockHappySlider.started,blockHappySlider.stopped,blockHappyResp.keys,blockHappyResp.rt,blockHappyResp.started,blockHappyResp.stopped,blankText.started,blankText.stopped,isHappyBlock,isCongruent,isWinOnTop,lastHappyRating,diff,sumDiff,RPE,winAmount,loseAmount,certainAmount,choice,outcome,outcomeAmount,currentWinnings,fixCross.started,fixCross.stopped,certainBox.started,certainBox.stopped,outcome1Box.started,outcome1Box.stopped,outcome2Box.started,outcome2Box.stopped,certainText.started,certainText.stopped,outcome1Text.started,outcome1Text.stopped,outcome2Text.started,outcome2Text.stopped,choiceKey.keys,choiceKey.rt,choiceKey.started,choiceKey.stopped,fixCross_2.started,fixCross_2.stopped,certainBox_2.started,certainBox_2.stopped,outcome1Box_2.started,outcome1Box_2.stopped,outcome2Box_2.started,outcome2Box_2.stopped,certainText_2.started,certainText_2.stopped,outcome1Text_2.started,outcome1Text_2.stopped,outcome2Text_2.started,outcome2Text_2.stopped,fixCross_3.started,fixCross_3.stopped,certainBox_3.started,certainBox_3.stopped,outcome1Box_3.started,outcome1Box_3.stopped,outcome2Box_3.started,outcome2Box_3.stopped,certainText_3.started,certainText_3.stopped,outcome1Text_3.started,outcome1Text_3.stopped,outcome2Text_3.started,outcome2Text_3.stopped,fixCross_ITI.started,fixCross_ITI.stopped,fixCross_ISI.started,fixCross_ISI.stopped,happyText.started,happyText.stopped,happySlider.response,happySlider.rt,happySlider.started,happySlider.stopped,happyResp.keys,happyResp.started,happyResp.stopped,endOfBlockText.started,endOfBlockText.stopped,restKeyResp.keys,restKeyResp.rt,restKeyResp.started,restKeyResp.stopped,finalWinnings,cashBonus,goodbyeText.started,goodbyeText.stopped,finalWinningsText.started,finalWinningsText.stopped,spaceToContinue.started,spaceToContinue.stopped,goodbyeKeyResp_2.keys,goodbyeKeyResp_2.rt,goodbyeKeyResp_2.started,goodbyeKeyResp_2.stopped,participant,date,expName,psychopyVersion,frameRate,
1,black.png,"Welcome! You are about to play our gambling task.
This task has 3 blocks and takes about 15 minutes.",,,,0,0,0,0,,,,,,,,,,,,,,,,,,,,,,,,,25.508165966222805,None,25.508165966222805,None,25.508165966222805,None,4,11.516692233310096,25.508165966222805,None,,,,,,,,,,,,,,,,,,,,,,,,,,,,,,,,,,,,,,,,,,,,,,,,,,,,,,,,,,,,,,,,,,,,,,,,,,,,,,,,,,,,,,,,,,,,,,,,,,,,,,,,,,,,,,,,,,,,,,,,,,,,,,,,,,23490,2019_Sep_20_1352,Mmi_3levels,3.1.5,59.97904203699478,
2,black.png,"In this game, you may win or lose points. Your goal is to get as many points as possible. These points will be converted to a cash bonus at the end.
Sometimes we will ask you to rate your mood.",,,,0,1,1,1,,,,,,,,,,,,,,,,,,,,,,,,,37.07467379332775,None,37.07467379332775,None,37.07467379332775,None,4,3.168147228019734,37.07467379332775,None,,,,,,,,,,,,,,,,,,,,,,,,,,,,,,,,,,,,,,,,,,,,,,,,,,,,,,,,,,,,,,,,,,,,,,,,,,,,,,,,,,,,,,,,,,,,,,,,,,,,,,,,,,,,,,,,,,,,,,,,,,,,,,,,,,23490,2019_Sep_20_1352,Mmi_3levels,3.1.5,59.97904203699478,
3,black.png,"On the next screen, please rate how you feel about your life these days. Use the LEFT (green) and RIGHT (blue) buttons to move the slider (you can press and hold them to slide gradually) and the TOP (red) button to lock in your response.
Make your rating as accurately and quickly as you can!",,,,0,2,2,2,,,,,,,,,,,,,,,,,,,,,,,,,40.29258381794716,None,40.29258381794716,None,40.29258381794716,None,4,5.118953681181665,40.29258381794716,None,,,,,,,,,,,,,,,,,,,,,,,,,,,,,,,,,,,,,,,,,,,,,,,,,,,,,,,,,,,,,,,,,,,,,,,,,,,,,,,,,,,,,,,,,,,,,,,,,,,,,,,,,,,,,,,,,,,,,,,,,,,,,,,,,,23490,2019_Sep_20_1352,Mmi_3levels,3.1.5,59.97904203699478,
,,,,,,,,,,,,,,,,,,,,,,,,,,,,,,,,,,,,,,,,,,,,45.4278639918648,None,0.89,6.8682514784813975,49.429435108406324,None,4,2.851243741932194,49.429435108406324,None,,,,,,,,,,,,,,,,,,,,,,,,,,,,,,,,,,,,,,,,,,,,,,,,,,,,,,,,,,,,,,,,,,,,,,,,,,,,,,,,,,,,,,,,,,,,,,,,,,,,,,,,,,,,,,,,,,,,,,,,23490,2019_Sep_20_1352,Mmi_3levels,3.1.5,59.97904203699478,
4,black.png,"In this game you can win money by earning points according to your choices. You will decide whether to gamble a number of points or stick with a guaranteed number of points. 
Make your choice by pressing the left or right arrow key once. An example of one trial is shown on the next screen.",,,,,,,,0,0,0,0,,,,,,,,,,,,,,,,,,,,,,,,,,,,,,,,,,,,,,,,,52.3472202756584,None,52.3472202756584,None,52.3472202756584,None,4,4.385300492836905,52.3472202756584,None,,,,,,,,,,,,,,,,,,,,,,,,,,,,,,,,,,,,,,,,,,,,,,,,,,,,,,,,,,,,,,,,,,,,,,,,,,,,,,,,,,,,,,,,,,,,,,,,,,,,,,,,,,,,,,23490,2019_Sep_20_1352,Mmi_3levels,3.1.5,59.97904203699478,
5,example_start.png,"The GAMBLING OPTION will be shown on the RIGHT SIDE. 
Select this option using the RIGHT (blue) button on your keypad.",,,,,,,,0,1,1,1,,,,,,,,,,,,,,,,,,,,,,,,,,,,,,,,,,,,,,,,,56.798880123487834,None,56.798880123487834,None,56.798880123487834,None,4,4.268646209513463,56.798880123487834,None,,,,,,,,,,,,,,,,,,,,,,,,,,,,,,,,,,,,,,,,,,,,,,,,,,,,,,,,,,,,,,,,,,,,,,,,,,,,,,,,,,,,,,,,,,,,,,,,,,,,,,,,,,,,,,23490,2019_Sep_20_1352,Mmi_3levels,3.1.5,59.97904203699478,
6,example_gamble.png,"Once you select the gambling choice, the choice you made will remain on the screen.",,,,,,,,0,2,2,2,,,,,,,,,,,,,,,,,,,,,,,,,,,,,,,,,,,,,,,,,61.10052522009937,None,61.10052522009937,None,61.10052522009937,None,4,1.8675971132415725,61.10052522009937,None,,,,,,,,,,,,,,,,,,,,,,,,,,,,,,,,,,,,,,,,,,,,,,,,,,,,,,,,,,,,,,,,,,,,,,,,,,,,,,,,,,,,,,,,,,,,,,,,,,,,,,,,,,,,,,23490,2019_Sep_20_1352,Mmi_3levels,3.1.5,59.97904203699478,
7,example_win.png,"The outcome you received will then be shown on the screen. In this example , you WON 10 points.",,,,,,,,0,3,3,3,,,,,,,,,,,,,,,,,,,,,,,,,,,,,,,,,,,,,,,,,63.001229054712894,None,63.001229054712894,None,63.001229054712894,None,4,1.2507690791462664,63.001229054712894,None,,,,,,,,,,,,,,,,,,,,,,,,,,,,,,,,,,,,,,,,,,,,,,,,,,,,,,,,,,,,,,,,,,,,,,,,,,,,,,,,,,,,,,,,,,,,,,,,,,,,,,,,,,,,,,23490,2019_Sep_20_1352,Mmi_3levels,3.1.5,59.97904203699478,
8,example_start.png,"The GUARANTEED OPTION will be shown on the LEFT SIDE. You are 100% guaranteed to gain or lose this amount. In this example, you have a 100% chance of winning 1 point. Select this option using the LEFT (green) button on your keyboard.",,,,,,,,0,4,4,4,,,,,,,,,,,,,,,,,,,,,,,,,,,,,,,,,,,,,,,,,64.30175069100187,None,64.30175069100187,None,64.30175069100187,None,4,2.6513820385862346,64.30175069100187,None,,,,,,,,,,,,,,,,,,,,,,,,,,,,,,,,,,,,,,,,,,,,,,,,,,,,,,,,,,,,,,,,,,,,,,,,,,,,,,,,,,,,,,,,,,,,,,,,,,,,,,,,,,,,,,23490,2019_Sep_20_1352,Mmi_3levels,3.1.5,59.97904203699478,
9,example_certain.png,"Once you select the guaranteed choice, your selection will remain on the screen.",,,,,,,,0,5,5,5,,,,,,,,,,,,,,,,,,,,,,,,,,,,,,,,,,,,,,,,,66.98615113565029,None,66.98615113565029,None,66.98615113565029,None,4,1.2504698950397142,66.98615113565029,None,,,,,,,,,,,,,,,,,,,,,,,,,,,,,,,,,,,,,,,,,,,,,,,,,,,,,,,,,,,,,,,,,,,,,,,,,,,,,,,,,,,,,,,,,,,,,,,,,,,,,,,,,,,,,,23490,2019_Sep_20_1352,Mmi_3levels,3.1.5,59.97904203699478,
10,black.png,"Please make your choices as fast as possible.
You will be given a break at the end of each block.
Let's play!",,,,,,,,0,6,6,6,,,,,,,,,,,,,,,,,,,,,,,,,,,,,,,,,,,,,,,,,68.2699479003677,None,68.2699479003677,None,68.2699479003677,None,4,1.901097093723365,68.2699479003677,None,,,,,,,,,,,,,,,,,,,,,,,,,,,,,,,,,,,,,,,,,,,,,,,,,,,,,,,,,,,,,,,,,,,,,,,,,,,,,,,,,,,,,,,,,,,,,,,,,,,,,,,,,,,,,,23490,2019_Sep_20_1352,Mmi_3levels,3.1.5,59.97904203699478,
,,,,,,,,,,,,,,,,,,,,,,,,,,,,,,,,,,,,,,,,,,,,,,,,,,,,,,,,,,,,,,,,70.18732956905296,None,space,24.026248205695083,70.18732956905296,None,,,,,,,,,,,,,,,,,,,,,,,,,,,,,,,,,,,,,,,,,,,,,,,,,,,,,,,,,,,,,,,,,,,,,,,,,,,,,,,,,,,,,,,,,,,,,,,,,,,,,,,,23490,2019_Sep_20_1352,Mmi_3levels,3.1.5,59.97904203699478,
,,,1,1,9.5,,,,,,,,,0,0,0,0,0,0,0,5,,,,,,,,,,,,,,,,,,,,,,,,,,,,,,,,,,,,,,,,,,,,,,,,,94.22987738891243,None,0.88,6.659936464175189,97.24767164368131,None,4,3.6349681904885074,97.24767164368131,None,100.89912055871537,None,True,True,False,0.88,-0.12,-0.12,1.7999999999999998,9.5,7.7,3.85,gamble,win,9.5,9.5,103.93355968930882,None,103.93355968930882,None,103.93355968930882,None,103.93355968930882,None,103.93355968930882,None,103.93355968930882,None,103.93355968930882,None,1,1.1006842516526376,103.93355968930882,None,105.06733274328326,None,105.06733274328326,None,105.06733274328326,None,105.06733274328326,None,105.06733274328326,None,105.06733274328326,None,105.06733274328326,None,109.05218410797897,None,109.05218410797897,None,109.05218410797897,None,109.05218410797897,None,109.05218410797897,None,109.05218410797897,None,109.05218410797897,None,110.05261064532169,None,,,,,,,,,,,,,,,,,,,,,,,,,,,,,,23490,2019_Sep_20_1352,Mmi_3levels,3.1.5,59.97904203699478,
,,,1,1,13.5,,,,,,,,,0,0,0,0,0,1,1,11,,,,,,,,,,,,,,,,,,,,,,,,,,,,,,,,,,,,,,,,,,,,,,,,,,,,,,,,,,,,,True,True,True,0.88,-0.12,-0.24,1.92,13.5,11.58,5.79,gamble,win,13.5,23.0,112.07004971895913,None,112.07004971895913,None,112.07004971895913,None,112.07004971895913,None,112.07004971895913,None,112.07004971895913,None,112.07004971895913,None,1,0.8505384993950429,112.07004971895913,None,112.95366134150936,None,112.95366134150936,None,112.95366134150936,None,112.95366134150936,None,112.95366134150936,None,112.95366134150936,None,112.95366134150936,None,116.93857766275323,None,116.93857766275323,None,116.93857766275323,None,116.93857766275323,None,116.93857766275323,None,116.93857766275323,None,116.93857766275323,None,117.93891748470196,None,,,,,,,,,,,,,,,,,,,,,,,,,,,,,,23490,2019_Sep_20_1352,Mmi_3levels,3.1.5,59.97904203699478,
,,,1,1,4.5,,,,,,,,,0,0,0,0,0,2,2,19,,,,,,,,,,,,,,,,,,,,,,,,,,,,,,,,,,,,,,,,,,,,,,,,,,,,,,,,,,,,,True,True,False,0.88,-0.12,-0.36,2.04,4.5,2.46,1.23,gamble,win,4.5,27.5,119.9563236000904,None,119.9563236000904,None,119.9563236000904,None,119.9563236000904,None,119.9563236000904,None,119.9563236000904,None,119.9563236000904,None,1,1.317327783548535,119.9563236000904,None,121.30692001640818,None,121.30692001640818,None,121.30692001640818,None,121.30692001640818,None,121.30692001640818,None,121.30692001640818,None,121.30692001640818,None,125.30838681849127,None,125.30838681849127,None,125.30838681849127,None,125.30838681849127,None,125.30838681849127,None,125.30838681849127,None,125.30838681849127,None,134.79536255034145,None,126.29210960313685,None,127.29249742253705,None,0.91,7.502825129929988,130.29364232171974,None,None,130.29364232171974,None,,,,,,,,,,,,,,,,,,,23490,2019_Sep_20_1352,Mmi_3levels,3.1.5,59.97904203699478,
,,,1,1,-0.7,,,,,,,,,0,0,0,0,0,3,3,23,,,,,,,,,,,,,,,,,,,,,,,,,,,,,,,,,,,,,,,,,,,,,,,,,,,,,,,,,,,,,True,True,False,0.91,-0.08999999999999997,-0.44999999999999996,1.7099999999999995,-0.7,-2.4099999999999993,-1.5549999999999997,gamble,win,-0.7,26.8,136.8128425818013,None,136.8128425818013,None,136.8128425818013,None,136.8128425818013,None,136.8128425818013,None,136.8128425818013,None,136.8128425818013,None,1,1.0672905055289448,136.8128425818013,None,137.9132138900768,None,137.9132138900768,None,137.9132138900768,None,137.9132138900768,None,137.9132138900768,None,137.9132138900768,None,137.9132138900768,None,141.91476068791235,None,141.91476068791235,None,141.91476068791235,None,141.91476068791235,None,141.91476068791235,None,141.91476068791235,None,141.91476068791235,None,142.89845723395047,None,,,,,,,,,,,,,,,,,,,,,,,,,,,,,,23490,2019_Sep_20_1352,Mmi_3levels,3.1.5,59.97904203699478,
,,,1,1,8.7,,,,,,,,,0,0,0,0,0,4,4,18,,,,,,,,,,,,,,,,,,,,,,,,,,,,,,,,,,,,,,,,,,,,,,,,,,,,,,,,,,,,,True,True,True,0.91,-0.08999999999999997,-0.5399999999999999,1.7999999999999994,8.7,6.9,3.45,gamble,win,8.7,35.5,144.91587998845534,None,144.91587998845534,None,144.91587998845534,None,144.91587998845534,None,144.91587998845534,None,144.91587998845534,None,144.91587998845534,None,1,0.9506656606408797,144.91587998845534,None,145.89965749019393,None,145.89965749019393,None,145.89965749019393,None,145.89965749019393,None,145.89965749019393,None,145.89965749019393,None,145.89965749019393,None,149.88450533507603,None,149.88450533507603,None,149.88450533507603,None,149.88450533507603,None,149.88450533507603,None,149.88450533507603,None,149.88450533507603,None,159.38808306502688,None,150.8848470769226,None,151.88522817667945,None,0.93,7.502817770320689,154.88637371582809,None,None,154.88637371582809,None,,,,,,,,,,,,,,,,,,,23490,2019_Sep_20_1352,Mmi_3levels,3.1.5,59.97904203699478,
,,,1,1,1.3,,,,,,,,,0,0,0,0,0,5,5,0,,,,,,,,,,,,,,,,,,,,,,,,,,,,,,,,,,,,,,,,,,,,,,,,,,,,,,,,,,,,,True,True,True,0.93,-0.06999999999999995,-0.6099999999999999,1.5899999999999992,1.3,-0.28999999999999915,0.5050000000000004,gamble,win,1.3,36.8,161.40553717786497,None,161.40553717786497,None,161.40553717786497,None,161.40553717786497,None,161.40553717786497,None,161.40553717786497,None,161.40553717786497,None,1,0.9173192720008956,161.40553717786497,None,162.35595005193318,None,162.35595005193318,None,162.35595005193318,None,162.35595005193318,None,162.35595005193318,None,162.35595005193318,None,162.35595005193318,None,166.34079917674717,None,166.34079917674717,None,166.34079917674717,None,166.34079917674717,None,166.34079917674717,None,166.34079917674717,None,166.34079917674717,None,167.34118859606133,None,,,,,,,,,,,,,,,,,,,,,,,,,,,,,,23490,2019_Sep_20_1352,Mmi_3levels,3.1.5,59.97904203699478,
,,,1,1,9.9,,,,,,,,,0,0,0,0,0,6,6,9,,,,,,,,,,,,,,,,,,,,,,,,,,,,,,,,,,,,,,,,,,,,,,,,,,,,,,,,,,,,,True,True,False,0.93,-0.06999999999999995,-0.6799999999999998,1.6599999999999993,9.9,8.240000000000002,4.120000000000001,gamble,win,9.9,46.699999999999996,169.35858223211108,None,169.35858223211108,None,169.35858223211108,None,169.35858223211108,None,169.35858223211108,None,169.35858223211108,None,169.35858223211108,None,1,0.5338356426509563,169.35858223211108,None,169.9254765986825,None,169.9254765986825,None,169.9254765986825,None,169.9254765986825,None,169.9254765986825,None,169.9254765986825,None,169.9254765986825,None,173.91036092162722,None,173.91036092162722,None,173.91036092162722,None,173.91036092162722,None,173.91036092162722,None,173.91036092162722,None,173.91036092162722,None,174.91075546066895,None,,,,,,,,,,,,,,,,,,,,,,,,,,,,,,23490,2019_Sep_20_1352,Mmi_3levels,3.1.5,59.97904203699478,
,,,1,1,-1.5,,,,,,,,,0,0,0,0,0,7,7,4,,,,,,,,,,,,,,,,,,,,,,,,,,,,,,,,,,,,,,,,,,,,,,,,,,,,,,,,,,,,,True,True,False,0.93,-0.06999999999999995,-0.7499999999999998,1.729999999999999,-1.5,-3.229999999999999,-2.3649999999999993,certain,certain,-2.3649999999999993,44.334999999999994,176.92822013294608,None,176.92822013294608,None,176.92822013294608,None,176.92822013294608,None,176.92822013294608,None,176.92822013294608,None,176.92822013294608,None,3,1.5841648091645766,176.92822013294608,None,178.54542766688246,None,178.54542766688246,None,178.54542766688246,None,178.54542766688246,None,178.54542766688246,None,178.54542766688246,None,178.54542766688246,None,182.54695686564992,None,182.54695686564992,None,182.54695686564992,None,182.54695686564992,None,182.54695686564992,None,182.54695686564992,None,182.54695686564992,None,192.03396395583331,None,183.53066237121493,None,184.53109146842144,None,0.92,7.502769452887151,187.53219732967773,None,None,187.53219732967773,None,,,,,,,,,,,,,,,,,,,23490,2019_Sep_20_1352,Mmi_3levels,3.1.5,59.97904203699478,
,,,1,1,4.1,,,,,,,,,0,0,0,0,0,8,8,3,,,,,,,,,,,,,,,,,,,,,,,,,,,,,,,,,,,,,,,,,,,,,,,,,,,,,,,,,,,,,True,True,True,0.92,-0.07999999999999996,-0.8299999999999997,1.9499999999999993,4.1,2.1500000000000004,1.0750000000000002,gamble,win,4.1,48.434999999999995,194.05135279213937,None,194.05135279213937,None,194.05135279213937,None,194.05135279213937,None,194.05135279213937,None,194.05135279213937,None,194.05135279213937,None,1,0.9006452777230152,194.05135279213937,None,194.985099031539,None,194.985099031539,None,194.985099031539,None,194.985099031539,None,194.985099031539,None,194.985099031539,None,194.985099031539,None,198.98658247273852,None,198.98658247273852,None,198.98658247273852,None,198.98658247273852,None,198.98658247273852,None,198.98658247273852,None,198.98658247273852,None,199.97028349854008,None,,,,,,,,,,,,,,,,,,,,,,,,,,,,,,23490,2019_Sep_20_1352,Mmi_3levels,3.1.5,59.97904203699478,
,,,1,1,9.1,,,,,,,,,0,0,0,0,0,9,9,22,,,,,,,,,,,,,,,,,,,,,,,,,,,,,,,,,,,,,,,,,,,,,,,,,,,,,,,,,,,,,True,True,False,0.92,-0.07999999999999996,-0.9099999999999997,2.0299999999999994,9.1,7.07,3.535,gamble,win,9.1,57.535,201.9877702496433,None,201.9877702496433,None,201.9877702496433,None,201.9877702496433,None,201.9877702496433,None,201.9877702496433,None,201.9877702496433,None,1,0.7171859030859196,201.9877702496433,None,202.73805455454203,None,202.73805455454203,None,202.73805455454203,None,202.73805455454203,None,202.73805455454203,None,202.73805455454203,None,202.73805455454203,None,206.7228672012934,None,206.7228672012934,None,206.7228672012934,None,206.7228672012934,None,206.7228672012934,None,206.7228672012934,None,206.7228672012934,None,216.22654636585685,None,207.72324862103233,None,208.72367835820478,None,0.91,7.502785772021525,211.72480053859545,None,None,211.72480053859545,None,,,,,,,,,,,,,,,,,,,23490,2019_Sep_20_1352,Mmi_3levels,3.1.5,59.97904203699478,
,,,1,1,4.9,,,,,,,,,0,0,0,0,0,10,10,2,,,,,,,,,,,,,,,,,,,,,,,,,,,,,,,,,,,,,,,,,,,,,,,,,,,,,,,,,,,,,True,False,False,0.91,-0.08999999999999997,-0.9999999999999997,-0.3983333333333332,4.9,4.501666666666667,2.2508333333333335,gamble,lose,4.501666666666667,62.03666666666666,218.24393936194065,None,218.24393936194065,None,218.24393936194065,None,218.24393936194065,None,218.24393936194065,None,218.24393936194065,None,218.24393936194065,None,1,0.6337042576305976,218.24393936194065,None,218.91091481220428,None,218.91091481220428,None,218.91091481220428,None,218.91091481220428,None,218.91091481220428,None,218.91091481220428,None,218.91091481220428,None,222.91243409150047,None,222.91243409150047,None,222.91243409150047,None,222.91243409150047,None,222.91243409150047,None,222.91243409150047,None,222.91243409150047,None,223.8961527163665,None,,,,,,,,,,,,,,,,,,,,,,,,,,,,,,23490,2019_Sep_20_1352,Mmi_3levels,3.1.5,59.97904203699478,
,,,1,1,13.9,,,,,,,,,0,0,0,0,0,11,11,7,,,,,,,,,,,,,,,,,,,,,,,,,,,,,,,,,,,,,,,,,,,,,,,,,,,,,,,,,,,,,True,True,True,0.91,-0.08999999999999997,-1.0899999999999996,2.349999999999999,13.9,11.55,5.775,gamble,win,13.9,75.93666666666667,225.91358443039462,None,225.91358443039462,None,225.91358443039462,None,225.91358443039462,None,225.91358443039462,None,225.91358443039462,None,225.91358443039462,None,1,0.7338266191291041,225.91358443039462,None,226.68050081179717,None,226.68050081179717,None,226.68050081179717,None,226.68050081179717,None,226.68050081179717,None,226.68050081179717,None,226.68050081179717,None,230.66533649732446,None,230.66533649732446,None,230.66533649732446,None,230.66533649732446,None,230.66533649732446,None,230.66533649732446,None,230.66533649732446,None,240.16899166316216,None,231.66578863330687,None,232.66617453280742,None,0.92,7.5028820869047195,235.6672711145584,None,None,235.6672711145584,None,,,,,,,,,,,,,,,,,,,23490,2019_Sep_20_1352,Mmi_3levels,3.1.5,59.97904203699478,
,,,1,1,0.3,,,,,,,,,0,0,0,0,0,12,12,21,,,,,,,,,,,,,,,,,,,,,,,,,,,,,,,,,,,,,,,,,,,,,,,,,,,,,,,,,,,,,True,True,True,0.92,-0.07999999999999996,-1.1699999999999995,2.289999999999999,0.3,-1.989999999999999,-0.8449999999999995,gamble,win,0.3,76.23666666666666,242.18643105678166,None,242.18643105678166,None,242.18643105678166,None,242.18643105678166,None,242.18643105678166,None,242.18643105678166,None,242.18643105678166,None,1,0.9673396549169411,242.18643105678166,None,243.18686911351142,None,243.18686911351142,None,243.18686911351142,None,243.18686911351142,None,243.18686911351142,None,243.18686911351142,None,243.18686911351142,None,247.18834775496725,None,247.18834775496725,None,247.18834775496725,None,247.18834775496725,None,247.18834775496725,None,247.18834775496725,None,247.18834775496725,None,248.17205838025802,None,,,,,,,,,,,,,,,,,,,,,,,,,,,,,,23490,2019_Sep_20_1352,Mmi_3levels,3.1.5,59.97904203699478,
,,,1,1,7.1,,,,,,,,,0,0,0,0,0,13,13,20,,,,,,,,,,,,,,,,,,,,,,,,,,,,,,,,,,,,,,,,,,,,,,,,,,,,,,,,,,,,,True,False,True,0.92,-0.07999999999999996,-1.2499999999999996,-0.3841666666666665,7.1,6.715833333333333,3.3579166666666667,gamble,lose,6.715833333333333,82.9525,250.18952657234877,None,250.18952657234877,None,250.18952657234877,None,250.18952657234877,None,250.18952657234877,None,250.18952657234877,None,250.18952657234877,None,1,0.9006123194722022,250.18952657234877,None,251.1232286540926,None,251.1232286540926,None,251.1232286540926,None,251.1232286540926,None,251.1232286540926,None,251.1232286540926,None,251.1232286540926,None,255.10803810101606,None,255.10803810101606,None,255.10803810101606,None,255.10803810101606,None,255.10803810101606,None,255.10803810101606,None,255.10803810101606,None,256.1084217606349,None,,,,,,,,,,,,,,,,,,,,,,,,,,,,,,23490,2019_Sep_20_1352,Mmi_3levels,3.1.5,59.97904203699478,
,,,1,1,9.7,,,,,,,,,0,0,0,0,0,14,14,14,,,,,,,,,,,,,,,,,,,,,,,,,,,,,,,,,,,,,,,,,,,,,,,,,,,,,,,,,,,,,True,True,True,0.92,-0.07999999999999996,-1.3299999999999996,2.4499999999999993,9.7,7.25,3.625,gamble,win,9.7,92.6525,258.12585923435654,None,258.12585923435654,None,258.12585923435654,None,258.12585923435654,None,258.12585923435654,None,258.12585923435654,None,258.12585923435654,None,1,0.917270634583474,258.12585923435654,None,259.0762241109751,None,259.0762241109751,None,259.0762241109751,None,259.0762241109751,None,259.0762241109751,None,259.0762241109751,None,259.0762241109751,None,263.1111025782302,None,263.1111025782302,None,263.1111025782302,None,263.1111025782302,None,263.1111025782302,None,263.1111025782302,None,263.1111025782302,None,272.6147343853081,None,264.11148623785084,None,265.1118657376919,None,0.93,7.5028292897095525,268.11305127471496,None,None,268.11305127471496,None,,,,,,,,,,,,,,,,,,,23490,2019_Sep_20_1352,Mmi_3levels,3.1.5,59.97904203699478,
,,,1,1,2.9,,,,,,,,,0,0,0,0,0,15,15,1,,,,,,,,,,,,,,,,,,,,,,,,,,,,,,,,,,,,,,,,,,,,,,,,,,,,,,,,,,,,,True,True,True,0.93,-0.06999999999999995,-1.3999999999999995,2.379999999999999,2.9,0.5200000000000009,1.7100000000000004,gamble,win,2.9,95.55250000000001,274.6321753788434,None,274.6321753788434,None,274.6321753788434,None,274.6321753788434,None,274.6321753788434,None,274.6321753788434,None,274.6321753788434,None,1,1.1672403961911186,274.6321753788434,None,275.8326802480242,None,275.8326802480242,None,275.8326802480242,None,275.8326802480242,None,275.8326802480242,None,275.8326802480242,None,275.8326802480242,None,279.81748233533835,None,279.81748233533835,None,279.81748233533835,None,279.81748233533835,None,279.81748233533835,None,279.81748233533835,None,279.81748233533835,None,280.8178794342439,None,,,,,,,,,,,,,,,,,,,,,,,,,,,,,,23490,2019_Sep_20_1352,Mmi_3levels,3.1.5,59.97904203699478,
,,,1,1,11.3,,,,,,,,,0,0,0,0,0,16,16,12,,,,,,,,,,,,,,,,,,,,,,,,,,,,,,,,,,,,,,,,,,,,,,,,,,,,,,,,,,,,,True,True,True,0.93,-0.06999999999999995,-1.4699999999999993,2.4499999999999984,11.3,8.850000000000001,4.425000000000001,gamble,win,11.3,106.8525,282.83532042777915,None,282.83532042777915,None,282.83532042777915,None,282.83532042777915,None,282.83532042777915,None,282.83532042777915,None,282.83532042777915,None,1,0.9505939844475506,282.83532042777915,None,283.8190019346166,None,283.8190019346166,None,283.8190019346166,None,283.8190019346166,None,283.8190019346166,None,283.8190019346166,None,283.8190019346166,None,287.80387505815634,None,287.80387505815634,None,287.80387505815634,None,287.80387505815634,None,287.80387505815634,None,287.80387505815634,None,287.80387505815634,None,297.3075542227198,None,288.80425647789525,None,289.8046836552039,None,0.91,7.502815850422849,292.8058320742002,None,None,292.8058320742002,None,,,,,,,,,,,,,,,,,,,23490,2019_Sep_20_1352,Mmi_3levels,3.1.5,59.97904203699478,
,,,1,1,2.1,,,,,,,,,0,0,0,0,0,17,17,17,,,,,,,,,,,,,,,,,,,,,,,,,,,,,,,,,,,,,,,,,,,,,,,,,,,,,,,,,,,,,True,True,True,0.91,-0.08999999999999997,-1.5599999999999992,2.8199999999999985,2.1,-0.7199999999999984,0.6900000000000008,gamble,win,2.1,108.9525,299.32499969601486,None,299.32499969601486,None,299.32499969601486,None,299.32499969601486,None,299.32499969601486,None,299.32499969601486,None,299.32499969601486,None,1,1.017416034859707,299.32499969601486,None,300.3753931791143,None,300.3753931791143,None,300.3753931791143,None,300.3753931791143,None,300.3753931791143,None,300.3753931791143,None,300.3753931791143,None,304.36020774576355,None,304.36020774576355,None,304.36020774576355,None,304.36020774576355,None,304.36020774576355,None,304.36020774576355,None,304.36020774576355,None,305.3606326831905,None,,,,,,,,,,,,,,,,,,,,,,,,,,,,,,23490,2019_Sep_20_1352,Mmi_3levels,3.1.5,59.97904203699478,
,,,1,1,2.3,,,,,,,,,0,0,0,0,0,18,18,24,,,,,,,,,,,,,,,,,,,,,,,,,,,,,,,,,,,,,,,,,,,,,,,,,,,,,,,,,,,,,True,False,True,0.91,-0.08999999999999997,-1.649999999999999,-0.4524999999999998,2.3,1.8475000000000001,0.9237500000000001,gamble,lose,1.8475000000000001,110.8,307.37802855912196,None,307.37802855912196,None,307.37802855912196,None,307.37802855912196,None,307.37802855912196,None,307.37802855912196,None,307.37802855912196,None,1,0.6838539136806503,307.37802855912196,None,308.0949933539523,None,308.0949933539523,None,308.0949933539523,None,308.0949933539523,None,308.0949933539523,None,308.0949933539523,None,308.0949933539523,None,312.0798658375261,None,312.0798658375261,None,312.0798658375261,None,312.0798658375261,None,312.0798658375261,None,312.0798658375261,None,312.0798658375261,None,313.0802107792024,None,,,,,,,,,,,,,,,,,,,,,,,,,,,,,,23490,2019_Sep_20_1352,Mmi_3levels,3.1.5,59.97904203699478,
,,,1,1,6.1,,,,,,,,,0,0,0,0,0,19,19,15,,,,,,,,,,,,,,,,,,,,,,,,,,,,,,,,,,,,,,,,,,,,,,,,,,,,,,,,,,,,,True,True,True,0.91,-0.08999999999999997,-1.7399999999999989,2.9999999999999982,6.1,3.1000000000000014,1.5500000000000007,gamble,win,6.1,116.89999999999999,315.09765049280577,None,315.09765049280577,None,315.09765049280577,None,315.09765049280577,None,315.09765049280577,None,315.09765049280577,None,315.09765049280577,None,1,0.8505986561995087,315.09765049280577,None,315.98136131008687,None,315.98136131008687,None,315.98136131008687,None,315.98136131008687,None,315.98136131008687,None,315.98136131008687,None,315.98136131008687,None,319.966177156668,None,319.966177156668,None,319.966177156668,None,319.966177156668,None,319.966177156668,None,319.966177156668,None,319.966177156668,None,329.46981344350934,None,320.96660913372216,None,321.96694703577305,None,0.94,7.502813930523189,324.96810377432666,None,None,324.96810377432666,None,,,,,,,,,,,,,,,,,,,23490,2019_Sep_20_1352,Mmi_3levels,3.1.5,59.97904203699478,
,,,1,1,3.9,,,,,,,,,0,0,0,0,0,20,20,10,,,,,,,,,,,,,,,,,,,,,,,,,,,,,,,,,,,,,,,,,,,,,,,,,,,,,,,,,,,,,True,True,True,0.94,-0.06000000000000005,-1.799999999999999,2.6399999999999997,3.9,1.2600000000000002,0.6300000000000001,gamble,win,3.9,120.8,331.48729155507135,None,331.48729155507135,None,331.48729155507135,None,331.48729155507135,None,331.48729155507135,None,331.48729155507135,None,331.48729155507135,None,1,1.3340548950036464,331.48729155507135,None,332.85444101209214,None,332.85444101209214,None,332.85444101209214,None,332.85444101209214,None,332.85444101209214,None,332.85444101209214,None,332.85444101209214,None,336.83929045689,None,336.83929045689,None,336.83929045689,None,336.83929045689,None,336.83929045689,None,336.83929045689,None,336.83929045689,None,337.8396773163404,None,,,,,,,,,,,,,,,,,,,,,,,,,,,,,,23490,2019_Sep_20_1352,Mmi_3levels,3.1.5,59.97904203699478,
,,,1,1,1.9,,,,,,,,,0,0,0,0,0,21,21,26,,,,,,,,,,,,,,,,,,,,,,,,,,,,,,,,,,,,,,,,,,,,,,,,,,,,,,,,,,,,,True,True,False,0.94,-0.06000000000000005,-1.859999999999999,2.6999999999999997,1.9,-0.7999999999999998,0.55,gamble,win,1.9,122.7,339.85715734780024,None,339.85715734780024,None,339.85715734780024,None,339.85715734780024,None,339.85715734780024,None,339.85715734780024,None,339.85715734780024,None,1,1.3341595294459694,339.85715734780024,None,341.2243532023567,None,341.2243532023567,None,341.2243532023567,None,341.2243532023567,None,341.2243532023567,None,341.2243532023567,None,341.2243532023567,None,345.209165209144,None,345.209165209144,None,345.209165209144,None,345.209165209144,None,345.209165209144,None,345.209165209144,None,345.209165209144,None,354.71278069708933,None,346.20954598891694,None,347.209925488758,None,0.91,7.502826089877999,350.21107774755,None,None,350.21107774755,None,,,,,,,,,,,,,,,,,,,23490,2019_Sep_20_1352,Mmi_3levels,3.1.5,59.97904203699478,
,,,1,1,13.1,,,,,,,,,0,0,0,0,0,22,22,13,,,,,,,,,,,,,,,,,,,,,,,,,,,,,,,,,,,,,,,,,,,,,,,,,,,,,,,,,,,,,True,False,True,0.91,-0.08999999999999997,-1.9499999999999988,-0.4774999999999998,13.1,12.6225,6.31125,gamble,lose,12.6225,135.3225,356.75149192074787,None,356.75149192074787,None,356.75149192074787,None,356.75149192074787,None,356.75149192074787,None,356.75149192074787,None,356.75149192074787,None,1,1.1294219251067261,356.75149192074787,None,357.91402920676774,None,357.91402920676774,None,357.91402920676774,None,357.91402920676774,None,357.91402920676774,None,357.91402920676774,None,357.91402920676774,None,361.8988504930621,None,361.8988504930621,None,361.8988504930621,None,361.8988504930621,None,361.8988504930621,None,361.8988504930621,None,361.8988504930621,None,362.8993019890786,None,,,,,,,,,,,,,,,,,,,,,,,,,,,,,,23490,2019_Sep_20_1352,Mmi_3levels,3.1.5,59.97904203699478,
,,,1,1,3.5,,,,,,,,,0,0,0,0,0,23,23,16,,,,,,,,,,,,,,,,,,,,,,,,,,,,,,,,,,,,,,,,,,,,,,,,,,,,,,,,,,,,,True,False,True,0.91,-0.08999999999999997,-2.0399999999999987,-0.48499999999999976,3.5,3.015,1.5075,gamble,lose,3.015,138.33749999999998,364.91667706611406,None,364.91667706611406,None,364.91667706611406,None,364.91667706611406,None,364.91667706611406,None,364.91667706611406,None,364.91667706611406,None,1,1.0507339450123254,364.91667706611406,None,366.0004950137045,None,366.0004950137045,None,366.0004950137045,None,366.0004950137045,None,366.0004950137045,None,366.0004950137045,None,366.0004950137045,None,369.98527406224093,None,369.98527406224093,None,369.98527406224093,None,369.98527406224093,None,369.98527406224093,None,369.98527406224093,None,369.98527406224093,None,379.4889593064818,None,370.98568748028083,None,371.9860816993387,None,0.94,7.502830569641446,374.98720355974547,None,None,374.98720355974547,None,,,,,,,,,,,,,,,,,,,23490,2019_Sep_20_1352,Mmi_3levels,3.1.5,59.97904203699478,
,,,1,1,10.3,,,,,,,,,0,0,0,0,0,24,24,6,,,,,,,,,,,,,,,,,,,,,,,,,,,,,,,,,,,,,,,,,,,,,,,,,,,,,,,,,,,,,True,False,True,0.94,-0.06000000000000005,-2.0999999999999988,-0.3850000000000001,10.3,9.915000000000001,4.9575000000000005,gamble,lose,9.915000000000001,148.25249999999997,381.5063727814777,None,381.5063727814777,None,381.5063727814777,None,381.5063727814777,None,381.5063727814777,None,381.5063727814777,None,381.5063727814777,None,1,0.9839739713024755,381.5063727814777,None,382.5234313953242,None,382.5234313953242,None,382.5234313953242,None,382.5234313953242,None,382.5234313953242,None,382.5234313953242,None,382.5234313953242,None,386.5082888396955,None,386.5082888396955,None,386.5082888396955,None,386.5082888396955,None,386.5082888396955,None,386.5082888396955,None,386.5082888396955,None,387.5086913783143,None,,,,,,,,,,,,,,,,,,,,,,,,,,,,,,23490,2019_Sep_20_1352,Mmi_3levels,3.1.5,59.97904203699478,
,,,1,1,7.9,,,,,,,,,0,0,0,0,0,25,25,8,,,,,,,,,,,,,,,,,,,,,,,,,,,,,,,,,,,,,,,,,,,,,,,,,,,,,,,,,,,,,True,True,False,0.94,-0.06000000000000005,-2.159999999999999,2.9999999999999996,7.9,4.9,2.45,gamble,win,7.9,156.15249999999997,389.52613397176356,None,389.52613397176356,None,389.52613397176356,None,389.52613397176356,None,389.52613397176356,None,389.52613397176356,None,389.52613397176356,None,1,1.250680763838318,389.52613397176356,None,390.80990769770324,None,390.80990769770324,None,390.80990769770324,None,390.80990769770324,None,390.80990769770324,None,390.80990769770324,None,390.80990769770324,None,394.7947667419903,None,394.7947667419903,None,394.7947667419903,None,394.7947667419903,None,394.7947667419903,None,394.7947667419903,None,394.7947667419903,None,395.79519327933303,None,,,,,,,,,,,,,,,,,,,,,,,,,,,,,,23490,2019_Sep_20_1352,Mmi_3levels,3.1.5,59.97904203699478,
,,,1,1,11.1,,,,,,,,,0,0,0,0,0,26,26,25,,,,,,,,,,,,,,,,,,,,,,,,,,,,,,,,,,,,,,,,,,,,,,,,,,,,,,,,,,,,,True,False,True,0.94,-0.06000000000000005,-2.219999999999999,-0.39500000000000013,11.1,10.705,5.3525,gamble,lose,10.705,166.8575,397.8126281931891,None,397.8126281931891,None,397.8126281931891,None,397.8126281931891,None,397.8126281931891,None,397.8126281931891,None,397.8126281931891,None,1,0.8839610439881653,397.8126281931891,None,398.72965052096333,None,398.72965052096333,None,398.72965052096333,None,398.72965052096333,None,398.72965052096333,None,398.72965052096333,None,398.72965052096333,None,402.7145073253705,None,402.7145073253705,None,402.7145073253705,None,402.7145073253705,None,402.7145073253705,None,402.7145073253705,None,402.7145073253705,None,412.2180965747102,None,403.7148887451094,None,404.7152717647641,None,0.91,7.502893286307881,407.71637090637705,None,None,407.71637090637705,None,,,,,,,,,,,,,,,,,,,23490,2019_Sep_20_1352,Mmi_3levels,3.1.5,59.97904203699478,
,,,2,0,2.7,,,,,,,,,0,1,1,1,0,0,0,22,,,,,,,,,,,,,,,,,,,,,,,,,,,,,,,,,,,,,,,,,,,,,,,,,417.5701901914963,None,0.92,5.067449857062456,420.58795788767566,None,4,2.034472728808396,420.58795788767566,None,422.63878878753894,None,False,True,False,0.92,0.92,0.92,-13.8,0.675,-13.125,-6.225,certain,certain,-6.225,160.6325,425.6732682359907,None,425.6732682359907,None,425.6732682359907,None,425.6732682359907,None,425.6732682359907,None,425.6732682359907,None,425.6732682359907,None,3,2.017736017862262,425.6732682359907,None,427.72412249461195,None,427.72412249461195,None,427.72412249461195,None,427.72412249461195,None,427.72412249461195,None,427.72412249461195,None,427.72412249461195,None,431.72560369593157,None,431.72560369593157,None,431.72560369593157,None,431.72560369593157,None,431.72560369593157,None,431.72560369593157,None,431.72560369593157,None,432.70926280395906,None,,,,,,,,,,,,414.2188622940339,None,4,3.3350010847425438,414.2188622940339,None,,,,,,,,,,,,,23490,2019_Sep_20_1352,Mmi_3levels,3.1.5,59.97904203699478,
,,,2,0,11.5,,,,,,,,,0,1,1,1,0,1,1,15,,,,,,,,,,,,,,,,,,,,,,,,,,,,,,,,,,,,,,,,,,,,,,,,,,,,,,,,,,,,,False,False,False,0.92,0.92,1.84,3.3733333333333335,2.875,-0.4983333333333335,1.1883333333333332,gamble,win,2.875,163.5075,434.72674635523254,None,434.72674635523254,None,434.72674635523254,None,434.72674635523254,None,434.72674635523254,None,434.72674635523254,None,434.72674635523254,None,1,0.8840202408446203,434.72674635523254,None,435.64376932297273,None,435.64376932297273,None,435.64376932297273,None,435.64376932297273,None,435.64376932297273,None,435.64376932297273,None,435.64376932297273,None,439.62862324753223,None,439.62862324753223,None,439.62862324753223,None,439.62862324753223,None,439.62862324753223,None,439.62862324753223,None,439.62862324753223,None,449.1323116916028,None,440.62899378785005,None,441.6293896068237,None,0.93,7.502794411560899,444.6304890684205,None,None,444.6304890684205,None,,,,,,,,,,,,,,,,,,,23490,2019_Sep_20_1352,Mmi_3levels,3.1.5,59.97904203699478,
,,,2,0,9.3,,,,,,,,,0,1,1,1,0,2,2,13,,,,,,,,,,,,,,,,,,,,,,,,,,,,,,,,,,,,,,,,,,,,,,,,,,,,,,,,,,,,,False,True,True,0.93,0.93,2.77,-15.790000000000001,2.325,-13.465,-5.57,certain,certain,-5.57,157.9375,451.1709310801398,None,451.1709310801398,None,451.1709310801398,None,451.1709310801398,None,451.1709310801398,None,451.1709310801398,None,451.1709310801398,None,3,1.763039787327216,451.1709310801398,None,452.96701999189827,None,452.96701999189827,None,452.96701999189827,None,452.96701999189827,None,452.96701999189827,None,452.96701999189827,None,452.96701999189827,None,456.95190559477487,None,456.95190559477487,None,456.95190559477487,None,456.95190559477487,None,456.95190559477487,None,456.95190559477487,None,456.95190559477487,None,457.9522290975892,None,,,,,,,,,,,,,,,,,,,,,,,,,,,,,,23490,2019_Sep_20_1352,Mmi_3levels,3.1.5,59.97904203699478,
,,,2,0,9.1,,,,,,,,,0,1,1,1,0,3,3,17,,,,,,,,,,,,,,,,,,,,,,,,,,,,,,,,,,,,,,,,,,,,,,,,,,,,,,,,,,,,,False,True,False,0.93,0.93,3.7,-16.720000000000002,2.275,-14.445000000000002,-6.085000000000001,certain,certain,-6.085000000000001,151.8525,459.9697264081333,None,459.9697264081333,None,459.9697264081333,None,459.9697264081333,None,459.9697264081333,None,459.9697264081333,None,459.9697264081333,None,3,2.401188928844931,459.9697264081333,None,462.40400029950433,None,462.40400029950433,None,462.40400029950433,None,462.40400029950433,None,462.40400029950433,None,462.40400029950433,None,462.40400029950433,None,466.40547766102645,None,466.40547766102645,None,466.40547766102645,None,466.40547766102645,None,466.40547766102645,None,466.40547766102645,None,466.40547766102645,None,475.89248827102165,None,467.3892202846182,None,468.3895722659199,None,0.92,7.502807850847603,471.39076932233365,None,None,471.39076932233365,None,,,,,,,,,,,,,,,,,,,23490,2019_Sep_20_1352,Mmi_3levels,3.1.5,59.97904203699478,
,,,2,0,3.9,,,,,,,,,0,1,1,1,0,4,4,24,,,,,,,,,,,,,,,,,,,,,,,,,,,,,,,,,,,,,,,,,,,,,,,,,,,,,,,,,,,,,False,False,True,0.92,0.92,4.62,3.6050000000000004,0.975,-2.6300000000000003,-0.8275000000000001,gamble,win,0.975,152.8275,477.9099551831805,None,477.9099551831805,None,477.9099551831805,None,477.9099551831805,None,477.9099551831805,None,477.9099551831805,None,477.9099551831805,None,1,1.1339538443717174,477.9099551831805,None,479.0770176688202,None,479.0770176688202,None,479.0770176688202,None,479.0770176688202,None,479.0770176688202,None,479.0770176688202,None,479.0770176688202,None,483.0618517544335,None,483.0618517544335,None,483.0618517544335,None,483.0618517544335,None,483.0618517544335,None,483.0618517544335,None,483.0618517544335,None,484.06228437145364,None,,,,,,,,,,,,,,,,,,,,,,,,,,,,,,23490,2019_Sep_20_1352,Mmi_3levels,3.1.5,59.97904203699478,
,,,2,0,13.3,,,,,,,,,0,1,1,1,0,5,5,10,,,,,,,,,,,,,,,,,,,,,,,,,,,,,,,,,,,,,,,,,,,,,,,,,,,,,,,,,,,,,False,False,True,0.92,0.92,5.54,3.6816666666666666,3.325,-0.35666666666666647,1.4841666666666669,gamble,win,3.325,156.15249999999997,486.07972472502115,None,486.07972472502115,None,486.07972472502115,None,486.07972472502115,None,486.07972472502115,None,486.07972472502115,None,486.07972472502115,None,1,2.3178218373050186,486.07972472502115,None,488.4305985666033,None,488.4305985666033,None,488.4305985666033,None,488.4305985666033,None,488.4305985666033,None,488.4305985666033,None,488.4305985666033,None,492.4154732900588,None,492.4154732900588,None,492.4154732900588,None,492.4154732900588,None,492.4154732900588,None,492.4154732900588,None,492.4154732900588,None,493.41590910690684,None,,,,,,,,,,,,,,,,,,,,,,,,,,,,,,23490,2019_Sep_20_1352,Mmi_3levels,3.1.5,59.97904203699478,
,,,2,0,1.3,,,,,,,,,0,1,1,1,0,6,6,12,,,,,,,,,,,,,,,,,,,,,,,,,,,,,,,,,,,,,,,,,,,,,,,,,,,,,,,,,,,,,False,False,False,0.92,0.92,6.46,3.7583333333333337,0.325,-3.4333333333333336,-1.5541666666666667,gamble,win,0.325,156.47749999999996,495.433297623229,None,495.433297623229,None,495.433297623229,None,495.433297623229,None,495.433297623229,None,495.433297623229,None,495.433297623229,None,1,1.9176546141861763,495.433297623229,None,497.38399304228915,None,497.38399304228915,None,497.38399304228915,None,497.38399304228915,None,497.38399304228915,None,497.38399304228915,None,497.38399304228915,None,501.36885912620346,None,501.36885912620346,None,501.36885912620346,None,501.36885912620346,None,501.36885912620346,None,501.36885912620346,None,501.36885912620346,None,510.87253381100345,None,502.36924086592444,None,503.36961492605406,None,0.92,7.502852968449588,506.3708078226882,None,None,506.3708078226882,None,,,,,,,,,,,,,,,,,,,23490,2019_Sep_20_1352,Mmi_3levels,3.1.5,59.97904203699478,
,,,2,0,3.7,,,,,,,,,0,1,1,1,0,7,7,21,,,,,,,,,,,,,,,,,,,,,,,,,,,,,,,,,,,,,,,,,,,,,,,,,,,,,,,,,,,,,False,True,False,0.92,0.92,7.38,-20.26,0.925,-19.335,-9.205,gamble,lose,-19.335,137.14249999999996,512.8899485659313,None,512.8899485659313,None,512.8899485659313,None,512.8899485659313,None,512.8899485659313,None,512.8899485659313,None,512.8899485659313,None,1,2.0343904931760335,512.8899485659313,None,514.95741602206,None,514.95741602206,None,514.95741602206,None,514.95741602206,None,514.95741602206,None,514.95741602206,None,514.95741602206,None,518.9589234619853,None,518.9589234619853,None,518.9589234619853,None,518.9589234619853,None,518.9589234619853,None,518.9589234619853,None,518.9589234619853,None,519.9426273676345,None,,,,,,,,,,,,,,,,,,,,,,,,,,,,,,23490,2019_Sep_20_1352,Mmi_3levels,3.1.5,59.97904203699478,
,,,2,0,8.5,,,,,,,,,0,1,1,1,0,8,8,11,,,,,,,,,,,,,,,,,,,,,,,,,,,,,,,,,,,,,,,,,,,,,,,,,,,,,,,,,,,,,False,True,True,0.92,0.92,8.3,-21.18,2.125,-19.055,-8.465,gamble,lose,-19.055,118.08749999999995,521.9600603615927,None,521.9600603615927,None,521.9600603615927,None,521.9600603615927,None,521.9600603615927,None,521.9600603615927,None,521.9600603615927,None,1,1.8343092814920965,521.9600603615927,None,523.8274366865626,None,523.8274366865626,None,523.8274366865626,None,523.8274366865626,None,523.8274366865626,None,523.8274366865626,None,523.8274366865626,None,527.8290340417116,None,527.8290340417116,None,527.8290340417116,None,527.8290340417116,None,527.8290340417116,None,527.8290340417116,None,527.8290340417116,None,537.3159947343593,None,528.8126800304362,None,529.8131020880173,None,0.95,7.502854888347429,532.8142709859239,None,None,532.8142709859239,None,,,,,,,,,,,,,,,,,,,23490,2019_Sep_20_1352,Mmi_3levels,3.1.5,59.97904203699478,
,,,2,0,7.1,,,,,,,,,0,1,1,1,0,9,9,0,,,,,,,,,,,,,,,,,,,,,,,,,,,,,,,,,,,,,,,,,,,,,,,,,,,,,,,,,,,,,False,True,True,0.95,0.95,9.25,-22.549999999999997,1.775,-20.775,-9.5,certain,certain,-9.5,108.58749999999995,539.3333928501706,None,539.3333928501706,None,539.3333928501706,None,539.3333928501706,None,539.3333928501706,None,539.3333928501706,None,539.3333928501706,None,3,1.5508689778398548,539.3333928501706,None,540.9173611897731,None,540.9173611897731,None,540.9173611897731,None,540.9173611897731,None,540.9173611897731,None,540.9173611897731,None,540.9173611897731,None,544.9188894285926,None,544.9188894285926,None,544.9188894285926,None,544.9188894285926,None,544.9188894285926,None,544.9188894285926,None,544.9188894285926,None,545.9025424569445,None,,,,,,,,,,,,,,,,,,,,,,,,,,,,,,23490,2019_Sep_20_1352,Mmi_3levels,3.1.5,59.97904203699478,
,,,2,0,4.9,,,,,,,,,0,1,1,1,0,10,10,7,,,,,,,,,,,,,,,,,,,,,,,,,,,,,,,,,,,,,,,,,,,,,,,,,,,,,,,,,,,,,False,False,False,0.95,0.95,10.2,4.175,1.225,-2.9499999999999997,-0.8624999999999998,gamble,win,1.225,109.81249999999994,547.9200055293059,None,547.9200055293059,None,547.9200055293059,None,547.9200055293059,None,547.9200055293059,None,547.9200055293059,None,547.9200055293059,None,1,2.501222975035489,547.9200055293059,None,550.4543150667832,None,550.4543150667832,None,550.4543150667832,None,550.4543150667832,None,550.4543150667832,None,550.4543150667832,None,550.4543150667832,None,554.4558625045829,None,554.4558625045829,None,554.4558625045829,None,554.4558625045829,None,554.4558625045829,None,554.4558625045829,None,554.4558625045829,None,555.4395737698414,None,,,,,,,,,,,,,,,,,,,,,,,,,,,,,,23490,2019_Sep_20_1352,Mmi_3levels,3.1.5,59.97904203699478,
,,,2,0,11.9,,,,,,,,,0,1,1,1,0,11,11,16,,,,,,,,,,,,,,,,,,,,,,,,,,,,,,,,,,,,,,,,,,,,,,,,,,,,,,,,,,,,,False,True,True,0.95,0.95,11.149999999999999,-24.449999999999996,2.975,-21.474999999999994,-9.249999999999996,certain,certain,-9.249999999999996,100.56249999999994,557.4570096436473,None,557.4570096436473,None,557.4570096436473,None,557.4570096436473,None,557.4570096436473,None,557.4570096436473,None,557.4570096436473,None,3,2.401130691936487,557.4570096436473,None,559.8912281779594,None,559.8912281779594,None,559.8912281779594,None,559.8912281779594,None,559.8912281779594,None,559.8912281779594,None,559.8912281779594,None,563.8928143337016,None,563.8928143337016,None,563.8928143337016,None,563.8928143337016,None,563.8928143337016,None,563.8928143337016,None,563.8928143337016,None,573.3797187093423,None,564.8764676820356,None,565.8768452619788,None,0.95,7.502819690216711,568.8779962408389,None,None,568.8779962408389,None,,,,,,,,,,,,,,,,,,,23490,2019_Sep_20_1352,Mmi_3levels,3.1.5,59.97904203699478,
,,,2,0,8.3,,,,,,,,,0,1,1,1,0,12,12,14,,,,,,,,,,,,,,,,,,,,,,,,,,,,,,,,,,,,,,,,,,,,,,,,,,,,,,,,,,,,,False,True,False,0.95,0.95,12.099999999999998,-25.4,2.075,-23.325,-10.625,gamble,lose,-23.325,77.23749999999994,575.4184865699935,None,575.4184865699935,None,575.4184865699935,None,575.4184865699935,None,575.4184865699935,None,575.4184865699935,None,575.4184865699935,None,1,1.9963662730242504,575.4184865699935,None,577.4479445251854,None,577.4479445251854,None,577.4479445251854,None,577.4479445251854,None,577.4479445251854,None,577.4479445251854,None,577.4479445251854,None,581.4495124418991,None,581.4495124418991,None,581.4495124418991,None,581.4495124418991,None,581.4495124418991,None,581.4495124418991,None,581.4495124418991,None,582.433232346697,None,,,,,,,,,,,,,,,,,,,,,,,,,,,,,,23490,2019_Sep_20_1352,Mmi_3levels,3.1.5,59.97904203699478,
,,,2,0,4.7,,,,,,,,,0,1,1,1,0,13,13,9,,,,,,,,,,,,,,,,,,,,,,,,,,,,,,,,,,,,,,,,,,,,,,,,,,,,,,,,,,,,,False,False,False,0.95,0.95,13.049999999999997,4.4125,1.175,-3.2375,-1.03125,gamble,win,1.175,78.41249999999994,584.4506688604688,None,584.4506688604688,None,584.4506688604688,None,584.4506688604688,None,584.4506688604688,None,584.4506688604688,None,584.4506688604688,None,1,1.6008685618617164,584.4506688604688,None,586.084627184604,None,586.084627184604,None,586.084627184604,None,586.084627184604,None,586.084627184604,None,586.084627184604,None,586.084627184604,None,590.086116065515,None,590.086116065515,None,590.086116065515,None,590.086116065515,None,590.086116065515,None,590.086116065515,None,590.086116065515,None,599.5730610789942,None,591.0698951671675,None,592.0702017108852,None,0.93,7.502838249232809,595.071357489489,None,None,595.071357489489,None,,,,,,,,,,,,,,,,,,,23490,2019_Sep_20_1352,Mmi_3levels,3.1.5,59.97904203699478,
,,,2,0,12.1,,,,,,,,,0,1,1,1,0,14,14,3,,,,,,,,,,,,,,,,,,,,,,,,,,,,,,,,,,,,,,,,,,,,,,,,,,,,,,,,,,,,,False,True,False,0.93,0.93,13.979999999999997,-27.0,3.025,-23.975,-10.475000000000001,certain,certain,-10.475000000000001,67.93749999999994,601.5905567896225,None,601.5905567896225,None,601.5905567896225,None,601.5905567896225,None,601.5905567896225,None,601.5905567896225,None,601.5905567896225,None,3,1.8342635239205265,601.5905567896225,None,603.4579135956301,None,603.4579135956301,None,603.4579135956301,None,603.4579135956301,None,603.4579135956301,None,603.4579135956301,None,603.4579135956301,None,607.4594610334298,None,607.4594610334298,None,607.4594610334298,None,607.4594610334298,None,607.4594610334298,None,607.4594610334298,None,607.4594610334298,None,608.4431246212189,None,,,,,,,,,,,,,,,,,,,,,,,,,,,,,,23490,2019_Sep_20_1352,Mmi_3levels,3.1.5,59.97904203699478,
,,,2,0,1.1,,,,,,,,,0,1,1,1,0,15,15,2,,,,,,,,,,,,,,,,,,,,,,,,,,,,,,,,,,,,,,,,,,,,,,,,,,,,,,,,,,,,,False,False,False,0.93,0.93,14.909999999999997,4.4975000000000005,0.275,-4.2225,-1.9737500000000001,gamble,win,0.275,68.21249999999995,610.4605611349925,None,610.4605611349925,None,610.4605611349925,None,610.4605611349925,None,610.4605611349925,None,610.4605611349925,None,610.4605611349925,None,1,2.117732626044017,610.4605611349925,None,612.6113883230519,None,612.6113883230519,None,612.6113883230519,None,612.6113883230519,None,612.6113883230519,None,612.6113883230519,None,612.6113883230519,None,616.6129591196113,None,616.6129591196113,None,616.6129591196113,None,616.6129591196113,None,616.6129591196113,None,616.6129591196113,None,616.6129591196113,None,626.0999236520547,None,617.59666942492,None,618.5970562843704,None,0.96,7.502824169980158,621.5981435866124,None,None,621.5981435866124,None,,,,,,,,,,,,,,,,,,,23490,2019_Sep_20_1352,Mmi_3levels,3.1.5,59.97904203699478,
,,,2,0,-1.5,,,,,,,,,0,1,1,1,0,16,16,18,,,,,,,,,,,,,,,,,,,,,,,,,,,,,,,,,,,,,,,,,,,,,,,,,,,,,,,,,,,,,False,True,True,0.96,0.96,15.869999999999997,-29.309999999999995,-0.375,-29.684999999999995,-15.029999999999998,certain,certain,-15.029999999999998,53.18249999999995,628.1386534347293,None,628.1386534347293,None,628.1386534347293,None,628.1386534347293,None,628.1386534347293,None,628.1386534347293,None,628.1386534347293,None,3,2.0297897775672027,628.1386534347293,None,630.201493296674,None,630.201493296674,None,630.201493296674,None,630.201493296674,None,630.201493296674,None,630.201493296674,None,630.201493296674,None,634.2029780178054,None,634.2029780178054,None,634.2029780178054,None,634.2029780178054,None,634.2029780178054,None,634.2029780178054,None,634.2029780178054,None,635.1866860832342,None,,,,,,,,,,,,,,,,,,,,,,,,,,,,,,23490,2019_Sep_20_1352,Mmi_3levels,3.1.5,59.97904203699478,
,,,2,0,4.3,,,,,,,,,0,1,1,1,0,17,17,23,,,,,,,,,,,,,,,,,,,,,,,,,,,,,,,,,,,,,,,,,,,,,,,,,,,,,,,,,,,,,False,True,False,0.96,0.96,16.83,-30.269999999999996,1.075,-29.194999999999997,-14.059999999999999,certain,certain,-14.059999999999999,39.122499999999945,637.2041187572104,None,637.2041187572104,None,637.2041187572104,None,637.2041187572104,None,637.2041187572104,None,637.2041187572104,None,637.2041187572104,None,3,1.7174220505403355,637.2041187572104,None,638.9548401588909,None,638.9548401588909,None,638.9548401588909,None,638.9548401588909,None,638.9548401588909,None,638.9548401588909,None,638.9548401588909,None,642.9564074356349,None,642.9564074356349,None,642.9564074356349,None,642.9564074356349,None,642.9564074356349,None,642.9564074356349,None,642.9564074356349,None,643.9400531043793,None,,,,,,,,,,,,,,,,,,,,,,,,,,,,,,23490,2019_Sep_20_1352,Mmi_3levels,3.1.5,59.97904203699478,
,,,2,0,0.9,,,,,,,,,0,1,1,1,0,18,18,1,,,,,,,,,,,,,,,,,,,,,,,,,,,,,,,,,,,,,,,,,,,,,,,,,,,,,,,,,,,,,False,True,True,0.96,0.96,17.79,-31.229999999999997,0.225,-31.004999999999995,-15.389999999999997,certain,certain,-15.389999999999997,23.73249999999995,645.9574915380472,None,645.9574915380472,None,645.9574915380472,None,645.9574915380472,None,645.9574915380472,None,645.9574915380472,None,645.9574915380472,None,3,1.6008743215534196,645.9574915380472,None,647.5914623415192,None,647.5914623415192,None,647.5914623415192,None,647.5914623415192,None,647.5914623415192,None,647.5914623415192,None,647.5914623415192,None,651.5930049795752,None,651.5930049795752,None,651.5930049795752,None,651.5930049795752,None,651.5930049795752,None,651.5930049795752,None,651.5930049795752,None,661.0799160748575,None,652.5766682473804,None,653.5771015043683,None,0.93,7.502768172955257,656.5782300844185,None,None,656.5782300844185,None,,,,,,,,,,,,,,,,,,,23490,2019_Sep_20_1352,Mmi_3levels,3.1.5,59.97904203699478,
,,,2,0,3.3,,,,,,,,,0,1,1,1,0,19,19,6,,,,,,,,,,,,,,,,,,,,,,,,,,,,,,,,,,,,,,,,,,,,,,,,,,,,,,,,,,,,,False,True,False,0.93,0.93,18.72,-31.740000000000002,0.825,-30.915000000000003,-15.045000000000002,certain,certain,-15.045000000000002,8.687499999999947,663.0973663478981,None,663.0973663478981,None,663.0973663478981,None,663.0973663478981,None,663.0973663478981,None,663.0973663478981,None,663.0973663478981,None,3,2.9014599544461817,663.0973663478981,None,666.031857507729,None,666.031857507729,None,666.031857507729,None,666.031857507729,None,666.031857507729,None,666.031857507729,None,666.031857507729,None,670.0333732672116,None,670.0333732672116,None,670.0333732672116,None,670.0333732672116,None,670.0333732672116,None,670.0333732672116,None,670.0333732672116,None,671.0170816526224,None,,,,,,,,,,,,,,,,,,,,,,,,,,,,,,23490,2019_Sep_20_1352,Mmi_3levels,3.1.5,59.97904203699478,
,,,2,0,12.9,,,,,,,,,0,1,1,1,0,20,20,4,,,,,,,,,,,,,,,,,,,,,,,,,,,,,,,,,,,,,,,,,,,,,,,,,,,,,,,,,,,,,False,True,False,0.93,0.93,19.65,-32.67,3.225,-29.445,-13.11,certain,certain,-13.11,-4.422500000000053,673.0345376853584,None,673.0345376853584,None,673.0345376853584,None,673.0345376853584,None,673.0345376853584,None,673.0345376853584,None,673.0345376853584,None,3,1.3508876008490915,673.0345376853584,None,674.4184385725421,None,674.4184385725421,None,674.4184385725421,None,674.4184385725421,None,674.4184385725421,None,674.4184385725421,None,674.4184385725421,None,678.4199469724153,None,678.4199469724153,None,678.4199469724153,None,678.4199469724153,None,678.4199469724153,None,678.4199469724153,None,678.4199469724153,None,687.9068404686332,None,679.4035913612279,None,680.4040169386208,None,0.92,7.502764973123703,683.4051720772586,None,None,683.4051720772586,None,,,,,,,,,,,,,,,,,,,23490,2019_Sep_20_1352,Mmi_3levels,3.1.5,59.97904203699478,
,,,2,0,12.5,,,,,,,,,0,1,1,1,0,21,21,5,,,,,,,,,,,,,,,,,,,,,,,,,,,,,,,,,,,,,,,,,,,,,,,,,,,,,,,,,,,,,False,False,True,0.92,0.92,20.57,4.934166666666667,3.125,-1.809166666666667,0.6579166666666665,gamble,win,3.125,-1.2975000000000527,689.9243265797704,None,689.9243265797704,None,689.9243265797704,None,689.9243265797704,None,689.9243265797704,None,689.9243265797704,None,689.9243265797704,None,1,1.2674081952754932,689.9243265797704,None,691.2248155777961,None,691.2248155777961,None,691.2248155777961,None,691.2248155777961,None,691.2248155777961,None,691.2248155777961,None,691.2248155777961,None,695.2097376587335,None,695.2097376587335,None,695.2097376587335,None,695.2097376587335,None,695.2097376587335,None,695.2097376587335,None,695.2097376587335,None,696.2100170038975,None,,,,,,,,,,,,,,,,,,,,,,,,,,,,,,23490,2019_Sep_20_1352,Mmi_3levels,3.1.5,59.97904203699478,
,,,2,0,5.3,,,,,,,,,0,1,1,1,0,22,22,25,,,,,,,,,,,,,,,,,,,,,,,,,,,,,,,,,,,,,,,,,,,,,,,,,,,,,,,,,,,,,False,False,False,0.92,0.92,21.490000000000002,5.010833333333334,1.325,-3.685833333333334,-1.180416666666667,gamble,win,1.325,0.027499999999947233,698.2275031150348,None,698.2275031150348,None,698.2275031150348,None,698.2275031150348,None,698.2275031150348,None,698.2275031150348,None,698.2275031150348,None,1,1.1340040817049157,698.2275031150348,None,699.3946167979557,None,699.3946167979557,None,699.3946167979557,None,699.3946167979557,None,699.3946167979557,None,699.3946167979557,None,699.3946167979557,None,703.3961200781014,None,703.3961200781014,None,703.3961200781014,None,703.3961200781014,None,703.3961200781014,None,703.3961200781014,None,703.3961200781014,None,712.883058051957,None,704.379851822272,None,705.3802370818048,None,0.91,7.502769132901449,708.3813381433174,None,None,708.3813381433174,None,,,,,,,,,,,,,,,,,,,23490,2019_Sep_20_1352,Mmi_3levels,3.1.5,59.97904203699478,
,,,2,0,5.7,,,,,,,,,0,1,1,1,0,23,23,26,,,,,,,,,,,,,,,,,,,,,,,,,,,,,,,,,,,,,,,,,,,,,,,,,,,,,,,,,,,,,False,True,True,0.91,0.91,22.400000000000002,-35.14,1.425,-33.715,-16.145000000000003,certain,certain,-16.145000000000003,-16.117500000000057,714.9004980855425,None,714.9004980855425,None,714.9004980855425,None,714.9004980855425,None,714.9004980855425,None,714.9004980855425,None,714.9004980855425,None,3,2.1342725474423787,714.9004980855425,None,717.0680459853975,None,717.0680459853975,None,717.0680459853975,None,717.0680459853975,None,717.0680459853975,None,717.0680459853975,None,717.0680459853975,None,721.0695511854392,None,721.0695511854392,None,721.0695511854392,None,721.0695511854392,None,721.0695511854392,None,721.0695511854392,None,721.0695511854392,None,722.0532720501869,None,,,,,,,,,,,,,,,,,,,,,,,,,,,,,,23490,2019_Sep_20_1352,Mmi_3levels,3.1.5,59.97904203699478,
,,,2,0,10.9,,,,,,,,,0,1,1,1,0,24,24,8,,,,,,,,,,,,,,,,,,,,,,,,,,,,,,,,,,,,,,,,,,,,,,,,,,,,,,,,,,,,,False,True,True,0.91,0.91,23.310000000000002,-36.050000000000004,2.725,-33.325,-15.3,certain,certain,-15.3,-31.417500000000057,724.0707242431272,None,724.0707242431272,None,724.0707242431272,None,724.0707242431272,None,724.0707242431272,None,724.0707242431272,None,724.0707242431272,None,3,1.250503173272591,724.0707242431272,None,725.3544925293572,None,725.3544925293572,None,725.3544925293572,None,725.3544925293572,None,725.3544925293572,None,725.3544925293572,None,725.3544925293572,None,729.3560438069508,None,729.3560438069508,None,729.3560438069508,None,729.3560438069508,None,729.3560438069508,None,729.3560438069508,None,729.3560438069508,None,730.3397320334334,None,,,,,,,,,,,,,,,,,,,,,,,,,,,,,,23490,2019_Sep_20_1352,Mmi_3levels,3.1.5,59.97904203699478,
,,,2,0,0.3,,,,,,,,,0,1,1,1,0,25,25,19,,,,,,,,,,,,,,,,,,,,,,,,,,,,,,,,,,,,,,,,,,,,,,,,,,,,,,,,,,,,,False,True,False,0.91,0.91,24.220000000000002,-36.96,0.075,-36.885,-18.404999999999998,certain,certain,-18.404999999999998,-49.822500000000055,732.3784624560722,None,732.3784624560722,None,732.3784624560722,None,732.3784624560722,None,732.3784624560722,None,732.3784624560722,None,732.3784624560722,None,3,2.31321376208507,732.3784624560722,None,734.7247656604486,None,734.7247656604486,None,734.7247656604486,None,734.7247656604486,None,734.7247656604486,None,734.7247656604486,None,734.7247656604486,None,738.7263166180601,None,738.7263166180601,None,738.7263166180601,None,738.7263166180601,None,738.7263166180601,None,738.7263166180601,None,738.7263166180601,None,748.2132331530556,None,739.7099824457327,None,740.710341786642,None,0.92,7.502782252206089,743.7115478025808,None,None,743.7115478025808,None,,,,,,,,,,,,,,,,,,,23490,2019_Sep_20_1352,Mmi_3levels,3.1.5,59.97904203699478,
,,,2,0,7.5,,,,,,,,,0,1,1,1,0,26,26,20,,,,,,,,,,,,,,,,,,,,,,,,,,,,,,,,,,,,,,,,,,,,,,,,,,,,,,,,,,,,,False,True,True,0.92,0.92,25.140000000000004,-38.02,1.875,-36.145,-17.135,certain,certain,-17.135,-66.95750000000005,750.2306687068776,None,750.2306687068776,None,750.2306687068776,None,750.2306687068776,None,750.2306687068776,None,750.2306687068776,None,750.2306687068776,None,3,1.4007979096131749,750.2306687068776,None,751.6645499791048,None,751.6645499791048,None,751.6645499791048,None,751.6645499791048,None,751.6645499791048,None,751.6645499791048,None,751.6645499791048,None,755.6661300551714,None,755.6661300551714,None,755.6661300551714,None,755.6661300551714,None,755.6661300551714,None,755.6661300551714,None,755.6661300551714,None,756.649842920342,None,,,,,,,,,,,,,,,,,,,,,,,,,,,,,,23490,2019_Sep_20_1352,Mmi_3levels,3.1.5,59.97904203699478,
,,,3,1,-0.7,,,,,,,,,0,2,2,2,0,0,0,26,,,,,,,,,,,,,,,,,,,,,,,,,,,,,,,,,,,,,,,,,,,,,,,,,762.8521896116872,None,0.92,5.3012172793387435,765.8533325909739,None,4,2.2844245713677083,765.8533325909739,None,768.1542154880735,None,True,True,True,0.92,-0.07999999999999996,-0.07999999999999996,1.1999999999999993,-0.7,-1.8999999999999992,-1.2999999999999996,gamble,win,-0.7,-67.65750000000006,771.1886904567618,None,771.1886904567618,None,771.1886904567618,None,771.1886904567618,None,771.1886904567618,None,771.1886904567618,None,771.1886904567618,None,1,2.3845008553144,771.1886904567618,None,773.606278834468,None,773.606278834468,None,773.606278834468,None,773.606278834468,None,773.606278834468,None,773.606278834468,None,773.606278834468,None,777.6078099531333,None,777.6078099531333,None,777.6078099531333,None,777.6078099531333,None,777.6078099531333,None,777.6078099531333,None,777.6078099531333,None,787.0947655260534,None,778.591519298494,None,779.5919010382167,None,0.93,7.5028296096897975,782.5930462573815,None,None,782.5930462573815,None,758.6506038399239,None,4,4.185120406404167,758.6506038399239,None,,,,,,,,,,,,,23490,2019_Sep_20_1352,Mmi_3levels,3.1.5,59.97904203699478,
,,,3,1,9.9,,,,,,,,,0,2,2,2,0,1,1,9,,,,,,,,,,,,,,,,,,,,,,,,,,,,,,,,,,,,,,,,,,,,,,,,,,,,,,,,,,,,,True,False,True,0.93,-0.06999999999999995,-0.1499999999999999,-0.25749999999999984,9.9,9.6425,4.82125,gamble,lose,9.6425,-58.01500000000006,789.1335452260755,None,789.1335452260755,None,789.1335452260755,None,789.1335452260755,None,789.1335452260755,None,789.1335452260755,None,789.1335452260755,None,1,1.2125429497209552,789.1335452260755,None,790.3793587284636,None,790.3793587284636,None,790.3793587284636,None,790.3793587284636,None,790.3793587284636,None,790.3793587284636,None,790.3793587284636,None,794.3642046534478,None,794.3642046534478,None,794.3642046534478,None,794.3642046534478,None,794.3642046534478,None,794.3642046534478,None,794.3642046534478,None,795.3645918328803,None,,,,,,,,,,,,,,,,,,,,,,,,,,,,,,23490,2019_Sep_20_1352,Mmi_3levels,3.1.5,59.97904203699478,
,,,3,1,-0.5,,,,,,,,,0,2,2,2,0,2,2,4,,,,,,,,,,,,,,,,,,,,,,,,,,,,,,,,,,,,,,,,,,,,,,,,,,,,,,,,,,,,,True,True,True,0.93,-0.06999999999999995,-0.21999999999999986,1.1999999999999993,-0.5,-1.6999999999999993,-1.0999999999999996,gamble,win,-0.5,-58.51500000000006,797.382103222677,None,797.382103222677,None,797.382103222677,None,797.382103222677,None,797.382103222677,None,797.382103222677,None,797.382103222677,None,1,2.134360862750327,797.382103222677,None,799.5495340087546,None,799.5495340087546,None,799.5495340087546,None,799.5495340087546,None,799.5495340087546,None,799.5495340087546,None,799.5495340087546,None,803.5511067252119,None,803.5511067252119,None,803.5511067252119,None,803.5511067252119,None,803.5511067252119,None,803.5511067252119,None,803.5511067252119,None,804.5348170305188,None,,,,,,,,,,,,,,,,,,,,,,,,,,,,,,23490,2019_Sep_20_1352,Mmi_3levels,3.1.5,59.97904203699478,
,,,3,1,10.1,,,,,,,,,0,2,2,2,0,3,3,24,,,,,,,,,,,,,,,,,,,,,,,,,,,,,,,,,,,,,,,,,,,,,,,,,,,,,,,,,,,,,True,True,False,0.93,-0.06999999999999995,-0.2899999999999998,1.2699999999999991,10.1,8.83,4.415,gamble,win,10.1,-48.415000000000056,806.5522077867208,None,806.5522077867208,None,806.5522077867208,None,806.5522077867208,None,806.5522077867208,None,806.5522077867208,None,806.5522077867208,None,1,1.7343027538372553,806.5522077867208,None,808.3195539052977,None,808.3195539052977,None,808.3195539052977,None,808.3195539052977,None,808.3195539052977,None,808.3195539052977,None,808.3195539052977,None,812.3043998302819,None,812.3043998302819,None,812.3043998302819,None,812.3043998302819,None,812.3043998302819,None,812.3043998302819,None,812.3043998302819,None,821.8080789948435,None,813.3048199679615,None,814.3052157869352,None,0.94,7.502831529589457,817.3063184483617,None,None,817.3063184483617,None,,,,,,,,,,,,,,,,,,,23490,2019_Sep_20_1352,Mmi_3levels,3.1.5,59.97904203699478,
,,,3,1,8.7,,,,,,,,,0,2,2,2,0,4,4,0,,,,,,,,,,,,,,,,,,,,,,,,,,,,,,,,,,,,,,,,,,,,,,,,,,,,,,,,,,,,,True,True,True,0.94,-0.06000000000000005,-0.34999999999999987,1.1900000000000006,8.7,7.509999999999999,3.7549999999999994,gamble,win,8.7,-39.71500000000006,823.8254777506227,None,823.8254777506227,None,823.8254777506227,None,823.8254777506227,None,823.8254777506227,None,823.8254777506227,None,823.8254777506227,None,1,1.0006905233203724,823.8254777506227,None,824.8592519565354,None,824.8592519565354,None,824.8592519565354,None,824.8592519565354,None,824.8592519565354,None,824.8592519565354,None,824.8592519565354,None,828.8440585236094,None,828.8440585236094,None,828.8440585236094,None,828.8440585236094,None,828.8440585236094,None,828.8440585236094,None,828.8440585236094,None,829.8444927405435,None,,,,,,,,,,,,,,,,,,,,,,,,,,,,,,23490,2019_Sep_20_1352,Mmi_3levels,3.1.5,59.97904203699478,
,,,3,1,5.3,,,,,,,,,0,2,2,2,0,5,5,7,,,,,,,,,,,,,,,,,,,,,,,,,,,,,,,,,,,,,,,,,,,,,,,,,,,,,,,,,,,,,True,False,False,0.94,-0.06000000000000005,-0.4099999999999999,-0.24416666666666684,5.3,5.055833333333333,2.5279166666666666,gamble,lose,5.055833333333333,-34.65916666666673,831.861886056613,None,831.861886056613,None,831.861886056613,None,831.861886056613,None,831.861886056613,None,831.861886056613,None,831.861886056613,None,1,1.3172909855056787,831.861886056613,None,833.212446954818,None,833.212446954818,None,833.212446954818,None,833.212446954818,None,833.212446954818,None,833.212446954818,None,833.212446954818,None,837.1972512820103,None,837.1972512820103,None,837.1972512820103,None,837.1972512820103,None,837.1972512820103,None,837.1972512820103,None,837.1972512820103,None,846.7008667699556,None,838.1976407013244,None,839.1980221210652,None,0.94,7.5027707328190445,842.1992134177817,None,None,842.1992134177817,None,,,,,,,,,,,,,,,,,,,23490,2019_Sep_20_1352,Mmi_3levels,3.1.5,59.97904203699478,
,,,3,1,4.1,,,,,,,,,0,2,2,2,0,6,6,23,,,,,,,,,,,,,,,,,,,,,,,,,,,,,,,,,,,,,,,,,,,,,,,,,,,,,,,,,,,,,True,False,False,0.94,-0.06000000000000005,-0.47,-0.24916666666666684,4.1,3.8508333333333327,1.9254166666666663,gamble,lose,3.8508333333333327,-30.808333333333394,848.7396663089239,None,848.7396663089239,None,848.7396663089239,None,848.7396663089239,None,848.7396663089239,None,848.7396663089239,None,848.7396663089239,None,1,1.0627262679809064,848.7396663089239,None,849.8354720997231,None,849.8354720997231,None,849.8354720997231,None,849.8354720997231,None,849.8354720997231,None,849.8354720997231,None,849.8354720997231,None,853.8203049054027,None,853.8203049054027,None,853.8203049054027,None,853.8203049054027,None,853.8203049054027,None,853.8203049054027,None,853.8203049054027,None,854.8206808854302,None,,,,,,,,,,,,,,,,,,,,,,,,,,,,,,23490,2019_Sep_20_1352,Mmi_3levels,3.1.5,59.97904203699478,
,,,3,1,3.1,,,,,,,,,0,2,2,2,0,7,7,25,,,,,,,,,,,,,,,,,,,,,,,,,,,,,,,,,,,,,,,,,,,,,,,,,,,,,,,,,,,,,True,False,False,0.94,-0.06000000000000005,-0.53,-0.2541666666666669,3.1,2.845833333333333,1.4229166666666666,gamble,lose,2.845833333333333,-27.962500000000063,856.8380991601734,None,856.8380991601734,None,856.8380991601734,None,856.8380991601734,None,856.8380991601734,None,856.8380991601734,None,856.8380991601734,None,1,1.0673836205824045,856.8380991601734,None,857.9385709431117,None,857.9385709431117,None,857.9385709431117,None,857.9385709431117,None,857.9385709431117,None,857.9385709431117,None,857.9385709431117,None,861.9234197479418,None,861.9234197479418,None,861.9234197479418,None,861.9234197479418,None,861.9234197479418,None,861.9234197479418,None,861.9234197479418,None,871.4270115571453,None,862.9238046874962,None,863.9241566687961,None,0.94,7.502781932224025,866.9252913285236,None,None,866.9252913285236,None,,,,,,,,,,,,,,,,,,,23490,2019_Sep_20_1352,Mmi_3levels,3.1.5,59.97904203699478,
,,,3,1,6.7,,,,,,,,,0,2,2,2,0,8,8,22,,,,,,,,,,,,,,,,,,,,,,,,,,,,,,,,,,,,,,,,,,,,,,,,,,,,,,,,,,,,,True,True,True,0.94,-0.06000000000000005,-0.5900000000000001,1.4300000000000008,6.7,5.27,2.635,gamble,win,6.7,-21.262500000000063,873.4444471109673,None,873.4444471109673,None,873.4444471109673,None,873.4444471109673,None,873.4444471109673,None,873.4444471109673,None,873.4444471109673,None,1,0.9339782270762953,873.4444471109673,None,874.411535899213,None,874.411535899213,None,874.411535899213,None,874.411535899213,None,874.411535899213,None,874.411535899213,None,874.411535899213,None,878.3963411863551,None,878.3963411863551,None,878.3963411863551,None,878.3963411863551,None,878.3963411863551,None,878.3963411863551,None,878.3963411863551,None,879.3967744433394,None,,,,,,,,,,,,,,,,,,,,,,,,,,,,,,23490,2019_Sep_20_1352,Mmi_3levels,3.1.5,59.97904203699478,
,,,3,1,7.5,,,,,,,,,0,2,2,2,0,9,9,12,,,,,,,,,,,,,,,,,,,,,,,,,,,,,,,,,,,,,,,,,,,,,,,,,,,,,,,,,,,,,True,True,False,0.94,-0.06000000000000005,-0.6500000000000001,1.4900000000000009,7.5,6.009999999999999,3.0049999999999994,gamble,win,7.5,-13.762500000000063,881.4141616797315,None,881.4141616797315,None,881.4141616797315,None,881.4141616797315,None,881.4141616797315,None,881.4141616797315,None,881.4141616797315,None,1,0.9673454146104632,881.4141616797315,None,882.4145549388413,None,882.4145549388413,None,882.4145549388413,None,882.4145549388413,None,882.4145549388413,None,882.4145549388413,None,882.4145549388413,None,886.3994024637395,None,886.3994024637395,None,886.3994024637395,None,886.3994024637395,None,886.3994024637395,None,886.3994024637395,None,886.3994024637395,None,887.3997813236165,None,,,,,,,,,,,,,,,,,,,,,,,,,,,,,,23490,2019_Sep_20_1352,Mmi_3levels,3.1.5,59.97904203699478,
,,,3,1,0.9,,,,,,,,,0,2,2,2,0,10,10,2,,,,,,,,,,,,,,,,,,,,,,,,,,,,,,,,,,,,,,,,,,,,,,,,,,,,,,,,,,,,,True,True,False,0.94,-0.06000000000000005,-0.7100000000000002,1.550000000000001,0.9,-0.6500000000000009,0.12499999999999956,gamble,win,0.9,-12.862500000000063,889.4172235970836,None,889.4172235970836,None,889.4172235970836,None,889.4172235970836,None,889.4172235970836,None,889.4172235970836,None,889.4172235970836,None,1,1.7509585090847395,889.4172235970836,None,891.2012654687787,None,891.2012654687787,None,891.2012654687787,None,891.2012654687787,None,891.2012654687787,None,891.2012654687787,None,891.2012654687787,None,895.2027687489244,None,895.2027687489244,None,895.2027687489244,None,895.2027687489244,None,895.2027687489244,None,895.2027687489244,None,895.2027687489244,None,904.6897297615542,None,896.1864816140951,None,897.1869084714199,None,0.92,7.502767213005427,900.1880136927139,None,None,900.1880136927139,None,,,,,,,,,,,,,,,,,,,23490,2019_Sep_20_1352,Mmi_3levels,3.1.5,59.97904203699478,
,,,3,1,2.3,,,,,,,,,0,2,2,2,0,11,11,8,,,,,,,,,,,,,,,,,,,,,,,,,,,,,,,,,,,,,,,,,,,,,,,,,,,,,,,,,,,,,True,True,False,0.92,-0.07999999999999996,-0.7900000000000001,1.9099999999999997,2.3,0.3900000000000001,1.345,gamble,win,2.3,-10.562500000000064,906.7284518646375,None,906.7284518646375,None,906.7284518646375,None,906.7284518646375,None,906.7284518646375,None,906.7284518646375,None,906.7284518646375,None,1,1.1627839929133188,906.7284518646375,None,907.9243259398063,None,907.9243259398063,None,907.9243259398063,None,907.9243259398063,None,907.9243259398063,None,907.9243259398063,None,907.9243259398063,None,911.9092035431058,None,911.9092035431058,None,911.9092035431058,None,911.9092035431058,None,911.9092035431058,None,911.9092035431058,None,911.9092035431058,None,912.9095404852087,None,,,,,,,,,,,,,,,,,,,,,,,,,,,,,,23490,2019_Sep_20_1352,Mmi_3levels,3.1.5,59.97904203699478,
,,,3,1,1.3,,,,,,,,,0,2,2,2,0,12,12,21,,,,,,,,,,,,,,,,,,,,,,,,,,,,,,,,,,,,,,,,,,,,,,,,,,,,,,,,,,,,,True,True,True,0.92,-0.07999999999999996,-0.8700000000000001,1.9899999999999995,1.3,-0.6899999999999995,0.30500000000000027,gamble,win,1.3,-9.262500000000063,914.9269805187942,None,914.9269805187942,None,914.9269805187942,None,914.9269805187942,None,914.9269805187942,None,914.9269805187942,None,914.9269805187942,None,1,1.2841001086017059,914.9269805187942,None,916.2441963082929,None,916.2441963082929,None,916.2441963082929,None,916.2441963082929,None,916.2441963082929,None,916.2441963082929,None,916.2441963082929,None,920.2290326337861,None,920.2290326337861,None,920.2290326337861,None,920.2290326337861,None,920.2290326337861,None,920.2290326337861,None,920.2290326337861,None,929.7327412367849,None,921.2293849350717,None,922.2298201119556,None,0.91,7.502975521940243,925.2309403724466,None,None,925.2309403724466,None,,,,,,,,,,,,,,,,,,,23490,2019_Sep_20_1352,Mmi_3levels,3.1.5,59.97904203699478,
,,,3,1,4.3,,,,,,,,,0,2,2,2,0,13,13,15,,,,,,,,,,,,,,,,,,,,,,,,,,,,,,,,,,,,,,,,,,,,,,,,,,,,,,,,,,,,,True,False,False,0.91,-0.08999999999999997,-0.9600000000000001,-0.3949999999999999,4.3,3.905,1.9525,gamble,lose,3.905,-5.357500000000064,931.7501214335498,None,931.7501214335498,None,931.7501214335498,None,931.7501214335498,None,931.7501214335498,None,931.7501214335498,None,931.7501214335498,None,1,1.4841320429040934,931.7501214335498,None,933.2673512383008,None,933.2673512383008,None,933.2673512383008,None,933.2673512383008,None,933.2673512383008,None,933.2673512383008,None,933.2673512383008,None,937.2521786042707,None,937.2521786042707,None,937.2521786042707,None,937.2521786042707,None,937.2521786042707,None,937.2521786042707,None,937.2521786042707,None,938.2525993819218,None,,,,,,,,,,,,,,,,,,,,,,,,,,,,,,23490,2019_Sep_20_1352,Mmi_3levels,3.1.5,59.97904203699478,
,,,3,1,2.5,,,,,,,,,0,2,2,2,0,14,14,6,,,,,,,,,,,,,,,,,,,,,,,,,,,,,,,,,,,,,,,,,,,,,,,,,,,,,,,,,,,,,True,True,True,0.91,-0.08999999999999997,-1.05,2.3099999999999996,2.5,0.1900000000000004,1.3450000000000002,gamble,win,2.5,-2.857500000000064,940.2699997376149,None,940.2699997376149,None,940.2699997376149,None,940.2699997376149,None,940.2699997376149,None,940.2699997376149,None,940.2699997376149,None,1,1.1674496650739457,940.2699997376149,None,941.4705068466756,None,941.4705068466756,None,941.4705068466756,None,941.4705068466756,None,941.4705068466756,None,941.4705068466756,None,941.4705068466756,None,945.4553188534628,None,945.4553188534628,None,945.4553188534628,None,945.4553188534628,None,945.4553188534628,None,945.4553188534628,None,945.4553188534628,None,946.4557457107876,None,,,,,,,,,,,,,,,,,,,,,,,,,,,,,,23490,2019_Sep_20_1352,Mmi_3levels,3.1.5,59.97904203699478,
,,,3,1,0.3,,,,,,,,,0,2,2,2,0,15,15,1,,,,,,,,,,,,,,,,,,,,,,,,,,,,,,,,,,,,,,,,,,,,,,,,,,,,,,,,,,,,,True,True,True,0.91,-0.08999999999999997,-1.1400000000000001,2.3999999999999995,0.3,-2.0999999999999996,-0.8999999999999998,gamble,win,0.3,-2.557500000000064,948.4731380669036,None,948.4731380669036,None,948.4731380669036,None,948.4731380669036,None,948.4731380669036,None,948.4731380669036,None,948.4731380669036,None,1,1.4341663770792366,948.4731380669036,None,949.9403666877224,None,949.9403666877224,None,949.9403666877224,None,949.9403666877224,None,949.9403666877224,None,949.9403666877224,None,949.9403666877224,None,953.9419304446528,None,953.9419304446528,None,953.9419304446528,None,953.9419304446528,None,953.9419304446528,None,953.9419304446528,None,953.9419304446528,None,963.4288572191035,None,954.9256068317663,None,955.9260407287147,None,0.96,7.502775212578854,958.927136030532,None,None,958.927136030532,None,,,,,,,,,,,,,,,,,,,23490,2019_Sep_20_1352,Mmi_3levels,3.1.5,59.97904203699478,
,,,3,1,7.1,,,,,,,,,0,2,2,2,0,16,16,10,,,,,,,,,,,,,,,,,,,,,,,,,,,,,,,,,,,,,,,,,,,,,,,,,,,,,,,,,,,,,True,True,True,0.96,-0.040000000000000036,-1.1800000000000002,1.7400000000000007,7.1,5.359999999999999,2.6799999999999997,gamble,win,7.1,4.542499999999936,965.467578682219,None,965.467578682219,None,965.467578682219,None,965.467578682219,None,965.467578682219,None,965.467578682219,None,965.467578682219,None,1,1.3295421747207001,965.467578682219,None,966.8302083793315,None,966.8302083793315,None,966.8302083793315,None,966.8302083793315,None,966.8302083793315,None,966.8302083793315,None,966.8302083793315,None,970.815008546746,None,970.815008546746,None,970.815008546746,None,970.815008546746,None,970.815008546746,None,970.815008546746,None,970.815008546746,None,971.815444363594,None,,,,,,,,,,,,,,,,,,,,,,,,,,,,,,23490,2019_Sep_20_1352,Mmi_3levels,3.1.5,59.97904203699478,
,,,3,1,11.7,,,,,,,,,0,2,2,2,0,17,17,18,,,,,,,,,,,,,,,,,,,,,,,,,,,,,,,,,,,,,,,,,,,,,,,,,,,,,,,,,,,,,True,True,True,0.96,-0.040000000000000036,-1.2200000000000002,1.7800000000000007,11.7,9.919999999999998,4.959999999999999,gamble,win,11.7,16.242499999999936,973.8328338398642,None,973.8328338398642,None,973.8328338398642,None,973.8328338398642,None,973.8328338398642,None,973.8328338398642,None,973.8328338398642,None,1,1.0506805078512116,973.8328338398642,None,974.9166057099028,None,974.9166057099028,None,974.9166057099028,None,974.9166057099028,None,974.9166057099028,None,974.9166057099028,None,974.9166057099028,None,978.9014362757043,None,978.9014362757043,None,978.9014362757043,None,978.9014362757043,None,978.9014362757043,None,978.9014362757043,None,978.9014362757043,None,988.4051020009829,None,979.9018432940829,None,980.9022439128021,None,0.95,7.502695216830034,983.9033539338379,None,None,983.9033539338379,None,,,,,,,,,,,,,,,,,,,23490,2019_Sep_20_1352,Mmi_3levels,3.1.5,59.97904203699478,
,,,3,1,12.5,,,,,,,,,0,2,2,2,0,18,18,20,,,,,,,,,,,,,,,,,,,,,,,,,,,,,,,,,,,,,,,,,,,,,,,,,,,,,,,,,,,,,True,True,False,0.95,-0.050000000000000044,-1.2700000000000002,1.9700000000000009,12.5,10.53,5.265,gamble,win,12.5,28.742499999999936,990.4225580337152,None,990.4225580337152,None,990.4225580337152,None,990.4225580337152,None,990.4225580337152,None,990.4225580337152,None,990.4225580337152,None,1,0.8339157023983716,990.4225580337152,None,991.289563498387,None,991.289563498387,None,991.289563498387,None,991.289563498387,None,991.289563498387,None,991.289563498387,None,991.289563498387,None,995.274368145565,None,995.274368145565,None,995.274368145565,None,995.274368145565,None,995.274368145565,None,995.274368145565,None,995.274368145565,None,996.2747783637715,None,,,,,,,,,,,,,,,,,,,,,,,,,,,,,,23490,2019_Sep_20_1352,Mmi_3levels,3.1.5,59.97904203699478,
,,,3,1,4.5,,,,,,,,,0,2,2,2,0,19,19,16,,,,,,,,,,,,,,,,,,,,,,,,,,,,,,,,,,,,,,,,,,,,,,,,,,,,,,,,,,,,,True,True,True,0.95,-0.050000000000000044,-1.3200000000000003,2.020000000000001,4.5,2.479999999999999,1.2399999999999995,gamble,win,4.5,33.242499999999936,998.2922145575612,None,998.2922145575612,None,998.2922145575612,None,998.2922145575612,None,998.2922145575612,None,998.2922145575612,None,998.2922145575612,None,1,1.3507941658135678,998.2922145575612,None,999.676047928333,None,999.676047928333,None,999.676047928333,None,999.676047928333,None,999.676047928333,None,999.676047928333,None,999.676047928333,None,1003.677579686966,None,1003.677579686966,None,1003.677579686966,None,1003.677579686966,None,1003.677579686966,None,1003.677579686966,None,1003.677579686966,None,1013.1645365398181,None,1004.661288392359,None,1005.6617530076801,None,0.94,7.50277393264696,1008.6628185510781,None,None,1008.6628185510781,None,,,,,,,,,,,,,,,,,,,23490,2019_Sep_20_1352,Mmi_3levels,3.1.5,59.97904203699478,
,,,3,1,-1.3,,,,,,,,,0,2,2,2,0,20,20,17,,,,,,,,,,,,,,,,,,,,,,,,,,,,,,,,,,,,,,,,,,,,,,,,,,,,,,,,,,,,,True,False,False,0.94,-0.06000000000000005,-1.3800000000000003,-0.32500000000000023,-1.3,-1.6250000000000002,-1.4625000000000001,gamble,lose,-1.6250000000000002,31.617499999999936,1015.203262162715,None,1015.203262162715,None,1015.203262162715,None,1015.203262162715,None,1015.203262162715,None,1015.203262162715,None,1015.203262162715,None,1,1.3961805548897246,1015.203262162715,None,1016.6325359996881,None,1016.6325359996881,None,1016.6325359996881,None,1016.6325359996881,None,1016.6325359996881,None,1016.6325359996881,None,1016.6325359996881,None,1020.6340949568767,None,1020.6340949568767,None,1020.6340949568767,None,1020.6340949568767,None,1020.6340949568767,None,1020.6340949568767,None,1020.6340949568767,None,1021.6178177415204,None,,,,,,,,,,,,,,,,,,,,,,,,,,,,,,23490,2019_Sep_20_1352,Mmi_3levels,3.1.5,59.97904203699478,
,,,3,1,8.5,,,,,,,,,0,2,2,2,0,21,21,14,,,,,,,,,,,,,,,,,,,,,,,,,,,,,,,,,,,,,,,,,,,,,,,,,,,,,,,,,,,,,True,True,False,0.94,-0.06000000000000005,-1.4400000000000004,2.280000000000001,8.5,6.219999999999999,3.1099999999999994,gamble,win,8.5,40.117499999999936,1023.635211377572,None,1023.635211377572,None,1023.635211377572,None,1023.635211377572,None,1023.635211377572,None,1023.635211377572,None,1023.635211377572,None,1,1.0006396460194082,1023.635211377572,None,1024.6689321463236,None,1024.6689321463236,None,1024.6689321463236,None,1024.6689321463236,None,1024.6689321463236,None,1024.6689321463236,None,1024.6689321463236,None,1028.653797910254,None,1028.653797910254,None,1028.653797910254,None,1028.653797910254,None,1028.653797910254,None,1028.653797910254,None,1028.653797910254,None,1029.6541761301633,None,,,,,,,,,,,,,,,,,,,,,,,,,,,,,,23490,2019_Sep_20_1352,Mmi_3levels,3.1.5,59.97904203699478,
,,,3,1,5.1,,,,,,,,,0,2,2,2,0,22,22,19,,,,,,,,,,,,,,,,,,,,,,,,,,,,,,,,,,,,,,,,,,,,,,,,,,,,,,,,,,,,,True,True,True,0.94,-0.06000000000000005,-1.5000000000000004,2.340000000000001,5.1,2.7599999999999985,1.3799999999999992,gamble,win,5.1,45.21749999999994,1031.6716600014188,None,1031.6716600014188,None,1031.6716600014188,None,1031.6716600014188,None,1031.6716600014188,None,1031.6716600014188,None,1031.6716600014188,None,1,1.0006527653240482,1031.6716600014188,None,1032.7053945294429,None,1032.7053945294429,None,1032.7053945294429,None,1032.7053945294429,None,1032.7053945294429,None,1032.7053945294429,None,1032.7053945294429,None,1036.6902234953268,None,1036.6902234953268,None,1036.6902234953268,None,1036.6902234953268,None,1036.6902234953268,None,1036.6902234953268,None,1036.6902234953268,None,1046.1938863407559,None,1037.6905857160855,None,1038.6909661758764,None,0.94,7.502868327632314,1041.6921142748906,None,None,1041.6921142748906,None,,,,,,,,,,,,,,,,,,,23490,2019_Sep_20_1352,Mmi_3levels,3.1.5,59.97904203699478,
,,,3,1,11.5,,,,,,,,,0,2,2,2,0,23,23,11,,,,,,,,,,,,,,,,,,,,,,,,,,,,,,,,,,,,,,,,,,,,,,,,,,,,,,,,,,,,,True,True,True,0.94,-0.06000000000000005,-1.5600000000000005,2.4000000000000012,11.5,9.099999999999998,4.549999999999999,gamble,win,11.5,56.71749999999994,1048.2113228545277,None,1048.2113228545277,None,1048.2113228545277,None,1048.2113228545277,None,1048.2113228545277,None,1048.2113228545277,None,1048.2113228545277,None,1,0.9005531226175663,1048.2113228545277,None,1049.1450140568522,None,1049.1450140568522,None,1049.1450140568522,None,1049.1450140568522,None,1049.1450140568522,None,1049.1450140568522,None,1049.1450140568522,None,1053.1298507023312,None,1053.1298507023312,None,1053.1298507023312,None,1053.1298507023312,None,1053.1298507023312,None,1053.1298507023312,None,1053.1298507023312,None,1054.1302497211327,None,,,,,,,,,,,,,,,,,,,,,,,,,,,,,,23490,2019_Sep_20_1352,Mmi_3levels,3.1.5,59.97904203699478,
,,,3,1,3.9,,,,,,,,,0,2,2,2,0,24,24,13,,,,,,,,,,,,,,,,,,,,,,,,,,,,,,,,,,,,,,,,,,,,,,,,,,,,,,,,,,,,,True,True,True,0.94,-0.06000000000000005,-1.6200000000000006,2.4600000000000013,3.9,1.4399999999999986,0.7199999999999993,gamble,win,3.9,60.617499999999936,1056.147690714668,None,1056.147690714668,None,1056.147690714668,None,1056.147690714668,None,1056.147690714668,None,1056.147690714668,None,1056.147690714668,None,1,1.2507367608632194,1056.147690714668,None,1057.4314631606758,None,1057.4314631606758,None,1057.4314631606758,None,1057.4314631606758,None,1057.4314631606758,None,1057.4314631606758,None,1057.4314631606758,None,1061.4163212450148,None,1061.4163212450148,None,1061.4163212450148,None,1061.4163212450148,None,1061.4163212450148,None,1061.4163212450148,None,1061.4163212450148,None,1070.9199546520067,None,1062.4167033047197,None,1063.4170869643385,None,0.92,7.502815210453264,1066.4182385831664,None,None,1066.4182385831664,None,,,,,,,,,,,,,,,,,,,23490,2019_Sep_20_1352,Mmi_3levels,3.1.5,59.97904203699478,
,,,3,1,5.7,,,,,,,,,0,2,2,2,0,25,25,3,,,,,,,,,,,,,,,,,,,,,,,,,,,,,,,,,,,,,,,,,,,,,,,,,,,,,,,,,,,,,True,True,True,0.92,-0.07999999999999996,-1.7000000000000006,2.8200000000000003,5.7,2.88,1.44,gamble,win,5.7,66.31749999999994,1072.9374513225848,None,1072.9374513225848,None,1072.9374513225848,None,1072.9374513225848,None,1072.9374513225848,None,1072.9374513225848,None,1072.9374513225848,None,1,1.0672793061239645,1072.9374513225848,None,1074.0378117514374,None,1074.0378117514374,None,1074.0378117514374,None,1074.0378117514374,None,1074.0378117514374,None,1074.0378117514374,None,1074.0378117514374,None,1078.0226698357765,None,1078.0226698357765,None,1078.0226698357765,None,1078.0226698357765,None,1078.0226698357765,None,1078.0226698357765,None,1078.0226698357765,None,1079.023055735277,None,,,,,,,,,,,,,,,,,,,,,,,,,,,,,,23490,2019_Sep_20_1352,Mmi_3levels,3.1.5,59.97904203699478,
,,,3,1,3.5,,,,,,,,,0,2,2,2,0,26,26,5,,,,,,,,,,,,,,,,,,,,,,,,,,,,,,,,,,,,,,,,,,,,,,,,,,,,,,,,,,,,,True,True,True,0.92,-0.07999999999999996,-1.7800000000000007,2.9000000000000004,3.5,0.5999999999999996,0.2999999999999998,gamble,win,3.5,69.81749999999994,1081.0405396065362,None,1081.0405396065362,None,1081.0405396065362,None,1081.0405396065362,None,1081.0405396065362,None,1081.0405396065362,None,1081.0405396065362,None,1,1.217366053515434,1081.0405396065362,None,1082.2909925424756,None,1082.2909925424756,None,1082.2909925424756,None,1082.2909925424756,None,1082.2909925424756,None,1082.2909925424756,None,1082.2909925424756,None,1086.2758279080226,None,1086.2758279080226,None,1086.2758279080226,None,1086.2758279080226,None,1086.2758279080226,None,1086.2758279080226,None,1086.2758279080226,None,1095.7795598697776,None,1087.2762093277597,None,1088.2765949072782,None,0.91,7.502840169127012,1091.277738206547,None,None,1091.277738206547,None,,,,,,,,,,,,,,,,,,,23490,2019_Sep_20_1352,Mmi_3levels,3.1.5,59.97904203699478,
,,,,,,,,,,,,,,,,,,,,,,,,,,,,,,0,0,0,0,,,,,,,,,,,,,,,,,,,,,,,,,,,,,,,,,,,,,,,,,,,,,,,,,,,,,,,,,,,,,,,,,,,,,,,,,,,,,,,,,,,,,,,,,,,,,,,,,,,,,,,,,,,,,,,,,,,,,,,,,,1097.7803006304312,None,4,3.9183995346174925,1097.7803006304312,None,69.81749999999994,3,1101.7317716882862,None,1101.7317716882862,None,1101.7317716882862,None,4,5.719235714197566,1101.7317716882862,None,23490,2019_Sep_20_1352,Mmi_3levels,3.1.5,59.97904203699478,
