currSlide,currImage,currText,blockNum,targetHappiness,highAmount,instructionLoop1.thisRepN,instructionLoop1.thisTrialN,instructionLoop1.thisN,instructionLoop1.thisIndex,instructionLoop2.thisRepN,instructionLoop2.thisTrialN,instructionLoop2.thisN,instructionLoop2.thisIndex,blockLoop.thisRepN,blockLoop.thisTrialN,blockLoop.thisN,blockLoop.thisIndex,trialLoop.thisRepN,trialLoop.thisTrialN,trialLoop.thisN,trialLoop.thisIndex,doRatingLoop.thisRepN,doRatingLoop.thisTrialN,doRatingLoop.thisN,doRatingLoop.thisIndex,trialHappyLoop.thisRepN,trialHappyLoop.thisTrialN,trialHappyLoop.thisN,trialHappyLoop.thisIndex,logWinningsLoop.thisRepN,logWinningsLoop.thisTrialN,logWinningsLoop.thisN,logWinningsLoop.thisIndex,instrImage.started,instrImage.stopped,instrText.started,instrText.stopped,instrContinueText.started,instrContinueText.stopped,instrKeyResp.keys,instrKeyResp.rt,instrKeyResp.started,instrKeyResp.stopped,lifeHappyText.started,lifeHappyText.stopped,lifeHappySlider.response,lifeHappySlider.rt,lifeHappySlider.started,lifeHappySlider.stopped,lifeHappyResp.keys,lifeHappyResp.started,lifeHappyResp.stopped,instrImage_2.started,instrImage_2.stopped,instrText_2.started,instrText_2.stopped,instrContinueText_2.started,instrContinueText_2.stopped,instrKeyResp_2.keys,instrKeyResp_2.rt,instrKeyResp_2.started,instrKeyResp_2.stopped,localizing.started,localizing.stopped,start_exp.keys,start_exp.rt,start_exp.started,start_exp.stopped,blockHappyText.started,blockHappyText.stopped,blockHappySlider.response,blockHappySlider.rt,blockHappySlider.started,blockHappySlider.stopped,blockHappyResp.keys,blockHappyResp.rt,blockHappyResp.started,blockHappyResp.stopped,blankText.started,blankText.stopped,isHappyBlock,isCongruent,isWinOnTop,lastHappyRating,diff,sumDiff,RPE,winAmount,loseAmount,certainAmount,choice,outcome,outcomeAmount,currentWinnings,fixCross.started,fixCross.stopped,certainBox.started,certainBox.stopped,outcome1Box.started,outcome1Box.stopped,outcome2Box.started,outcome2Box.stopped,certainText.started,certainText.stopped,outcome1Text.started,outcome1Text.stopped,outcome2Text.started,outcome2Text.stopped,choiceKey.keys,choiceKey.started,choiceKey.stopped,fixCross_2.started,fixCross_2.stopped,certainBox_2.started,certainBox_2.stopped,outcome1Box_2.started,outcome1Box_2.stopped,outcome2Box_2.started,outcome2Box_2.stopped,certainText_2.started,certainText_2.stopped,outcome1Text_2.started,outcome1Text_2.stopped,outcome2Text_2.started,outcome2Text_2.stopped,fixCross_3.started,fixCross_3.stopped,certainBox_3.started,certainBox_3.stopped,outcome1Box_3.started,outcome1Box_3.stopped,outcome2Box_3.started,outcome2Box_3.stopped,certainText_3.started,certainText_3.stopped,outcome1Text_3.started,outcome1Text_3.stopped,outcome2Text_3.started,outcome2Text_3.stopped,fixCross_ITI.started,fixCross_ITI.stopped,choiceKey.rt,fixCross_ISI.started,fixCross_ISI.stopped,happyText.started,happyText.stopped,happySlider.response,happySlider.rt,happySlider.started,happySlider.stopped,happyResp.keys,happyResp.started,happyResp.stopped,endOfBlockText.started,endOfBlockText.stopped,restKeyResp.keys,restKeyResp.rt,restKeyResp.started,restKeyResp.stopped,finalWinnings,cashBonus,goodbyeText.started,goodbyeText.stopped,finalWinningsText.started,finalWinningsText.stopped,spaceToContinue.started,spaceToContinue.stopped,goodbyeKeyResp_2.keys,goodbyeKeyResp_2.rt,goodbyeKeyResp_2.started,goodbyeKeyResp_2.stopped,participant,date,expName,psychopyVersion,frameRate,
1,black.png,"Welcome! You are about to play our gambling task.
This task has 3 blocks and takes about 15 minutes.",,,,0,0,0,0,,,,,,,,,,,,,,,,,,,,,,,,,17.48995886911871,None,17.48995886911871,None,17.48995886911871,None,4,59.34004171326524,17.48995886911871,None,,,,,,,,,,,,,,,,,,,,,,,,,,,,,,,,,,,,,,,,,,,,,,,,,,,,,,,,,,,,,,,,,,,,,,,,,,,,,,,,,,,,,,,,,,,,,,,,,,,,,,,,,,,,,,,,,,,,,,,,,,,,,,,,,22694,2019_Oct_07_1051,Mmi_3levels,3.1.5,59.99523899930179,
2,black.png,"In this game, you may win or lose points. Your goal is to get as many points as possible. These points will be converted to a cash bonus at the end.
Sometimes we will ask you to rate your mood.",,,,0,1,1,1,,,,,,,,,,,,,,,,,,,,,,,,,76.8797045001993,None,76.8797045001993,None,76.8797045001993,None,4,6.853039825975429,76.8797045001993,None,,,,,,,,,,,,,,,,,,,,,,,,,,,,,,,,,,,,,,,,,,,,,,,,,,,,,,,,,,,,,,,,,,,,,,,,,,,,,,,,,,,,,,,,,,,,,,,,,,,,,,,,,,,,,,,,,,,,,,,,,,,,,,,,,22694,2019_Oct_07_1051,Mmi_3levels,3.1.5,59.99523899930179,
3,black.png,"On the next screen, please rate how you feel about your life these days. Use the LEFT (green) and RIGHT (blue) buttons to move the slider (you can press and hold them to slide gradually) and the TOP (red) button to lock in your response.
Make your rating as accurately and quickly as you can!",,,,0,2,2,2,,,,,,,,,,,,,,,,,,,,,,,,,83.79906026789104,None,83.79906026789104,None,83.79906026789104,None,4,19.340907272824552,83.79906026789104,None,,,,,,,,,,,,,,,,,,,,,,,,,,,,,,,,,,,,,,,,,,,,,,,,,,,,,,,,,,,,,,,,,,,,,,,,,,,,,,,,,,,,,,,,,,,,,,,,,,,,,,,,,,,,,,,,,,,,,,,,,,,,,,,,,22694,2019_Oct_07_1051,Mmi_3levels,3.1.5,59.99523899930179,
,,,,,,,,,,,,,,,,,,,,,,,,,,,,,,,,,,,,,,,,,,,,103.1564538104576,None,1.0,10.503140653279843,107.15805885547888,None,None,107.15805885547888,None,,,,,,,,,,,,,,,,,,,,,,,,,,,,,,,,,,,,,,,,,,,,,,,,,,,,,,,,,,,,,,,,,,,,,,,,,,,,,,,,,,,,,,,,,,,,,,,,,,,,,,,,,,,,,,,,,,,,,,,,22694,2019_Oct_07_1051,Mmi_3levels,3.1.5,59.99523899930179,
4,black.png,"In this game you can win money by earning points according to your choices. You will decide whether to gamble a number of points or stick with a guaranteed number of points. 
Make your choice by pressing the left or right arrow key once. An example of one trial is shown on the next screen.",,,,,,,,0,0,0,0,,,,,,,,,,,,,,,,,,,,,,,,,,,,,,,,,,,,,,,,113.71068007702706,None,113.71068007702706,None,113.71068007702706,None,4,9.053730289713712,113.71068007702706,None,,,,,,,,,,,,,,,,,,,,,,,,,,,,,,,,,,,,,,,,,,,,,,,,,,,,,,,,,,,,,,,,,,,,,,,,,,,,,,,,,,,,,,,,,,,,,,,,,,,,,,,,,,,,,,22694,2019_Oct_07_1051,Mmi_3levels,3.1.5,59.99523899930179,
5,example_start.png,"The GAMBLING OPTION will be shown on the RIGHT SIDE. 
Select this option using the RIGHT (blue) button on your keypad.",,,,,,,,0,1,1,1,,,,,,,,,,,,,,,,,,,,,,,,,,,,,,,,,,,,,,,,122.83081558428239,None,122.83081558428239,None,122.83081558428239,None,4,8.053407104831422,122.83081558428239,None,,,,,,,,,,,,,,,,,,,,,,,,,,,,,,,,,,,,,,,,,,,,,,,,,,,,,,,,,,,,,,,,,,,,,,,,,,,,,,,,,,,,,,,,,,,,,,,,,,,,,,,,,,,,,,22694,2019_Oct_07_1051,Mmi_3levels,3.1.5,59.99523899930179,
6,example_gamble.png,"Once you select the gambling choice, the choice you made will remain on the screen.",,,,,,,,0,2,2,2,,,,,,,,,,,,,,,,,,,,,,,,,,,,,,,,,,,,,,,,130.91728514441638,None,130.91728514441638,None,130.91728514441638,None,4,2.317949945369037,130.91728514441638,None,,,,,,,,,,,,,,,,,,,,,,,,,,,,,,,,,,,,,,,,,,,,,,,,,,,,,,,,,,,,,,,,,,,,,,,,,,,,,,,,,,,,,,,,,,,,,,,,,,,,,,,,,,,,,,22694,2019_Oct_07_1051,Mmi_3levels,3.1.5,59.99523899930179,
7,example_win.png,"The outcome you received will then be shown on the screen. In this example , you WON 10 points.",,,,,,,,0,3,3,3,,,,,,,,,,,,,,,,,,,,,,,,,,,,,,,,,,,,,,,,133.28486541108578,None,133.28486541108578,None,133.28486541108578,None,4,5.535599296796136,133.28486541108578,None,,,,,,,,,,,,,,,,,,,,,,,,,,,,,,,,,,,,,,,,,,,,,,,,,,,,,,,,,,,,,,,,,,,,,,,,,,,,,,,,,,,,,,,,,,,,,,,,,,,,,,,,,,,,,,22694,2019_Oct_07_1051,Mmi_3levels,3.1.5,59.99523899930179,
8,example_start.png,"The GUARANTEED OPTION will be shown on the LEFT SIDE. You are 100% guaranteed to gain or lose this amount. In this example, you have a 100% chance of winning 1 point. Select this option using the LEFT (green) button on your keyboard.",,,,,,,,0,4,4,4,,,,,,,,,,,,,,,,,,,,,,,,,,,,,,,,,,,,,,,,138.88702703808667,None,138.88702703808667,None,138.88702703808667,None,4,2.901476603001356,138.88702703808667,None,,,,,,,,,,,,,,,,,,,,,,,,,,,,,,,,,,,,,,,,,,,,,,,,,,,,,,,,,,,,,,,,,,,,,,,,,,,,,,,,,,,,,,,,,,,,,,,,,,,,,,,,,,,,,,22694,2019_Oct_07_1051,Mmi_3levels,3.1.5,59.99523899930179,
9,example_certain.png,"Once you select the guaranteed choice, your selection will remain on the screen.",,,,,,,,0,5,5,5,,,,,,,,,,,,,,,,,,,,,,,,,,,,,,,,,,,,,,,,141.8215100990492,None,141.8215100990492,None,141.8215100990492,None,4,3.0346531010000035,141.8215100990492,None,,,,,,,,,,,,,,,,,,,,,,,,,,,,,,,,,,,,,,,,,,,,,,,,,,,,,,,,,,,,,,,,,,,,,,,,,,,,,,,,,,,,,,,,,,,,,,,,,,,,,,,,,,,,,,22694,2019_Oct_07_1051,Mmi_3levels,3.1.5,59.99523899930179,
10,black.png,"Please make your choices as fast as possible.
You will be given a break at the end of each block.
Let's play!",,,,,,,,0,6,6,6,,,,,,,,,,,,,,,,,,,,,,,,,,,,,,,,,,,,,,,,144.8894115666917,None,144.8894115666917,None,144.8894115666917,None,4,3.55169134499738,144.8894115666917,None,,,,,,,,,,,,,,,,,,,,,,,,,,,,,,,,,,,,,,,,,,,,,,,,,,,,,,,,,,,,,,,,,,,,,,,,,,,,,,,,,,,,,,,,,,,,,,,,,,,,,,,,,,,,,,22694,2019_Oct_07_1051,Mmi_3levels,3.1.5,59.99523899930179,
,,,,,,,,,,,,,,,,,,,,,,,,,,,,,,,,,,,,,,,,,,,,,,,,,,,,,,,,,,,,,,,148.45749926561257,None,space,25.043315736285876,148.45749926561257,None,,,,,,,,,,,,,,,,,,,,,,,,,,,,,,,,,,,,,,,,,,,,,,,,,,,,,,,,,,,,,,,,,,,,,,,,,,,,,,,,,,,,,,,,,,,,,,,,,,,,,,,,22694,2019_Oct_07_1051,Mmi_3levels,3.1.5,59.99523899930179,
,,,1,1,3.7,,,,,,,,,0,0,0,0,0,0,0,21,,,,,,,,,,,,,,,,,,,,,,,,,,,,,,,,,,,,,,,,,,,,,,,,173.51720911599114,None,0.95,6.512198470096337,176.53502716351068,None,4,3.4850135001761373,176.53502716351068,None,180.0363567013992,None,True,True,True,0.95,-0.050000000000000044,-0.050000000000000044,0.7500000000000007,3.7,2.9499999999999993,1.4749999999999996,gamble,win,3.7,3.7,183.07085524962167,None,183.07085524962167,None,183.07085524962167,None,183.07085524962167,None,183.07085524962167,None,183.07085524962167,None,183.07085524962167,None,None,183.07085524962167,None,186.07207055285107,None,186.07207055285107,None,186.07207055285107,None,186.07207055285107,None,186.07207055285107,None,186.07207055285107,None,186.07207055285107,None,190.07358408215805,None,190.07358408215805,None,190.07358408215805,None,190.07358408215805,None,190.07358408215805,None,190.07358408215805,None,190.07358408215805,None,191.05730996245984,None,,,,,,,,,,,,,,,,,,,,,,,,,,,,,,,22694,2019_Oct_07_1051,Mmi_3levels,3.1.5,59.99523899930179,
,,,1,1,4.1,,,,,,,,,0,0,0,0,0,1,1,14,,,,,,,,,,,,,,,,,,,,,,,,,,,,,,,,,,,,,,,,,,,,,,,,,,,,,,,,,,,,True,True,True,0.95,-0.050000000000000044,-0.10000000000000009,0.8000000000000007,4.1,3.299999999999999,1.6499999999999995,gamble,win,4.1,7.8,193.07477250663214,None,193.07477250663214,None,193.07477250663214,None,193.07477250663214,None,193.07477250663214,None,193.07477250663214,None,193.07477250663214,None,1,193.07477250663214,None,194.74212852775236,None,194.74212852775236,None,194.74212852775236,None,194.74212852775236,None,194.74212852775236,None,194.74212852775236,None,194.74212852775236,None,198.74367789537064,None,198.74367789537064,None,198.74367789537064,None,198.74367789537064,None,198.74367789537064,None,198.74367789537064,None,198.74367789537064,None,199.72731673976523,None,1.6344042806595098,,,,,,,,,,,,,,,,,,,,,,,,,,,,,,22694,2019_Oct_07_1051,Mmi_3levels,3.1.5,59.99523899930179,
,,,1,1,2.5,,,,,,,,,0,0,0,0,0,2,2,1,,,,,,,,,,,,,,,,,,,,,,,,,,,,,,,,,,,,,,,,,,,,,,,,,,,,,,,,,,,,True,True,False,0.95,-0.050000000000000044,-0.15000000000000013,0.8500000000000008,2.5,1.6499999999999992,0.8249999999999996,gamble,win,2.5,10.3,201.74476488458458,None,201.74476488458458,None,201.74476488458458,None,201.74476488458458,None,201.74476488458458,None,201.74476488458458,None,201.74476488458458,None,1,201.74476488458458,None,203.9790345795045,None,203.9790345795045,None,203.9790345795045,None,203.9790345795045,None,203.9790345795045,None,203.9790345795045,None,203.9790345795045,None,207.98060282622464,None,207.98060282622464,None,207.98060282622464,None,207.98060282622464,None,207.98060282622464,None,207.98060282622464,None,207.98060282622464,None,217.46757367494865,None,2.201291395642329,208.96426438956405,None,209.96462341278675,None,0.95,7.502846906980267,212.96578815835528,None,None,212.96578815835528,None,,,,,,,,,,,,,,,,,,,22694,2019_Oct_07_1051,Mmi_3levels,3.1.5,59.99523899930179,
,,,1,1,-1.1,,,,,,,,,0,0,0,0,0,3,3,6,,,,,,,,,,,,,,,,,,,,,,,,,,,,,,,,,,,,,,,,,,,,,,,,,,,,,,,,,,,,True,True,False,0.95,-0.050000000000000044,-0.20000000000000018,0.9000000000000008,-1.1,-2.000000000000001,-1.5500000000000005,gamble,win,-1.1,9.200000000000001,219.4849347838317,None,219.4849347838317,None,219.4849347838317,None,219.4849347838317,None,219.4849347838317,None,219.4849347838317,None,219.4849347838317,None,None,219.4849347838317,None,222.48615136698936,None,222.48615136698936,None,222.48615136698936,None,222.48615136698936,None,222.48615136698936,None,222.48615136698936,None,222.48615136698936,None,226.4877733712201,None,226.4877733712201,None,226.4877733712201,None,226.4877733712201,None,226.4877733712201,None,226.4877733712201,None,226.4877733712201,None,227.47147205282818,None,,,,,,,,,,,,,,,,,,,,,,,,,,,,,,,22694,2019_Oct_07_1051,Mmi_3levels,3.1.5,59.99523899930179,
,,,1,1,5.1,,,,,,,,,0,0,0,0,0,4,4,0,,,,,,,,,,,,,,,,,,,,,,,,,,,,,,,,,,,,,,,,,,,,,,,,,,,,,,,,,,,,True,True,False,0.95,-0.050000000000000044,-0.2500000000000002,0.9500000000000008,5.1,4.149999999999999,2.0749999999999993,gamble,win,5.1,14.3,229.4888769996469,None,229.4888769996469,None,229.4888769996469,None,229.4888769996469,None,229.4888769996469,None,229.4888769996469,None,229.4888769996469,None,1,229.4888769996469,None,230.95615340850782,None,230.95615340850782,None,230.95615340850782,None,230.95615340850782,None,230.95615340850782,None,230.95615340850782,None,230.95615340850782,None,234.9576781372598,None,234.9576781372598,None,234.9576781372598,None,234.9576781372598,None,234.9576781372598,None,234.9576781372598,None,234.9576781372598,None,244.44473282207036,None,1.43432850818499,235.9413979378878,None,236.94176944051287,None,0.9,7.502951542090159,239.94293066626415,None,None,239.94293066626415,None,,,,,,,,,,,,,,,,,,,22694,2019_Oct_07_1051,Mmi_3levels,3.1.5,59.99523899930179,
,,,1,1,3.3,,,,,,,,,0,0,0,0,0,5,5,3,,,,,,,,,,,,,,,,,,,,,,,,,,,,,,,,,,,,,,,,,,,,,,,,,,,,,,,,,,,,True,True,True,0.9,-0.09999999999999998,-0.3500000000000002,1.75,3.3,1.5499999999999998,0.7749999999999999,gamble,win,3.3,17.6,246.4621780870366,None,246.4621780870366,None,246.4621780870366,None,246.4621780870366,None,246.4621780870366,None,246.4621780870366,None,246.4621780870366,None,1,246.4621780870366,None,247.89602629764704,None,247.89602629764704,None,247.89602629764704,None,247.89602629764704,None,247.89602629764704,None,247.89602629764704,None,247.89602629764704,None,251.89761918323347,None,251.89761918323347,None,251.89761918323347,None,251.89761918323347,None,251.89761918323347,None,251.89761918323347,None,251.89761918323347,None,252.88136842247332,None,1.4009687867364846,,,,,,,,,,,,,,,,,,,,,,,,,,,,,,22694,2019_Oct_07_1051,Mmi_3levels,3.1.5,59.99523899930179,
,,,1,1,13.5,,,,,,,,,0,0,0,0,0,6,6,22,,,,,,,,,,,,,,,,,,,,,,,,,,,,,,,,,,,,,,,,,,,,,,,,,,,,,,,,,,,,True,False,True,0.9,-0.09999999999999998,-0.4500000000000002,-0.38749999999999996,13.5,13.1125,6.55625,gamble,lose,13.1125,30.712500000000002,254.898779449024,None,254.898779449024,None,254.898779449024,None,254.898779449024,None,254.898779449024,None,254.898779449024,None,254.898779449024,None,1,254.898779449024,None,256.4493982041022,None,256.4493982041022,None,256.4493982041022,None,256.4493982041022,None,256.4493982041022,None,256.4493982041022,None,256.4493982041022,None,260.4509059736738,None,260.4509059736738,None,260.4509059736738,None,260.4509059736738,None,260.4509059736738,None,260.4509059736738,None,260.4509059736738,None,261.434554097621,None,1.517603977554245,,,,,,,,,,,,,,,,,,,,,,,,,,,,,,22694,2019_Oct_07_1051,Mmi_3levels,3.1.5,59.99523899930179,
,,,1,1,13.1,,,,,,,,,0,0,0,0,0,7,7,11,,,,,,,,,,,,,,,,,,,,,,,,,,,,,,,,,,,,,,,,,,,,,,,,,,,,,,,,,,,,True,True,True,0.9,-0.09999999999999998,-0.5500000000000002,1.9499999999999997,13.1,11.15,5.575,gamble,win,13.1,43.8125,263.45210015788325,None,263.45210015788325,None,263.45210015788325,None,263.45210015788325,None,263.45210015788325,None,263.45210015788325,None,263.45210015788325,None,1,263.45210015788325,None,265.136040684185,None,265.136040684185,None,265.136040684185,None,265.136040684185,None,265.136040684185,None,265.136040684185,None,265.136040684185,None,269.13760029131663,None,269.13760029131663,None,269.13760029131663,None,269.13760029131663,None,269.13760029131663,None,269.13760029131663,None,269.13760029131663,None,278.62462457752554,None,1.6510150245740078,270.12137128951144,None,271.12175239171484,None,0.93,7.502792189538013,274.12289441836765,None,None,274.12289441836765,None,,,,,,,,,,,,,,,,,,,22694,2019_Oct_07_1051,Mmi_3levels,3.1.5,59.99523899930179,
,,,1,1,13.3,,,,,,,,,0,0,0,0,0,8,8,23,,,,,,,,,,,,,,,,,,,,,,,,,,,,,,,,,,,,,,,,,,,,,,,,,,,,,,,,,,,,True,True,True,0.93,-0.06999999999999995,-0.6200000000000001,1.5999999999999994,13.3,11.700000000000001,5.8500000000000005,gamble,win,13.3,57.1125,280.6420413638116,None,280.6420413638116,None,280.6420413638116,None,280.6420413638116,None,280.6420413638116,None,280.6420413638116,None,280.6420413638116,None,1,280.6420413638116,None,282.44275915427716,None,282.44275915427716,None,282.44275915427716,None,282.44275915427716,None,282.44275915427716,None,282.44275915427716,None,282.44275915427716,None,286.444381798472,None,286.444381798472,None,286.444381798472,None,286.444381798472,None,286.444381798472,None,286.444381798472,None,286.444381798472,None,287.4280315223732,None,1.7678377266274765,,,,,,,,,,,,,,,,,,,,,,,,,,,,,,22694,2019_Oct_07_1051,Mmi_3levels,3.1.5,59.99523899930179,
,,,1,1,-0.9,,,,,,,,,0,0,0,0,0,9,9,18,,,,,,,,,,,,,,,,,,,,,,,,,,,,,,,,,,,,,,,,,,,,,,,,,,,,,,,,,,,,True,False,False,0.93,-0.06999999999999995,-0.6900000000000001,-0.3024999999999998,-0.9,-1.2025,-1.05125,certain,certain,-1.05125,56.061249999999994,289.44548382697394,None,289.44548382697394,None,289.44548382697394,None,289.44548382697394,None,289.44548382697394,None,289.44548382697394,None,289.44548382697394,None,3,289.44548382697394,None,291.77976484937244,None,291.77976484937244,None,291.77976484937244,None,291.77976484937244,None,291.77976484937244,None,291.77976484937244,None,291.77976484937244,None,295.7813074972946,None,295.7813074972946,None,295.7813074972946,None,295.7813074972946,None,295.7813074972946,None,295.7813074972946,None,295.7813074972946,None,305.26830106496345,None,2.3013315217976924,296.76504105728236,None,297.76543559884885,None,0.92,7.502896184683777,300.76658146531554,None,None,300.76658146531554,None,,,,,,,,,,,,,,,,,,,22694,2019_Oct_07_1051,Mmi_3levels,3.1.5,59.99523899930179,
,,,1,1,9.9,,,,,,,,,0,0,0,0,0,10,10,13,,,,,,,,,,,,,,,,,,,,,,,,,,,,,,,,,,,,,,,,,,,,,,,,,,,,,,,,,,,,True,True,False,0.92,-0.07999999999999996,-0.77,1.8899999999999995,9.9,8.010000000000002,4.005000000000001,gamble,win,9.9,65.96124999999999,307.2857306506485,None,307.2857306506485,None,307.2857306506485,None,307.2857306506485,None,307.2857306506485,None,307.2857306506485,None,307.2857306506485,None,1,307.2857306506485,None,308.71965277782874,None,308.71965277782874,None,308.71965277782874,None,308.71965277782874,None,308.71965277782874,None,308.71965277782874,None,308.71965277782874,None,312.7212287041766,None,312.7212287041766,None,312.7212287041766,None,312.7212287041766,None,312.7212287041766,None,312.7212287041766,None,312.7212287041766,None,313.70493954521953,None,1.4009556673408952,,,,,,,,,,,,,,,,,,,,,,,,,,,,,,22694,2019_Oct_07_1051,Mmi_3levels,3.1.5,59.99523899930179,
,,,1,1,12.7,,,,,,,,,0,0,0,0,0,11,11,7,,,,,,,,,,,,,,,,,,,,,,,,,,,,,,,,,,,,,,,,,,,,,,,,,,,,,,,,,,,,True,True,True,0.92,-0.07999999999999996,-0.85,1.9699999999999993,12.7,10.73,5.365,gamble,win,12.7,78.66125,315.72235089176684,None,315.72235089176684,None,315.72235089176684,None,315.72235089176684,None,315.72235089176684,None,315.72235089176684,None,315.72235089176684,None,1,315.72235089176684,None,317.0062237092061,None,317.0062237092061,None,317.0062237092061,None,317.0062237092061,None,317.0062237092061,None,317.0062237092061,None,317.0062237092061,None,321.00780859516817,None,321.00780859516817,None,321.00780859516817,None,321.00780859516817,None,321.00780859516817,None,321.00780859516817,None,321.00780859516817,None,330.49475864486885,None,1.2509073175897356,321.99146087892586,None,322.99187493958743,None,0.94,7.502876345592085,325.9929984071059,None,None,325.9929984071059,None,,,,,,,,,,,,,,,,,,,22694,2019_Oct_07_1051,Mmi_3levels,3.1.5,59.99523899930179,
,,,1,1,10.1,,,,,,,,,0,0,0,0,0,12,12,9,,,,,,,,,,,,,,,,,,,,,,,,,,,,,,,,,,,,,,,,,,,,,,,,,,,,,,,,,,,,True,True,True,0.94,-0.06000000000000005,-0.91,1.7500000000000009,10.1,8.349999999999998,4.174999999999999,gamble,win,10.1,88.76124999999999,332.51219207036775,None,332.51219207036775,None,332.51219207036775,None,332.51219207036775,None,332.51219207036775,None,332.51219207036775,None,332.51219207036775,None,1,332.51219207036775,None,333.6960439608083,None,333.6960439608083,None,333.6960439608083,None,333.6960439608083,None,333.6960439608083,None,333.6960439608083,None,333.6960439608083,None,337.6975930084591,None,337.6975930084591,None,337.6975930084591,None,337.6975930084591,None,337.6975930084591,None,337.6975930084591,None,337.6975930084591,None,338.73134407159523,None,1.1508595118357334,,,,,,,,,,,,,,,,,,,,,,,,,,,,,,22694,2019_Oct_07_1051,Mmi_3levels,3.1.5,59.99523899930179,
,,,1,1,5.3,,,,,,,,,0,0,0,0,0,13,13,12,,,,,,,,,,,,,,,,,,,,,,,,,,,,,,,,,,,,,,,,,,,,,,,,,,,,,,,,,,,,True,True,True,0.94,-0.06000000000000005,-0.9700000000000001,1.810000000000001,5.3,3.489999999999999,1.7449999999999994,gamble,win,5.3,94.06124999999999,340.748729499348,None,340.748729499348,None,340.748729499348,None,340.748729499348,None,340.748729499348,None,340.748729499348,None,340.748729499348,None,1,340.748729499348,None,341.8991208730731,None,341.8991208730731,None,341.8991208730731,None,341.8991208730731,None,341.8991208730731,None,341.8991208730731,None,341.8991208730731,None,345.8840278182179,None,345.8840278182179,None,345.8840278182179,None,345.8840278182179,None,345.8840278182179,None,345.8840278182179,None,345.8840278182179,None,346.88451579542016,None,1.1174082747020293,,,,,,,,,,,,,,,,,,,,,,,,,,,,,,22694,2019_Oct_07_1051,Mmi_3levels,3.1.5,59.99523899930179,
,,,1,1,4.7,,,,,,,,,0,0,0,0,0,14,14,4,,,,,,,,,,,,,,,,,,,,,,,,,,,,,,,,,,,,,,,,,,,,,,,,,,,,,,,,,,,,True,True,True,0.94,-0.06000000000000005,-1.0300000000000002,1.870000000000001,4.7,2.829999999999999,1.4149999999999996,gamble,win,4.7,98.76124999999999,348.90189130362705,None,348.90189130362705,None,348.90189130362705,None,348.90189130362705,None,348.90189130362705,None,348.90189130362705,None,348.90189130362705,None,1,348.90189130362705,None,350.7026490922144,None,350.7026490922144,None,350.7026490922144,None,350.7026490922144,None,350.7026490922144,None,350.7026490922144,None,350.7026490922144,None,354.70414790220093,None,354.70414790220093,None,354.70414790220093,None,354.70414790220093,None,354.70414790220093,None,354.70414790220093,None,354.70414790220093,None,364.19118818768766,None,1.7677785294072237,355.68793265978456,None,356.6882545647386,None,1.0,7.502908664086135,359.6894093907904,None,None,359.6894093907904,None,,,,,,,,,,,,,,,,,,,22694,2019_Oct_07_1051,Mmi_3levels,3.1.5,59.99523899930179,
,,,1,1,1.3,,,,,,,,,0,0,0,0,0,15,15,19,,,,,,,,,,,,,,,,,,,,,,,,,,,,,,,,,,,,,,,,,,,,,,,,,,,,,,,,,,,,True,True,False,1.0,0.0,-1.0300000000000002,1.0300000000000002,1.3,0.2699999999999998,0.7849999999999999,certain,certain,0.7849999999999999,99.54624999999999,366.20865041183424,None,366.20865041183424,None,366.20865041183424,None,366.20865041183424,None,366.20865041183424,None,366.20865041183424,None,366.20865041183424,None,3,366.20865041183424,None,369.1431273930939,None,369.1431273930939,None,369.1431273930939,None,369.1431273930939,None,369.1431273930939,None,369.1431273930939,None,369.1431273930939,None,373.1446668411663,None,373.1446668411663,None,373.1446668411663,None,373.1446668411663,None,373.1446668411663,None,373.1446668411663,None,373.1446668411663,None,374.12839752127184,None,2.9014999619103037,,,,,,,,,,,,,,,,,,,,,,,,,,,,,,22694,2019_Oct_07_1051,Mmi_3levels,3.1.5,59.99523899930179,
,,,1,1,0.9,,,,,,,,,0,0,0,0,0,16,16,24,,,,,,,,,,,,,,,,,,,,,,,,,,,,,,,,,,,,,,,,,,,,,,,,,,,,,,,,,,,,True,True,True,1.0,0.0,-1.0300000000000002,1.0300000000000002,0.9,-0.13000000000000023,0.3849999999999999,certain,certain,0.3849999999999999,99.93124999999999,376.1458063079335,None,376.1458063079335,None,376.1458063079335,None,376.1458063079335,None,376.1458063079335,None,376.1458063079335,None,376.1458063079335,None,3,376.1458063079335,None,378.39667554732296,None,378.39667554732296,None,378.39667554732296,None,378.39667554732296,None,378.39667554732296,None,378.39667554732296,None,378.39667554732296,None,382.39825179366744,None,382.39825179366744,None,382.39825179366744,None,382.39825179366744,None,382.39825179366744,None,382.39825179366744,None,382.39825179366744,None,391.8852632804774,None,2.2179450176190585,383.3819767140376,None,384.38236645582947,None,0.96,7.502996979979798,387.3835312014271,None,None,387.3835312014271,None,,,,,,,,,,,,,,,,,,,22694,2019_Oct_07_1051,Mmi_3levels,3.1.5,59.99523899930179,
,,,1,1,1.7,,,,,,,,,0,0,0,0,0,17,17,25,,,,,,,,,,,,,,,,,,,,,,,,,,,,,,,,,,,,,,,,,,,,,,,,,,,,,,,,,,,,True,True,True,0.96,-0.040000000000000036,-1.0700000000000003,1.6300000000000008,1.7,0.06999999999999917,0.8849999999999996,gamble,win,1.7,101.63125,393.90269190623076,None,393.90269190623076,None,393.90269190623076,None,393.90269190623076,None,393.90269190623076,None,393.90269190623076,None,393.90269190623076,None,None,393.90269190623076,None,396.90394240780734,None,396.90394240780734,None,396.90394240780734,None,396.90394240780734,None,396.90394240780734,None,396.90394240780734,None,396.90394240780734,None,400.905448577425,None,400.905448577425,None,400.905448577425,None,400.905448577425,None,400.905448577425,None,400.905448577425,None,400.905448577425,None,401.8891642182425,None,,,,,,,,,,,,,,,,,,,,,,,,,,,,,,,22694,2019_Oct_07_1051,Mmi_3levels,3.1.5,59.99523899930179,
,,,1,1,5.9,,,,,,,,,0,0,0,0,0,18,18,26,,,,,,,,,,,,,,,,,,,,,,,,,,,,,,,,,,,,,,,,,,,,,,,,,,,,,,,,,,,,True,False,True,0.96,-0.040000000000000036,-1.1100000000000003,-0.23250000000000015,5.9,5.6675,2.83375,gamble,lose,5.6675,107.29875,403.9066325221211,None,403.9066325221211,None,403.9066325221211,None,403.9066325221211,None,403.9066325221211,None,403.9066325221211,None,403.9066325221211,None,1,403.9066325221211,None,405.307169969019,None,405.307169969019,None,405.307169969019,None,405.307169969019,None,405.307169969019,None,405.307169969019,None,405.307169969019,None,409.30872541634017,None,409.30872541634017,None,409.30872541634017,None,409.30872541634017,None,409.30872541634017,None,409.30872541634017,None,409.30872541634017,None,410.2924298576545,None,1.3676001057319809,,,,,,,,,,,,,,,,,,,,,,,,,,,,,,22694,2019_Oct_07_1051,Mmi_3levels,3.1.5,59.99523899930179,
,,,1,1,-0.5,,,,,,,,,0,0,0,0,0,19,19,16,,,,,,,,,,,,,,,,,,,,,,,,,,,,,,,,,,,,,,,,,,,,,,,,,,,,,,,,,,,,True,True,False,0.96,-0.040000000000000036,-1.1500000000000004,1.7100000000000009,-0.5,-2.210000000000001,-1.3550000000000004,gamble,win,-0.5,106.79875,412.3098325646133,None,412.3098325646133,None,412.3098325646133,None,412.3098325646133,None,412.3098325646133,None,412.3098325646133,None,412.3098325646133,None,None,412.3098325646133,None,415.3109982701426,None,415.3109982701426,None,415.3109982701426,None,415.3109982701426,None,415.3109982701426,None,415.3109982701426,None,415.3109982701426,None,419.3126151546021,None,419.3126151546021,None,419.3126151546021,None,419.3126151546021,None,419.3126151546021,None,419.3126151546021,None,419.3126151546021,None,428.81626234421856,None,,420.29624823926133,None,421.2966018227453,None,0.9,7.519766116514802,424.2978596839821,None,None,424.2978596839821,None,,,,,,,,,,,,,,,,,,,22694,2019_Oct_07_1051,Mmi_3levels,3.1.5,59.99523899930179,
,,,1,1,9.3,,,,,,,,,0,0,0,0,0,20,20,8,,,,,,,,,,,,,,,,,,,,,,,,,,,,,,,,,,,,,,,,,,,,,,,,,,,,,,,,,,,,True,False,True,0.9,-0.09999999999999998,-1.2500000000000004,-0.4541666666666666,9.3,8.845833333333335,4.4229166666666675,gamble,lose,8.845833333333335,115.64458333333333,430.8337392876856,None,430.8337392876856,None,430.8337392876856,None,430.8337392876856,None,430.8337392876856,None,430.8337392876856,None,430.8337392876856,None,1,430.8337392876856,None,432.1009101654636,None,432.1009101654636,None,432.1009101654636,None,432.1009101654636,None,432.1009101654636,None,432.1009101654636,None,432.1009101654636,None,436.1024153751496,None,436.1024153751496,None,436.1024153751496,None,436.1024153751496,None,436.1024153751496,None,436.1024153751496,None,436.1024153751496,None,437.08616557435016,None,1.2341618599602953,,,,,,,,,,,,,,,,,,,,,,,,,,,,,,22694,2019_Oct_07_1051,Mmi_3levels,3.1.5,59.99523899930179,
,,,1,1,2.1,,,,,,,,,0,0,0,0,0,21,21,5,,,,,,,,,,,,,,,,,,,,,,,,,,,,,,,,,,,,,,,,,,,,,,,,,,,,,,,,,,,,True,True,False,0.9,-0.09999999999999998,-1.3500000000000005,2.75,2.1,-0.6499999999999999,0.7250000000000001,certain,certain,0.7250000000000001,116.36958333333332,439.1035862004501,None,439.1035862004501,None,439.1035862004501,None,439.1035862004501,None,439.1035862004501,None,439.1035862004501,None,439.1035862004501,None,3,439.1035862004501,None,441.50450538948644,None,441.50450538948644,None,441.50450538948644,None,441.50450538948644,None,441.50450538948644,None,441.50450538948644,None,441.50450538948644,None,445.5061165142397,None,445.5061165142397,None,445.5061165142397,None,445.5061165142397,None,445.5061165142397,None,445.5061165142397,None,445.5061165142397,None,454.9931075220229,None,2.3677978564810473,446.48982415540377,None,447.49019597802544,None,0.96,7.502729792468017,450.4913031262986,None,None,450.4913031262986,None,,,,,,,,,,,,,,,,,,,22694,2019_Oct_07_1051,Mmi_3levels,3.1.5,59.99523899930179,
,,,1,1,8.3,,,,,,,,,0,0,0,0,0,22,22,20,,,,,,,,,,,,,,,,,,,,,,,,,,,,,,,,,,,,,,,,,,,,,,,,,,,,,,,,,,,,True,True,False,0.96,-0.040000000000000036,-1.3900000000000006,1.950000000000001,8.3,6.35,3.175,gamble,win,8.3,124.66958333333332,457.01059502499993,None,457.01059502499993,None,457.01059502499993,None,457.01059502499993,None,457.01059502499993,None,457.01059502499993,None,457.01059502499993,None,1,457.01059502499993,None,458.66121518801083,None,458.66121518801083,None,458.66121518801083,None,458.66121518801083,None,458.66121518801083,None,458.66121518801083,None,458.66121518801083,None,462.66274951634114,None,462.66274951634114,None,462.66274951634114,None,462.66274951634114,None,462.66274951634114,None,462.66274951634114,None,462.66274951634114,None,463.6464341185929,None,1.6176860217237845,,,,,,,,,,,,,,,,,,,,,,,,,,,,,,22694,2019_Oct_07_1051,Mmi_3levels,3.1.5,59.99523899930179,
,,,1,1,7.5,,,,,,,,,0,0,0,0,0,23,23,17,,,,,,,,,,,,,,,,,,,,,,,,,,,,,,,,,,,,,,,,,,,,,,,,,,,,,,,,,,,,True,True,False,0.96,-0.040000000000000036,-1.4300000000000006,1.990000000000001,7.5,5.509999999999999,2.7549999999999994,gamble,win,7.5,132.16958333333332,465.66389154296485,None,465.66389154296485,None,465.66389154296485,None,465.66389154296485,None,465.66389154296485,None,465.66389154296485,None,465.66389154296485,None,1,465.66389154296485,None,467.2645089221478,None,467.2645089221478,None,467.2645089221478,None,467.2645089221478,None,467.2645089221478,None,467.2645089221478,None,467.2645089221478,None,471.26606404947233,None,471.26606404947233,None,471.26606404947233,None,471.26606404947233,None,471.26606404947233,None,471.26606404947233,None,471.26606404947233,None,480.7531075348088,None,1.5677517146395985,472.2498584066052,None,473.25016687219613,None,0.91,7.502833467617165,476.25130217915284,None,None,476.25130217915284,None,,,,,,,,,,,,,,,,,,,22694,2019_Oct_07_1051,Mmi_3levels,3.1.5,59.99523899930179,
,,,1,1,10.5,,,,,,,,,0,0,0,0,0,24,24,15,,,,,,,,,,,,,,,,,,,,,,,,,,,,,,,,,,,,,,,,,,,,,,,,,,,,,,,,,,,,True,True,False,0.91,-0.08999999999999997,-1.5200000000000005,2.7800000000000002,10.5,7.72,3.86,gamble,win,10.5,142.66958333333332,482.77053584056557,None,482.77053584056557,None,482.77053584056557,None,482.77053584056557,None,482.77053584056557,None,482.77053584056557,None,482.77053584056557,None,1,482.77053584056557,None,484.18780946554034,None,484.18780946554034,None,484.18780946554034,None,484.18780946554034,None,484.18780946554034,None,484.18780946554034,None,484.18780946554034,None,488.18934795365203,None,488.18934795365203,None,488.18934795365203,None,488.18934795365203,None,488.18934795365203,None,488.18934795365203,None,488.18934795365203,None,489.17306807424757,None,1.3841538923443295,,,,,,,,,,,,,,,,,,,,,,,,,,,,,,22694,2019_Oct_07_1051,Mmi_3levels,3.1.5,59.99523899930179,
,,,1,1,10.3,,,,,,,,,0,0,0,0,0,25,25,10,,,,,,,,,,,,,,,,,,,,,,,,,,,,,,,,,,,,,,,,,,,,,,,,,,,,,,,,,,,,True,True,True,0.91,-0.08999999999999997,-1.6100000000000003,2.87,10.3,7.430000000000001,3.7150000000000003,gamble,win,10.3,152.96958333333333,491.1905184589559,None,491.1905184589559,None,491.1905184589559,None,491.1905184589559,None,491.1905184589559,None,491.1905184589559,None,491.1905184589559,None,1,491.1905184589559,None,492.6077191273507,None,492.6077191273507,None,492.6077191273507,None,492.6077191273507,None,492.6077191273507,None,492.6077191273507,None,492.6077191273507,None,496.60926977489726,None,496.60926977489726,None,496.60926977489726,None,496.60926977489726,None,496.60926977489726,None,496.60926977489726,None,496.60926977489726,None,497.59294029782177,None,1.3842534076829907,,,,,,,,,,,,,,,,,,,,,,,,,,,,,,22694,2019_Oct_07_1051,Mmi_3levels,3.1.5,59.99523899930179,
,,,1,1,2.3,,,,,,,,,0,0,0,0,0,26,26,2,,,,,,,,,,,,,,,,,,,,,,,,,,,,,,,,,,,,,,,,,,,,,,,,,,,,,,,,,,,,True,True,False,0.91,-0.08999999999999997,-1.7000000000000002,2.96,2.3,-0.6600000000000001,0.8199999999999998,certain,certain,0.8199999999999998,153.78958333333333,499.61039100252674,None,499.61039100252674,None,499.61039100252674,None,499.61039100252674,None,499.61039100252674,None,499.61039100252674,None,499.61039100252674,None,3,499.61039100252674,None,501.7279023123847,None,501.7279023123847,None,501.7279023123847,None,501.7279023123847,None,501.7279023123847,None,501.7279023123847,None,501.7279023123847,None,505.7294663993234,None,505.7294663993234,None,505.7294663993234,None,505.7294663993234,None,505.7294663993234,None,505.7294663993234,None,505.7294663993234,None,515.2164798060548,None,2.0845778085058555,506.7132101988245,None,507.713568582054,None,0.91,7.502819708257448,510.7147621262993,None,None,510.7147621262993,None,,,,,,,,,,,,,,,,,,,22694,2019_Oct_07_1051,Mmi_3levels,3.1.5,59.99523899930179,
,,,2,0,12.1,,,,,,,,,0,1,1,1,0,0,0,26,,,,,,,,,,,,,,,,,,,,,,,,,,,,,,,,,,,,,,,,,,,,,,,,522.2358382616367,None,0.89,7.134809061710257,525.2537311856577,None,4,4.1017651655420195,525.2537311856577,None,529.3719419828558,None,False,True,False,0.89,0.89,0.89,-13.350000000000001,12.1,-1.2500000000000018,-0.6250000000000009,gamble,lose,-1.2500000000000018,152.53958333333333,532.4065112477983,None,532.4065112477983,None,532.4065112477983,None,532.4065112477983,None,532.4065112477983,None,532.4065112477983,None,532.4065112477983,None,1,532.4065112477983,None,534.2738720047055,None,534.2738720047055,None,534.2738720047055,None,534.2738720047055,None,534.2738720047055,None,534.2738720047055,None,534.2738720047055,None,538.2754543307528,None,538.2754543307528,None,538.2754543307528,None,538.2754543307528,None,538.2754543307528,None,538.2754543307528,None,538.2754543307528,None,539.2591869307798,None,1.8344243757019285,,,,,,,,,,,,517.2172621694917,None,4,5.002280853455886,517.2172621694917,None,,,,,,,,,,,,,22694,2019_Oct_07_1051,Mmi_3levels,3.1.5,59.99523899930179,
,,,2,0,4.3,,,,,,,,,0,1,1,1,0,1,1,3,,,,,,,,,,,,,,,,,,,,,,,,,,,,,,,,,,,,,,,,,,,,,,,,,,,,,,,,,,,,False,True,False,0.89,0.89,1.78,-14.24,4.3,-9.940000000000001,-2.8200000000000007,certain,certain,-2.8200000000000007,149.71958333333333,541.2766193963471,None,541.2766193963471,None,541.2766193963471,None,541.2766193963471,None,541.2766193963471,None,541.2766193963471,None,541.2766193963471,None,3,541.2766193963471,None,543.5941735201923,None,543.5941735201923,None,543.5941735201923,None,543.5941735201923,None,543.5941735201923,None,543.5941735201923,None,543.5941735201923,None,547.5957718455174,None,547.5957718455174,None,547.5957718455174,None,547.5957718455174,None,547.5957718455174,None,547.5957718455174,None,547.5957718455174,None,557.082731814764,None,2.28455534556997,548.5794081300555,None,549.5798743482737,None,0.88,7.502752191416221,552.5809837364359,None,None,552.5809837364359,None,,,,,,,,,,,,,,,,,,,22694,2019_Oct_07_1051,Mmi_3levels,3.1.5,59.99523899930179,
,,,2,0,7.5,,,,,,,,,0,1,1,1,0,2,2,5,,,,,,,,,,,,,,,,,,,,,,,,,,,,,,,,,,,,,,,,,,,,,,,,,,,,,,,,,,,,False,True,False,0.88,0.88,2.66,-14.98,7.5,-7.48,0.009999999999999787,gamble,lose,-7.48,142.23958333333334,559.1001502009749,None,559.1001502009749,None,559.1001502009749,None,559.1001502009749,None,559.1001502009749,None,559.1001502009749,None,559.1001502009749,None,1,559.1001502009749,None,561.517903483531,None,561.517903483531,None,561.517903483531,None,561.517903483531,None,561.517903483531,None,561.517903483531,None,561.517903483531,None,565.5193616554025,None,565.5193616554025,None,565.5193616554025,None,565.5193616554025,None,565.5193616554025,None,565.5193616554025,None,565.5193616554025,None,566.5030203388887,None,2.384697866917122,,,,,,,,,,,,,,,,,,,,,,,,,,,,,,22694,2019_Oct_07_1051,Mmi_3levels,3.1.5,59.99523899930179,
,,,2,0,8.5,,,,,,,,,0,1,1,1,0,3,3,23,,,,,,,,,,,,,,,,,,,,,,,,,,,,,,,,,,,,,,,,,,,,,,,,,,,,,,,,,,,,False,True,True,0.88,0.88,3.54,-15.86,8.5,-7.359999999999999,0.5700000000000003,gamble,lose,-7.359999999999999,134.87958333333336,568.5205088018265,None,568.5205088018265,None,568.5205088018265,None,568.5205088018265,None,568.5205088018265,None,568.5205088018265,None,568.5205088018265,None,1,568.5205088018265,None,570.8880666695186,None,570.8880666695186,None,570.8880666695186,None,570.8880666695186,None,570.8880666695186,None,570.8880666695186,None,570.8880666695186,None,574.8896352362353,None,574.8896352362353,None,574.8896352362353,None,574.8896352362353,None,574.8896352362353,None,574.8896352362353,None,574.8896352362353,None,584.3766851212713,None,2.3346346058824565,575.8733675162657,None,576.8736622224969,None,0.76,7.503054897271795,579.8748624864093,None,None,579.8748624864093,None,,,,,,,,,,,,,,,,,,,22694,2019_Oct_07_1051,Mmi_3levels,3.1.5,59.99523899930179,
,,,2,0,13.7,,,,,,,,,0,1,1,1,0,4,4,10,,,,,,,,,,,,,,,,,,,,,,,,,,,,,,,,,,,,,,,,,,,,,,,,,,,,,,,,,,,,False,True,True,0.76,0.76,4.3,-14.940000000000001,13.7,-1.240000000000002,-0.620000000000001,gamble,lose,-1.240000000000002,133.63958333333335,586.394068309135,None,586.394068309135,None,586.394068309135,None,586.394068309135,None,586.394068309135,None,586.394068309135,None,586.394068309135,None,1,586.394068309135,None,588.2948486246751,None,588.2948486246751,None,588.2948486246751,None,588.2948486246751,None,588.2948486246751,None,588.2948486246751,None,588.2948486246751,None,592.2964059919177,None,592.2964059919177,None,592.2964059919177,None,592.2964059919177,None,592.2964059919177,None,592.2964059919177,None,592.2964059919177,None,593.2801200327813,None,1.8678986517770682,,,,,,,,,,,,,,,,,,,,,,,,,,,,,,22694,2019_Oct_07_1051,Mmi_3levels,3.1.5,59.99523899930179,
,,,2,0,2.1,,,,,,,,,0,1,1,1,0,5,5,16,,,,,,,,,,,,,,,,,,,,,,,,,,,,,,,,,,,,,,,,,,,,,,,,,,,,,,,,,,,,False,True,True,0.76,0.76,5.06,-15.7,2.1,-13.6,-5.75,gamble,lose,-13.6,120.03958333333335,595.2975236996717,None,595.2975236996717,None,595.2975236996717,None,595.2975236996717,None,595.2975236996717,None,595.2975236996717,None,595.2975236996717,None,None,595.2975236996717,None,598.2987482824828,None,598.2987482824828,None,598.2987482824828,None,598.2987482824828,None,598.2987482824828,None,598.2987482824828,None,598.2987482824828,None,602.3002477324044,None,602.3002477324044,None,602.3002477324044,None,602.3002477324044,None,602.3002477324044,None,602.3002477324044,None,602.3002477324044,None,603.2839736127353,None,,,,,,,,,,,,,,,,,,,,,,,,,,,,,,,22694,2019_Oct_07_1051,Mmi_3levels,3.1.5,59.99523899930179,
,,,2,0,9.7,,,,,,,,,0,1,1,1,0,6,6,6,,,,,,,,,,,,,,,,,,,,,,,,,,,,,,,,,,,,,,,,,,,,,,,,,,,,,,,,,,,,False,False,True,0.76,0.76,5.819999999999999,3.145,2.425,-0.7200000000000002,0.8524999999999998,gamble,win,2.425,122.46458333333335,605.3014627156663,None,605.3014627156663,None,605.3014627156663,None,605.3014627156663,None,605.3014627156663,None,605.3014627156663,None,605.3014627156663,None,1,605.3014627156663,None,606.8520731511235,None,606.8520731511235,None,606.8520731511235,None,606.8520731511235,None,606.8520731511235,None,606.8520731511235,None,606.8520731511235,None,610.853569721221,None,610.853569721221,None,610.853569721221,None,610.853569721221,None,610.853569721221,None,610.853569721221,None,610.853569721221,None,620.3406026470475,None,1.5176388559048064,611.8373304799024,None,612.8377275813546,None,0.67,7.503124654002022,615.8389035264263,None,None,615.8389035264263,None,,,,,,,,,,,,,,,,,,,22694,2019_Oct_07_1051,Mmi_3levels,3.1.5,59.99523899930179,
,,,2,0,13.9,,,,,,,,,0,1,1,1,0,7,7,22,,,,,,,,,,,,,,,,,,,,,,,,,,,,,,,,,,,,,,,,,,,,,,,,,,,,,,,,,,,,False,True,True,0.67,0.67,6.489999999999999,-15.870000000000001,13.9,-1.9700000000000006,-0.9850000000000003,gamble,lose,-1.9700000000000006,120.49458333333335,622.3580319127359,None,622.3580319127359,None,622.3580319127359,None,622.3580319127359,None,622.3580319127359,None,622.3580319127359,None,622.3580319127359,None,1,622.3580319127359,None,623.8086703789013,None,623.8086703789013,None,623.8086703789013,None,623.8086703789013,None,623.8086703789013,None,623.8086703789013,None,623.8086703789013,None,627.8101480698679,None,627.8101480698679,None,627.8101480698679,None,627.8101480698679,None,627.8101480698679,None,627.8101480698679,None,627.8101480698679,None,628.7938723502739,None,1.4175894501968287,,,,,,,,,,,,,,,,,,,,,,,,,,,,,,22694,2019_Oct_07_1051,Mmi_3levels,3.1.5,59.99523899930179,
,,,2,0,-0.1,,,,,,,,,0,1,1,1,0,8,8,1,,,,,,,,,,,,,,,,,,,,,,,,,,,,,,,,,,,,,,,,,,,,,,,,,,,,,,,,,,,,False,True,False,0.67,0.67,7.159999999999999,-16.54,-0.1,-16.64,-8.370000000000001,gamble,lose,-16.64,103.85458333333335,630.8112939363346,None,630.8112939363346,None,630.8112939363346,None,630.8112939363346,None,630.8112939363346,None,630.8112939363346,None,630.8112939363346,None,None,630.8112939363346,None,633.8125537174928,None,633.8125537174928,None,633.8125537174928,None,633.8125537174928,None,633.8125537174928,None,633.8125537174928,None,633.8125537174928,None,637.8140589271497,None,637.8140589271497,None,637.8140589271497,None,637.8140589271497,None,637.8140589271497,None,637.8140589271497,None,637.8140589271497,None,647.3010659341817,None,,638.7977915271767,None,639.7981521503243,None,0.51,7.502890744945034,642.7993492143869,None,None,642.7993492143869,None,,,,,,,,,,,,,,,,,,,22694,2019_Oct_07_1051,Mmi_3levels,3.1.5,59.99523899930179,
,,,2,0,5.1,,,,,,,,,0,1,1,1,0,9,9,21,,,,,,,,,,,,,,,,,,,,,,,,,,,,,,,,,,,,,,,,,,,,,,,,,,,,,,,,,,,,False,False,False,0.51,0.51,7.669999999999999,2.424166666666667,1.275,-1.149166666666667,0.06291666666666651,certain,certain,0.06291666666666651,103.91750000000002,649.3185211186938,None,649.3185211186938,None,649.3185211186938,None,649.3185211186938,None,649.3185211186938,None,649.3185211186938,None,649.3185211186938,None,3,649.3185211186938,None,651.9361972208717,None,651.9361972208717,None,651.9361972208717,None,651.9361972208717,None,651.9361972208717,None,651.9361972208717,None,651.9361972208717,None,655.9377270693949,None,655.9377270693949,None,655.9377270693949,None,655.9377270693949,None,655.9377270693949,None,655.9377270693949,None,655.9377270693949,None,656.9213953524013,None,2.5847822789801285,,,,,,,,,,,,,,,,,,,,,,,,,,,,,,22694,2019_Oct_07_1051,Mmi_3levels,3.1.5,59.99523899930179,
,,,2,0,9.5,,,,,,,,,0,1,1,1,0,10,10,18,,,,,,,,,,,,,,,,,,,,,,,,,,,,,,,,,,,,,,,,,,,,,,,,,,,,,,,,,,,,False,True,False,0.51,0.51,8.18,-15.32,9.5,-5.82,1.8399999999999999,gamble,lose,-5.82,98.09750000000003,658.9388786955678,None,658.9388786955678,None,658.9388786955678,None,658.9388786955678,None,658.9388786955678,None,658.9388786955678,None,658.9388786955678,None,1,658.9388786955678,None,659.922654813563,None,659.922654813563,None,659.922654813563,None,659.922654813563,None,659.922654813563,None,659.922654813563,None,659.922654813563,None,663.9241894618608,None,663.9241894618608,None,663.9241894618608,None,663.9241894618608,None,663.9241894618608,None,663.9241894618608,None,663.9241894618608,None,664.9078974230215,None,0.9508186177408788,,,,,,,,,,,,,,,,,,,,,,,,,,,,,,22694,2019_Oct_07_1051,Mmi_3levels,3.1.5,59.99523899930179,
,,,2,0,11.1,,,,,,,,,0,1,1,1,0,11,11,13,,,,,,,,,,,,,,,,,,,,,,,,,,,,,,,,,,,,,,,,,,,,,,,,,,,,,,,,,,,,False,False,True,0.51,0.51,8.69,2.5091666666666668,2.775,0.26583333333333314,1.5204166666666665,certain,certain,1.5204166666666665,99.61791666666669,666.9253602871613,None,666.9253602871613,None,666.9253602871613,None,666.9253602871613,None,666.9253602871613,None,666.9253602871613,None,666.9253602871613,None,3,666.9253602871613,None,668.7427377792774,None,668.7427377792774,None,668.7427377792774,None,668.7427377792774,None,668.7427377792774,None,668.7427377792774,None,668.7427377792774,None,672.7442676278006,None,672.7442676278006,None,672.7442676278006,None,672.7442676278006,None,672.7442676278006,None,672.7442676278006,None,672.7442676278006,None,682.2313511112588,None,1.7844276715186425,673.7280629448942,None,674.7284123685677,None,0.5,7.502803389041219,677.7295636747731,None,None,677.7295636747731,None,,,,,,,,,,,,,,,,,,,22694,2019_Oct_07_1051,Mmi_3levels,3.1.5,59.99523899930179,
,,,2,0,6.7,,,,,,,,,0,1,1,1,0,12,12,11,,,,,,,,,,,,,,,,,,,,,,,,,,,,,,,,,,,,,,,,,,,,,,,,,,,,,,,,,,,,False,False,False,0.5,0.5,9.19,2.515833333333333,1.675,-0.8408333333333331,0.4170833333333335,gamble,win,1.675,101.29291666666668,684.2487346191192,None,684.2487346191192,None,684.2487346191192,None,684.2487346191192,None,684.2487346191192,None,684.2487346191192,None,684.2487346191192,None,1,684.2487346191192,None,686.7663715551025,None,686.7663715551025,None,686.7663715551025,None,686.7663715551025,None,686.7663715551025,None,686.7663715551025,None,686.7663715551025,None,690.7679468415154,None,690.7679468415154,None,690.7679468415154,None,690.7679468415154,None,690.7679468415154,None,690.7679468415154,None,690.7679468415154,None,691.7516349636135,None,2.4847370331117418,,,,,,,,,,,,,,,,,,,,,,,,,,,,,,22694,2019_Oct_07_1051,Mmi_3levels,3.1.5,59.99523899930179,
,,,2,0,8.1,,,,,,,,,0,1,1,1,0,13,13,8,,,,,,,,,,,,,,,,,,,,,,,,,,,,,,,,,,,,,,,,,,,,,,,,,,,,,,,,,,,,False,True,False,0.5,0.5,9.69,-16.689999999999998,8.1,-8.589999999999998,-0.24499999999999922,gamble,lose,-8.589999999999998,92.70291666666668,693.7690933479462,None,693.7690933479462,None,693.7690933479462,None,693.7690933479462,None,693.7690933479462,None,693.7690933479462,None,693.7690933479462,None,1,693.7690933479462,None,696.2534521587077,None,696.2534521587077,None,696.2534521587077,None,696.2534521587077,None,696.2534521587077,None,696.2534521587077,None,696.2534521587077,None,700.2549794473452,None,700.2549794473452,None,700.2549794473452,None,700.2549794473452,None,700.2549794473452,None,700.2549794473452,None,700.2549794473452,None,709.7419547758764,None,2.451389471098082,701.2386579698941,None,702.2390825900657,None,0.5,7.502768190664938,705.2401887783781,None,None,705.2401887783781,None,,,,,,,,,,,,,,,,,,,22694,2019_Oct_07_1051,Mmi_3levels,3.1.5,59.99523899930179,
,,,2,0,1.9,,,,,,,,,0,1,1,1,0,14,14,7,,,,,,,,,,,,,,,,,,,,,,,,,,,,,,,,,,,,,,,,,,,,,,,,,,,,,,,,,,,,False,True,True,0.5,0.5,10.19,-17.189999999999998,1.9,-15.289999999999997,-6.6949999999999985,certain,certain,-6.6949999999999985,86.00791666666669,711.7594656377623,None,711.7594656377623,None,711.7594656377623,None,711.7594656377623,None,711.7594656377623,None,711.7594656377623,None,711.7594656377623,None,3,711.7594656377623,None,713.7935965231736,None,713.7935965231736,None,713.7935965231736,None,713.7935965231736,None,713.7935965231736,None,713.7935965231736,None,713.7935965231736,None,717.7951170921151,None,717.7951170921151,None,717.7951170921151,None,717.7951170921151,None,717.7951170921151,None,717.7951170921151,None,717.7951170921151,None,718.7788333728968,None,2.0011333870352246,,,,,,,,,,,,,,,,,,,,,,,,,,,,,,22694,2019_Oct_07_1051,Mmi_3levels,3.1.5,59.99523899930179,
,,,2,0,13.3,,,,,,,,,0,1,1,1,0,15,15,24,,,,,,,,,,,,,,,,,,,,,,,,,,,,,,,,,,,,,,,,,,,,,,,,,,,,,,,,,,,,False,True,False,0.5,0.5,10.69,-17.689999999999998,13.3,-4.389999999999997,-2.1949999999999985,gamble,lose,-4.389999999999997,81.61791666666669,720.7963074365107,None,720.7963074365107,None,720.7963074365107,None,720.7963074365107,None,720.7963074365107,None,720.7963074365107,None,720.7963074365107,None,1,720.7963074365107,None,722.546985644818,None,722.546985644818,None,722.546985644818,None,722.546985644818,None,722.546985644818,None,722.546985644818,None,722.546985644818,None,726.5484854147653,None,726.5484854147653,None,726.5484854147653,None,726.5484854147653,None,726.5484854147653,None,726.5484854147653,None,726.5484854147653,None,736.0354364243976,None,1.7176707904145587,727.5322413736722,None,728.5326490346342,None,0.5,7.502423246769467,731.5337753820058,None,None,731.5337753820058,None,,,,,,,,,,,,,,,,,,,22694,2019_Oct_07_1051,Mmi_3levels,3.1.5,59.99523899930179,
,,,2,0,2.3,,,,,,,,,0,1,1,1,0,16,16,25,,,,,,,,,,,,,,,,,,,,,,,,,,,,,,,,,,,,,,,,,,,,,,,,,,,,,,,,,,,,False,True,True,0.5,0.5,11.19,-18.189999999999998,2.3,-15.889999999999997,-6.794999999999998,gamble,lose,-15.889999999999997,65.72791666666669,738.0529863244737,None,738.0529863244737,None,738.0529863244737,None,738.0529863244737,None,738.0529863244737,None,738.0529863244737,None,738.0529863244737,None,None,738.0529863244737,None,741.054164829402,None,741.054164829402,None,741.054164829402,None,741.054164829402,None,741.054164829402,None,741.054164829402,None,741.054164829402,None,745.0557164369093,None,745.0557164369093,None,745.0557164369093,None,745.0557164369093,None,745.0557164369093,None,745.0557164369093,None,745.0557164369093,None,746.0394215182168,None,,,,,,,,,,,,,,,,,,,,,,,,,,,,,,,22694,2019_Oct_07_1051,Mmi_3levels,3.1.5,59.99523899930179,
,,,2,0,2.9,,,,,,,,,0,1,1,1,0,17,17,19,,,,,,,,,,,,,,,,,,,,,,,,,,,,,,,,,,,,,,,,,,,,,,,,,,,,,,,,,,,,False,False,True,0.5,0.5,11.69,2.7241666666666666,0.725,-1.9991666666666665,-0.6370833333333332,gamble,win,0.725,66.45291666666668,748.0568479040521,None,748.0568479040521,None,748.0568479040521,None,748.0568479040521,None,748.0568479040521,None,748.0568479040521,None,748.0568479040521,None,1,748.0568479040521,None,750.6078320820816,None,750.6078320820816,None,750.6078320820816,None,750.6078320820816,None,750.6078320820816,None,750.6078320820816,None,750.6078320820816,None,754.6094256076321,None,754.6094256076321,None,754.6094256076321,None,754.6094256076321,None,754.6094256076321,None,754.6094256076321,None,754.6094256076321,None,755.593123649247,None,2.518060276226606,,,,,,,,,,,,,,,,,,,,,,,,,,,,,,22694,2019_Oct_07_1051,Mmi_3levels,3.1.5,59.99523899930179,
,,,2,0,-1.3,,,,,,,,,0,1,1,1,0,18,18,15,,,,,,,,,,,,,,,,,,,,,,,,,,,,,,,,,,,,,,,,,,,,,,,,,,,,,,,,,,,,False,True,False,0.5,0.5,12.19,-19.189999999999998,-1.3,-20.49,-10.895,gamble,lose,-20.49,45.962916666666686,757.6105535549286,None,757.6105535549286,None,757.6105535549286,None,757.6105535549286,None,757.6105535549286,None,757.6105535549286,None,757.6105535549286,None,None,757.6105535549286,None,760.6117192604579,None,760.6117192604579,None,760.6117192604579,None,760.6117192604579,None,760.6117192604579,None,760.6117192604579,None,760.6117192604579,None,764.613325905404,None,764.613325905404,None,764.613325905404,None,764.613325905404,None,764.613325905404,None,764.613325905404,None,764.613325905404,None,774.1002817148401,None,,765.5970197872375,None,766.5974120888859,None,0.45,7.502773310436169,769.5985480358358,None,None,769.5985480358358,None,,,,,,,,,,,,,,,,,,,22694,2019_Oct_07_1051,Mmi_3levels,3.1.5,59.99523899930179,
,,,2,0,8.9,,,,,,,,,0,1,1,1,0,19,19,0,,,,,,,,,,,,,,,,,,,,,,,,,,,,,,,,,,,,,,,,,,,,,,,,,,,,,,,,,,,,False,True,True,0.45,0.45,12.639999999999999,-18.939999999999998,8.9,-10.039999999999997,-0.5699999999999985,gamble,lose,-10.039999999999997,35.92291666666669,776.1177458589082,None,776.1177458589082,None,776.1177458589082,None,776.1177458589082,None,776.1177458589082,None,776.1177458589082,None,776.1177458589082,None,1,776.1177458589082,None,777.6017178077309,None,777.6017178077309,None,777.6017178077309,None,777.6017178077309,None,777.6017178077309,None,777.6017178077309,None,777.6017178077309,None,781.6031916588836,None,781.6031916588836,None,781.6031916588836,None,781.6031916588836,None,781.6031916588836,None,781.6031916588836,None,781.6031916588836,None,782.5869450579048,None,1.4510134886368178,,,,,,,,,,,,,,,,,,,,,,,,,,,,,,22694,2019_Oct_07_1051,Mmi_3levels,3.1.5,59.99523899930179,
,,,2,0,2.5,,,,,,,,,0,1,1,1,0,20,20,12,,,,,,,,,,,,,,,,,,,,,,,,,,,,,,,,,,,,,,,,,,,,,,,,,,,,,,,,,,,,False,False,True,0.45,0.45,13.089999999999998,2.665833333333333,0.625,-2.040833333333333,-0.7079166666666665,gamble,win,0.625,36.54791666666669,784.6043944826815,None,784.6043944826815,None,784.6043944826815,None,784.6043944826815,None,784.6043944826815,None,784.6043944826815,None,784.6043944826815,None,1,784.6043944826815,None,786.4217809343827,None,786.4217809343827,None,786.4217809343827,None,786.4217809343827,None,786.4217809343827,None,786.4217809343827,None,786.4217809343827,None,790.423276864487,None,790.423276864487,None,790.423276864487,None,790.423276864487,None,790.423276864487,None,790.423276864487,None,790.423276864487,None,799.910354588239,None,1.7844251116621308,791.4070257837593,None,792.4073777672893,None,0.5,7.502763390890323,795.4086253890127,None,None,795.4086253890127,None,,,,,,,,,,,,,,,,,,,22694,2019_Oct_07_1051,Mmi_3levels,3.1.5,59.99523899930179,
,,,2,0,4.5,,,,,,,,,0,1,1,1,0,21,21,14,,,,,,,,,,,,,,,,,,,,,,,,,,,,,,,,,,,,,,,,,,,,,,,,,,,,,,,,,,,,False,True,False,0.5,0.5,13.589999999999998,-20.589999999999996,4.5,-16.089999999999996,-5.794999999999998,gamble,lose,-16.089999999999996,20.45791666666669,801.9277537753223,None,801.9277537753223,None,801.9277537753223,None,801.9277537753223,None,801.9277537753223,None,801.9277537753223,None,801.9277537753223,None,1,801.9277537753223,None,804.0619043078332,None,804.0619043078332,None,804.0619043078332,None,804.0619043078332,None,804.0619043078332,None,804.0619043078332,None,804.0619043078332,None,808.0635224722209,None,808.0635224722209,None,808.0635224722209,None,808.0635224722209,None,808.0635224722209,None,808.0635224722209,None,808.0635224722209,None,809.0471766759001,None,2.1012496696203016,,,,,,,,,,,,,,,,,,,,,,,,,,,,,,22694,2019_Oct_07_1051,Mmi_3levels,3.1.5,59.99523899930179,
,,,2,0,9.9,,,,,,,,,0,1,1,1,0,22,22,4,,,,,,,,,,,,,,,,,,,,,,,,,,,,,,,,,,,,,,,,,,,,,,,,,,,,,,,,,,,,False,True,True,0.5,0.5,14.089999999999998,-21.089999999999996,9.9,-11.189999999999996,-0.6449999999999978,gamble,lose,-11.189999999999996,9.267916666666695,811.0646843379363,None,811.0646843379363,None,811.0646843379363,None,811.0646843379363,None,811.0646843379363,None,811.0646843379363,None,811.0646843379363,None,1,811.0646843379363,None,812.6319519151875,None,812.6319519151875,None,812.6319519151875,None,812.6319519151875,None,812.6319519151875,None,812.6319519151875,None,812.6319519151875,None,816.6334497652133,None,816.6334497652133,None,816.6334497652133,None,816.6334497652133,None,816.6334497652133,None,816.6334497652133,None,816.6334497652133,None,826.1204663717945,None,1.5342620792798698,817.6171775654657,None,818.6175657073327,None,0.49,7.502833787613781,821.6187595715455,None,None,821.6187595715455,None,,,,,,,,,,,,,,,,,,,22694,2019_Oct_07_1051,Mmi_3levels,3.1.5,59.99523899930179,
,,,2,0,6.5,,,,,,,,,0,1,1,1,0,23,23,17,,,,,,,,,,,,,,,,,,,,,,,,,,,,,,,,,,,,,,,,,,,,,,,,,,,,,,,,,,,,False,True,False,0.49,0.49,14.579999999999998,-21.439999999999998,6.5,-14.939999999999998,-4.219999999999999,gamble,lose,-14.939999999999998,-5.672083333333303,828.1379378755228,None,828.1379378755228,None,828.1379378755228,None,828.1379378755228,None,828.1379378755228,None,828.1379378755228,None,828.1379378755228,None,1,828.1379378755228,None,830.0553663732717,None,830.0553663732717,None,830.0553663732717,None,830.0553663732717,None,830.0553663732717,None,830.0553663732717,None,830.0553663732717,None,834.0568802225462,None,834.0568802225462,None,834.0568802225462,None,834.0568802225462,None,834.0568802225462,None,834.0568802225462,None,834.0568802225462,None,835.0406032230239,None,1.8844469986506738,,,,,,,,,,,,,,,,,,,,,,,,,,,,,,22694,2019_Oct_07_1051,Mmi_3levels,3.1.5,59.99523899930179,
,,,2,0,8.3,,,,,,,,,0,1,1,1,0,24,24,20,,,,,,,,,,,,,,,,,,,,,,,,,,,,,,,,,,,,,,,,,,,,,,,,,,,,,,,,,,,,False,True,False,0.49,0.49,15.069999999999999,-21.93,8.3,-13.629999999999999,-2.664999999999999,gamble,lose,-13.629999999999999,-19.3020833333333,837.0580760066805,None,837.0580760066805,None,837.0580760066805,None,837.0580760066805,None,837.0580760066805,None,837.0580760066805,None,837.0580760066805,None,1,837.0580760066805,None,838.5086808744236,None,838.5086808744236,None,838.5086808744236,None,838.5086808744236,None,838.5086808744236,None,838.5086808744236,None,838.5086808744236,None,842.5102228823816,None,842.5102228823816,None,842.5102228823816,None,842.5102228823816,None,842.5102228823816,None,842.5102228823816,None,842.5102228823816,None,843.4938825257996,None,1.417670726426877,,,,,,,,,,,,,,,,,,,,,,,,,,,,,,22694,2019_Oct_07_1051,Mmi_3levels,3.1.5,59.99523899930179,
,,,2,0,9.1,,,,,,,,,0,1,1,1,0,25,25,9,,,,,,,,,,,,,,,,,,,,,,,,,,,,,,,,,,,,,,,,,,,,,,,,,,,,,,,,,,,,False,False,True,0.49,0.49,15.559999999999999,3.0116666666666667,2.275,-0.7366666666666668,0.7691666666666666,certain,certain,0.7691666666666666,-18.532916666666633,845.5113597892632,None,845.5113597892632,None,845.5113597892632,None,845.5113597892632,None,845.5113597892632,None,845.5113597892632,None,845.5113597892632,None,3,845.5113597892632,None,847.4121167458943,None,847.4121167458943,None,847.4121167458943,None,847.4121167458943,None,847.4121167458943,None,847.4121167458943,None,847.4121167458943,None,851.413674113137,None,851.413674113137,None,851.413674113137,None,851.413674113137,None,851.413674113137,None,851.413674113137,None,851.413674113137,None,860.9006855999469,None,1.867789216892561,852.3974003134354,None,853.397791015188,None,0.5,7.502829627803294,856.3988690448168,None,None,856.3988690448168,None,,,,,,,,,,,,,,,,,,,22694,2019_Oct_07_1051,Mmi_3levels,3.1.5,59.99523899930179,
,,,2,0,6.1,,,,,,,,,0,1,1,1,0,26,26,2,,,,,,,,,,,,,,,,,,,,,,,,,,,,,,,,,,,,,,,,,,,,,,,,,,,,,,,,,,,,False,False,True,0.5,0.5,16.06,3.088333333333333,1.525,-1.563333333333333,-0.019166666666666554,gamble,win,1.525,-17.007916666666635,862.9181267051026,None,862.9181267051026,None,862.9181267051026,None,862.9181267051026,None,862.9181267051026,None,862.9181267051026,None,862.9181267051026,None,1,862.9181267051026,None,864.9855923531286,None,864.9855923531286,None,864.9855923531286,None,864.9855923531286,None,864.9855923531286,None,864.9855923531286,None,864.9855923531286,None,868.9871090822562,None,868.9871090822562,None,868.9871090822562,None,868.9871090822562,None,868.9871090822562,None,868.9871090822562,None,868.9871090822562,None,869.9708464820578,None,2.034499188186601,,,,,,,,,,,,,,,,,,,,,,,,,,,,,,22694,2019_Oct_07_1051,Mmi_3levels,3.1.5,59.99523899930179,
,,,3,1,11.9,,,,,,,,,0,2,2,2,0,0,0,0,,,,,,,,,,,,,,,,,,,,,,,,,,,,,,,,,,,,,,,,,,,,,,,,873.922423144395,None,0.5,7.502094942115946,876.9401989539037,None,None,,876.9401989539037,None,881.4252706913394,None,True,True,False,0.5,-0.5,-0.5,7.5,11.9,4.4,2.2,gamble,win,11.9,-5.107916666666634,884.4598367564322,None,884.4598367564322,None,884.4598367564322,None,884.4598367564322,None,884.4598367564322,None,884.4598367564322,None,884.4598367564322,None,None,884.4598367564322,None,887.4609419847839,None,887.4609419847839,None,887.4609419847839,None,887.4609419847839,None,887.4609419847839,None,887.4609419847839,None,887.4609419847839,None,891.4625627090572,None,891.4625627090572,None,891.4625627090572,None,891.4625627090572,None,891.4625627090572,None,891.4625627090572,None,891.4625627090572,None,900.9495677961968,None,,892.446230032132,None,893.4465487372363,None,0.56,7.503089135658229,896.4478347571567,None,None,896.4478347571567,None,871.9716275655665,None,4,1.9343873854086269,871.9716275655665,None,,,,,,,,,,,,,22694,2019_Oct_07_1051,Mmi_3levels,3.1.5,59.99523899930179,
,,,3,1,-1.5,,,,,,,,,0,2,2,2,0,1,1,24,,,,,,,,,,,,,,,,,,,,,,,,,,,,,,,,,,,,,,,,,,,,,,,,,,,,,,,,,,,,True,True,False,0.56,-0.43999999999999995,-0.94,7.1,-1.5,-8.6,-5.05,gamble,win,-1.5,-6.607916666666634,902.9669925821072,None,902.9669925821072,None,902.9669925821072,None,902.9669925821072,None,902.9669925821072,None,902.9669925821072,None,902.9669925821072,None,None,902.9669925821072,None,905.9681861263234,None,905.9681861263234,None,905.9681861263234,None,905.9681861263234,None,905.9681861263234,None,905.9681861263234,None,905.9681861263234,None,909.9697121350328,None,909.9697121350328,None,909.9697121350328,None,909.9697121350328,None,909.9697121350328,None,909.9697121350328,None,909.9697121350328,None,910.9534133765264,None,,,,,,,,,,,,,,,,,,,,,,,,,,,,,,,22694,2019_Oct_07_1051,Mmi_3levels,3.1.5,59.99523899930179,
,,,3,1,1.9,,,,,,,,,0,2,2,2,0,2,2,19,,,,,,,,,,,,,,,,,,,,,,,,,,,,,,,,,,,,,,,,,,,,,,,,,,,,,,,,,,,,True,True,False,0.56,-0.43999999999999995,-1.38,7.539999999999999,1.9,-5.639999999999999,-1.8699999999999994,certain,certain,-1.8699999999999994,-8.477916666666633,912.9708180033776,None,912.9708180033776,None,912.9708180033776,None,912.9708180033776,None,912.9708180033776,None,912.9708180033776,None,912.9708180033776,None,3,912.9708180033776,None,915.4551816139137,None,915.4551816139137,None,915.4551816139137,None,915.4551816139137,None,915.4551816139137,None,915.4551816139137,None,915.4551816139137,None,919.4567002629628,None,919.4567002629628,None,919.4567002629628,None,919.4567002629628,None,919.4567002629628,None,919.4567002629628,None,919.4567002629628,None,920.4404603816802,None,2.4514185897423886,,,,,,,,,,,,,,,,,,,,,,,,,,,,,,22694,2019_Oct_07_1051,Mmi_3levels,3.1.5,59.99523899930179,
,,,3,1,7.3,,,,,,,,,0,2,2,2,0,3,3,16,,,,,,,,,,,,,,,,,,,,,,,,,,,,,,,,,,,,,,,,,,,,,,,,,,,,,,,,,,,,True,True,True,0.56,-0.43999999999999995,-1.8199999999999998,7.979999999999999,7.3,-0.6799999999999988,-0.3399999999999994,gamble,win,7.3,-1.1779166666666336,922.4578541290539,None,922.4578541290539,None,922.4578541290539,None,922.4578541290539,None,922.4578541290539,None,922.4578541290539,None,922.4578541290539,None,1,922.4578541290539,None,924.0918715477455,None,924.0918715477455,None,924.0918715477455,None,924.0918715477455,None,924.0918715477455,None,924.0918715477455,None,924.0918715477455,None,928.0934266750992,None,928.0934266750992,None,928.0934266750992,None,928.0934266750992,None,928.0934266750992,None,928.0934266750992,None,928.0934266750992,None,937.5804183228465,None,1.6011427946214098,929.0771394360345,None,930.0775518967712,None,0.68,7.5021451797802,933.07866160493,None,None,933.07866160493,None,,,,,,,,,,,,,,,,,,,22694,2019_Oct_07_1051,Mmi_3levels,3.1.5,59.99523899930179,
,,,3,1,4.1,,,,,,,,,0,2,2,2,0,4,4,18,,,,,,,,,,,,,,,,,,,,,,,,,,,,,,,,,,,,,,,,,,,,,,,,,,,,,,,,,,,,True,False,True,0.68,-0.31999999999999995,-2.1399999999999997,-1.2983333333333331,4.1,2.8016666666666667,1.4008333333333334,gamble,lose,2.8016666666666667,1.6237500000000331,939.5978757472476,None,939.5978757472476,None,939.5978757472476,None,939.5978757472476,None,939.5978757472476,None,939.5978757472476,None,939.5978757472476,None,1,939.5978757472476,None,941.3318654552277,None,941.3318654552277,None,941.3318654552277,None,941.3318654552277,None,941.3318654552277,None,941.3318654552277,None,941.3318654552277,None,945.3334295421664,None,945.3334295421664,None,945.3334295421664,None,945.3334295421664,None,945.3334295421664,None,945.3334295421664,None,945.3334295421664,None,946.3171829412167,None,1.7010856452980079,,,,,,,,,,,,,,,,,,,,,,,,,,,,,,22694,2019_Oct_07_1051,Mmi_3levels,3.1.5,59.99523899930179,
,,,3,1,13.5,,,,,,,,,0,2,2,2,0,5,5,21,,,,,,,,,,,,,,,,,,,,,,,,,,,,,,,,,,,,,,,,,,,,,,,,,,,,,,,,,,,,True,False,False,0.68,-0.31999999999999995,-2.4599999999999995,-1.3249999999999997,13.5,12.175,6.0875,gamble,lose,12.175,13.798750000000034,948.3345830882608,None,948.3345830882608,None,948.3345830882608,None,948.3345830882608,None,948.3345830882608,None,948.3345830882608,None,948.3345830882608,None,1,948.3345830882608,None,949.5851035439409,None,949.5851035439409,None,949.5851035439409,None,949.5851035439409,None,949.5851035439409,None,949.5851035439409,None,949.5851035439409,None,953.5867031492235,None,953.5867031492235,None,953.5867031492235,None,953.5867031492235,None,953.5867031492235,None,953.5867031492235,None,953.5867031492235,None,963.0736935170426,None,1.217601353651844,954.5703867915145,None,955.5707714135642,None,0.68,7.5029109040042385,958.5719217598089,None,None,958.5719217598089,None,,,,,,,,,,,,,,,,,,,22694,2019_Oct_07_1051,Mmi_3levels,3.1.5,59.99523899930179,
,,,3,1,-1.3,,,,,,,,,0,2,2,2,0,6,6,23,,,,,,,,,,,,,,,,,,,,,,,,,,,,,,,,,,,,,,,,,,,,,,,,,,,,,,,,,,,,True,False,False,0.68,-0.31999999999999995,-2.7799999999999994,-1.3516666666666666,-1.3,-2.6516666666666664,-1.975833333333333,gamble,lose,-2.6516666666666664,11.147083333333367,965.0910696652136,None,965.0910696652136,None,965.0910696652136,None,965.0910696652136,None,965.0910696652136,None,965.0910696652136,None,965.0910696652136,None,1,965.0910696652136,None,967.5754479950701,None,967.5754479950701,None,967.5754479950701,None,967.5754479950701,None,967.5754479950701,None,967.5754479950701,None,967.5754479950701,None,971.5769266459683,None,971.5769266459683,None,971.5769266459683,None,971.5769266459683,None,971.5769266459683,None,971.5769266459683,None,971.5769266459683,None,972.5605802096834,None,2.4513779516273644,,,,,,,,,,,,,,,,,,,,,,,,,,,,,,22694,2019_Oct_07_1051,Mmi_3levels,3.1.5,59.99523899930179,
,,,3,1,1.7,,,,,,,,,0,2,2,2,0,7,7,17,,,,,,,,,,,,,,,,,,,,,,,,,,,,,,,,,,,,,,,,,,,,,,,,,,,,,,,,,,,,True,True,True,0.68,-0.31999999999999995,-3.099999999999999,7.579999999999998,1.7,-5.879999999999998,-2.089999999999999,certain,certain,-2.089999999999999,9.057083333333367,974.5781006711186,None,974.5781006711186,None,974.5781006711186,None,974.5781006711186,None,974.5781006711186,None,974.5781006711186,None,974.5781006711186,None,3,974.5781006711186,None,977.0624348430429,None,977.0624348430429,None,977.0624348430429,None,977.0624348430429,None,977.0624348430429,None,977.0624348430429,None,977.0624348430429,None,981.0640062896127,None,981.0640062896127,None,981.0640062896127,None,981.0640062896127,None,981.0640062896127,None,981.0640062896127,None,981.0640062896127,None,990.5510225762264,None,2.451185320620425,982.0477174506232,None,983.0481062324543,None,0.58,7.502830267767422,986.0492556187673,None,None,986.0492556187673,None,,,,,,,,,,,,,,,,,,,22694,2019_Oct_07_1051,Mmi_3levels,3.1.5,59.99523899930179,
,,,3,1,0.5,,,,,,,,,0,2,2,2,0,8,8,9,,,,,,,,,,,,,,,,,,,,,,,,,,,,,,,,,,,,,,,,,,,,,,,,,,,,,,,,,,,,True,False,False,0.58,-0.42000000000000004,-3.519999999999999,-1.7633333333333334,0.5,-1.2633333333333334,-0.3816666666666667,gamble,lose,-1.2633333333333334,7.793750000000033,992.5684342427412,None,992.5684342427412,None,992.5684342427412,None,992.5684342427412,None,992.5684342427412,None,992.5684342427412,None,992.5684342427412,None,None,992.5684342427412,None,995.5695967484207,None,995.5695967484207,None,995.5695967484207,None,995.5695967484207,None,995.5695967484207,None,995.5695967484207,None,995.5695967484207,None,999.5711605153629,None,999.5711605153629,None,999.5711605153629,None,999.5711605153629,None,999.5711605153629,None,999.5711605153629,None,999.5711605153629,None,1000.5548921554291,None,,,,,,,,,,,,,,,,,,,,,,,,,,,,,,,22694,2019_Oct_07_1051,Mmi_3levels,3.1.5,59.99523899930179,
,,,3,1,5.7,,,,,,,,,0,2,2,2,0,9,9,8,,,,,,,,,,,,,,,,,,,,,,,,,,,,,,,,,,,,,,,,,,,,,,,,,,,,,,,,,,,,True,False,True,0.58,-0.42000000000000004,-3.939999999999999,-1.7983333333333333,5.7,3.901666666666667,1.9508333333333334,gamble,lose,3.901666666666667,11.6954166666667,1002.5723230210715,None,1002.5723230210715,None,1002.5723230210715,None,1002.5723230210715,None,1002.5723230210715,None,1002.5723230210715,None,1002.5723230210715,None,1,1002.5723230210715,None,1004.3063584869378,None,1004.3063584869378,None,1004.3063584869378,None,1004.3063584869378,None,1004.3063584869378,None,1004.3063584869378,None,1004.3063584869378,None,1008.3078585768526,None,1008.3078585768526,None,1008.3078585768526,None,1008.3078585768526,None,1008.3078585768526,None,1008.3078585768526,None,1008.3078585768526,None,1009.2915841371869,None,1.701028047973523,,,,,,,,,,,,,,,,,,,,,,,,,,,,,,22694,2019_Oct_07_1051,Mmi_3levels,3.1.5,59.99523899930179,
,,,3,1,4.5,,,,,,,,,0,2,2,2,0,10,10,12,,,,,,,,,,,,,,,,,,,,,,,,,,,,,,,,,,,,,,,,,,,,,,,,,,,,,,,,,,,,True,True,True,0.58,-0.42000000000000004,-4.359999999999999,10.24,4.5,-5.74,-0.6200000000000001,certain,certain,-0.6200000000000001,11.075416666666701,1011.3090658804285,None,1011.3090658804285,None,1011.3090658804285,None,1011.3090658804285,None,1011.3090658804285,None,1011.3090658804285,None,1011.3090658804285,None,3,1011.3090658804285,None,1012.9763889430906,None,1012.9763889430906,None,1012.9763889430906,None,1012.9763889430906,None,1012.9763889430906,None,1012.9763889430906,None,1012.9763889430906,None,1016.9779277511989,None,1016.9779277511989,None,1016.9779277511989,None,1016.9779277511989,None,1016.9779277511989,None,1016.9779277511989,None,1016.9779277511989,None,1026.4649929955194,None,1.6343662024009973,1017.9616443519772,None,1018.9620632123842,None,0.61,7.502773950400297,1021.9631674808043,None,None,1021.9631674808043,None,,,,,,,,,,,,,,,,,,,22694,2019_Oct_07_1051,Mmi_3levels,3.1.5,59.99523899930179,
,,,3,1,1.1,,,,,,,,,0,2,2,2,0,11,11,7,,,,,,,,,,,,,,,,,,,,,,,,,,,,,,,,,,,,,,,,,,,,,,,,,,,,,,,,,,,,True,True,True,0.61,-0.39,-4.749999999999999,10.209999999999999,1.1,-9.11,-4.005,certain,certain,-4.005,7.070416666666701,1028.4824165015016,None,1028.4824165015016,None,1028.4824165015016,None,1028.4824165015016,None,1028.4824165015016,None,1028.4824165015016,None,1028.4824165015016,None,3,1028.4824165015016,None,1030.5164952293271,None,1030.5164952293271,None,1030.5164952293271,None,1030.5164952293271,None,1030.5164952293271,None,1030.5164952293271,None,1030.5164952293271,None,1034.518087794917,None,1034.518087794917,None,1034.518087794917,None,1034.518087794917,None,1034.518087794917,None,1034.518087794917,None,1034.518087794917,None,1035.5018002358847,None,2.000951955531491,,,,,,,,,,,,,,,,,,,,,,,,,,,,,,22694,2019_Oct_07_1051,Mmi_3levels,3.1.5,59.99523899930179,
,,,3,1,10.7,,,,,,,,,0,2,2,2,0,12,12,2,,,,,,,,,,,,,,,,,,,,,,,,,,,,,,,,,,,,,,,,,,,,,,,,,,,,,,,,,,,,True,True,False,0.61,-0.39,-5.139999999999999,10.599999999999998,10.7,0.10000000000000142,0.05000000000000071,gamble,win,10.7,17.7704166666667,1037.5191850236733,None,1037.5191850236733,None,1037.5191850236733,None,1037.5191850236733,None,1037.5191850236733,None,1037.5191850236733,None,1037.5191850236733,None,1,1037.5191850236733,None,1038.6196862482466,None,1038.6196862482466,None,1038.6196862482466,None,1038.6196862482466,None,1038.6196862482466,None,1038.6196862482466,None,1038.6196862482466,None,1042.6212554549275,None,1042.6212554549275,None,1042.6212554549275,None,1042.6212554549275,None,1042.6212554549275,None,1042.6212554549275,None,1042.6212554549275,None,1052.1248460071802,None,1.067527725128457,1043.6049419771007,None,1044.6053051601339,None,0.57,7.519442931632511,1047.6064804652124,None,None,1047.6064804652124,None,,,,,,,,,,,,,,,,,,,22694,2019_Oct_07_1051,Mmi_3levels,3.1.5,59.99523899930179,
,,,3,1,7.7,,,,,,,,,0,2,2,2,0,13,13,3,,,,,,,,,,,,,,,,,,,,,,,,,,,,,,,,,,,,,,,,,,,,,,,,,,,,,,,,,,,,True,True,False,0.57,-0.43000000000000005,-5.5699999999999985,11.59,7.7,-3.8899999999999997,1.9050000000000002,gamble,win,7.7,25.4704166666667,1054.14232999034,None,1054.14232999034,None,1054.14232999034,None,1054.14232999034,None,1054.14232999034,None,1054.14232999034,None,1054.14232999034,None,1,1054.14232999034,None,1055.592975496169,None,1055.592975496169,None,1055.592975496169,None,1055.592975496169,None,1055.592975496169,None,1055.592975496169,None,1055.592975496169,None,1059.5944368678902,None,1059.5944368678902,None,1059.5944368678902,None,1059.5944368678902,None,1059.5944368678902,None,1059.5944368678902,None,1059.5944368678902,None,1060.5782136258495,None,1.4176153689913917,,,,,,,,,,,,,,,,,,,,,,,,,,,,,,22694,2019_Oct_07_1051,Mmi_3levels,3.1.5,59.99523899930179,
,,,3,1,6.5,,,,,,,,,0,2,2,2,0,14,14,14,,,,,,,,,,,,,,,,,,,,,,,,,,,,,,,,,,,,,,,,,,,,,,,,,,,,,,,,,,,,True,True,False,0.57,-0.43000000000000005,-5.999999999999998,12.02,6.5,-5.52,0.4900000000000002,certain,certain,0.4900000000000002,25.960416666666703,1062.5956236924394,None,1062.5956236924394,None,1062.5956236924394,None,1062.5956236924394,None,1062.5956236924394,None,1062.5956236924394,None,1062.5956236924394,None,3,1062.5956236924394,None,1064.3963485225977,None,1064.3963485225977,None,1064.3963485225977,None,1064.3963485225977,None,1064.3963485225977,None,1064.3963485225977,None,1064.3963485225977,None,1068.397874531307,None,1068.397874531307,None,1068.397874531307,None,1068.397874531307,None,1068.397874531307,None,1068.397874531307,None,1068.397874531307,None,1069.3816122510761,None,1.767734691442456,,,,,,,,,,,,,,,,,,,,,,,,,,,,,,22694,2019_Oct_07_1051,Mmi_3levels,3.1.5,59.99523899930179,
,,,3,1,11.5,,,,,,,,,0,2,2,2,0,15,15,4,,,,,,,,,,,,,,,,,,,,,,,,,,,,,,,,,,,,,,,,,,,,,,,,,,,,,,,,,,,,True,True,False,0.57,-0.43000000000000005,-6.429999999999998,12.45,11.5,-0.9499999999999993,-0.47499999999999964,gamble,win,11.5,37.4604166666667,1071.3990152780025,None,1071.3990152780025,None,1071.3990152780025,None,1071.3990152780025,None,1071.3990152780025,None,1071.3990152780025,None,1071.3990152780025,None,1,1071.3990152780025,None,1072.84960702635,None,1072.84960702635,None,1072.84960702635,None,1072.84960702635,None,1072.84960702635,None,1072.84960702635,None,1072.84960702635,None,1076.8511439145368,None,1076.8511439145368,None,1076.8511439145368,None,1076.8511439145368,None,1076.8511439145368,None,1076.8511439145368,None,1076.8511439145368,None,1086.3382091588574,None,1.417624008608982,1077.8348496358085,None,1078.8352499371103,None,0.7,7.502983220620081,1081.836397403502,None,None,1081.836397403502,None,,,,,,,,,,,,,,,,,,,22694,2019_Oct_07_1051,Mmi_3levels,3.1.5,59.99523899930179,
,,,3,1,2.1,,,,,,,,,0,2,2,2,0,16,16,1,,,,,,,,,,,,,,,,,,,,,,,,,,,,,,,,,,,,,,,,,,,,,,,,,,,,,,,,,,,,True,True,True,0.7,-0.30000000000000004,-6.729999999999998,10.93,2.1,-8.83,-3.365,gamble,win,2.1,39.560416666666704,1088.3556355446926,None,1088.3556355446926,None,1088.3556355446926,None,1088.3556355446926,None,1088.3556355446926,None,1088.3556355446926,None,1088.3556355446926,None,1,1088.3556355446926,None,1090.6065031841572,None,1090.6065031841572,None,1090.6065031841572,None,1090.6065031841572,None,1090.6065031841572,None,1090.6065031841572,None,1090.6065031841572,None,1094.6080301528273,None,1094.6080301528273,None,1094.6080301528273,None,1094.6080301528273,None,1094.6080301528273,None,1094.6080301528273,None,1094.6080301528273,None,1095.5917461136123,None,2.2179133390891366,,,,,,,,,,,,,,,,,,,,,,,,,,,,,,22694,2019_Oct_07_1051,Mmi_3levels,3.1.5,59.99523899930179,
,,,3,1,5.1,,,,,,,,,0,2,2,2,0,17,17,10,,,,,,,,,,,,,,,,,,,,,,,,,,,,,,,,,,,,,,,,,,,,,,,,,,,,,,,,,,,,True,True,True,0.7,-0.30000000000000004,-7.029999999999998,11.229999999999999,5.1,-6.129999999999999,-0.5149999999999997,gamble,win,5.1,44.660416666666706,1097.609189458657,None,1097.609189458657,None,1097.609189458657,None,1097.609189458657,None,1097.609189458657,None,1097.609189458657,None,1097.609189458657,None,1,1097.609189458657,None,1099.7100244276517,None,1099.7100244276517,None,1099.7100244276517,None,1099.7100244276517,None,1099.7100244276517,None,1099.7100244276517,None,1099.7100244276517,None,1103.7116265927907,None,1103.7116265927907,None,1103.7116265927907,None,1103.7116265927907,None,1103.7116265927907,None,1103.7116265927907,None,1103.7116265927907,None,1113.1985868820047,None,2.067868829180952,1104.6953310341341,None,1105.6956986969453,None,0.77,7.502800189162372,1108.6968208845065,None,None,1108.6968208845065,None,,,,,,,,,,,,,,,,,,,22694,2019_Oct_07_1051,Mmi_3levels,3.1.5,59.99523899930179,
,,,3,1,7.1,,,,,,,,,0,2,2,2,0,18,18,15,,,,,,,,,,,,,,,,,,,,,,,,,,,,,,,,,,,,,,,,,,,,,,,,,,,,,,,,,,,,True,True,True,0.77,-0.22999999999999998,-7.259999999999998,10.479999999999997,7.1,-3.3799999999999972,1.8600000000000012,gamble,win,7.1,51.76041666666671,1115.216064465465,None,1115.216064465465,None,1115.216064465465,None,1115.216064465465,None,1115.216064465465,None,1115.216064465465,None,1115.216064465465,None,None,1115.216064465465,None,1118.217250010086,None,1118.217250010086,None,1118.217250010086,None,1118.217250010086,None,1118.217250010086,None,1118.217250010086,None,1118.217250010086,None,1122.2188307362085,None,1122.2188307362085,None,1122.2188307362085,None,1122.2188307362085,None,1122.2188307362085,None,1122.2188307362085,None,1122.2188307362085,None,1123.2024833399628,None,,,,,,,,,,,,,,,,,,,,,,,,,,,,,,,22694,2019_Oct_07_1051,Mmi_3levels,3.1.5,59.99523899930179,
,,,3,1,13.7,,,,,,,,,0,2,2,2,0,19,19,20,,,,,,,,,,,,,,,,,,,,,,,,,,,,,,,,,,,,,,,,,,,,,,,,,,,,,,,,,,,,True,True,True,0.77,-0.22999999999999998,-7.489999999999998,10.709999999999997,13.7,2.990000000000002,1.495000000000001,gamble,win,13.7,65.4604166666667,1125.2199273250008,None,1125.2199273250008,None,1125.2199273250008,None,1125.2199273250008,None,1125.2199273250008,None,1125.2199273250008,None,1125.2199273250008,None,1,1125.2199273250008,None,1126.537157943967,None,1126.537157943967,None,1126.537157943967,None,1126.537157943967,None,1126.537157943967,None,1126.537157943967,None,1126.537157943967,None,1130.5385831573803,None,1130.5385831573803,None,1130.5385831573803,None,1130.5385831573803,None,1130.5385831573803,None,1130.5385831573803,None,1130.5385831573803,None,1140.0256864799303,None,1.2842567995248828,1131.5223080777505,None,1132.5226962196175,None,0.85,7.502915383782238,1135.52390384319,None,None,1135.52390384319,None,,,,,,,,,,,,,,,,,,,22694,2019_Oct_07_1051,Mmi_3levels,3.1.5,59.99523899930179,
,,,3,1,8.1,,,,,,,,,0,2,2,2,0,20,20,25,,,,,,,,,,,,,,,,,,,,,,,,,,,,,,,,,,,,,,,,,,,,,,,,,,,,,,,,,,,,True,True,False,0.85,-0.15000000000000002,-7.639999999999999,9.739999999999998,8.1,-1.6399999999999988,-0.8199999999999994,gamble,win,8.1,73.5604166666667,1142.04318326246,None,1142.04318326246,None,1142.04318326246,None,1142.04318326246,None,1142.04318326246,None,1142.04318326246,None,1142.04318326246,None,1,1142.04318326246,None,1144.010607824399,None,1144.010607824399,None,1144.010607824399,None,1144.010607824399,None,1144.010607824399,None,1144.010607824399,None,1144.010607824399,None,1148.0121223136375,None,1148.0121223136375,None,1148.0121223136375,None,1148.0121223136375,None,1148.0121223136375,None,1148.0121223136375,None,1148.0121223136375,None,1148.9958094757749,None,1.9344830609625205,,,,,,,,,,,,,,,,,,,,,,,,,,,,,,22694,2019_Oct_07_1051,Mmi_3levels,3.1.5,59.99523899930179,
,,,3,1,5.5,,,,,,,,,0,2,2,2,0,21,21,6,,,,,,,,,,,,,,,,,,,,,,,,,,,,,,,,,,,,,,,,,,,,,,,,,,,,,,,,,,,,True,True,False,0.85,-0.15000000000000002,-7.789999999999999,9.89,5.5,-4.390000000000001,0.5549999999999997,certain,certain,0.5549999999999997,74.1154166666667,1151.0133340970206,None,1151.0133340970206,None,1151.0133340970206,None,1151.0133340970206,None,1151.0133340970206,None,1151.0133340970206,None,1151.0133340970206,None,3,1151.0133340970206,None,1153.9977517850348,None,1153.9977517850348,None,1153.9977517850348,None,1153.9977517850348,None,1153.9977517850348,None,1153.9977517850348,None,1153.9977517850348,None,1157.9993197117874,None,1157.9993197117874,None,1157.9993197117874,None,1157.9993197117874,None,1157.9993197117874,None,1157.9993197117874,None,1157.9993197117874,None,1158.983112788963,None,2.9515837020007893,,,,,,,,,,,,,,,,,,,,,,,,,,,,,,22694,2019_Oct_07_1051,Mmi_3levels,3.1.5,59.99523899930179,
,,,3,1,4.3,,,,,,,,,0,2,2,2,0,22,22,11,,,,,,,,,,,,,,,,,,,,,,,,,,,,,,,,,,,,,,,,,,,,,,,,,,,,,,,,,,,,True,True,False,0.85,-0.15000000000000002,-7.9399999999999995,10.04,4.3,-5.739999999999999,-0.7199999999999998,gamble,win,4.3,78.4154166666667,1161.0005225355853,None,1161.0005225355853,None,1161.0005225355853,None,1161.0005225355853,None,1161.0005225355853,None,1161.0005225355853,None,1161.0005225355853,None,None,1161.0005225355853,None,1164.0016370435187,None,1164.0016370435187,None,1164.0016370435187,None,1164.0016370435187,None,1164.0016370435187,None,1164.0016370435187,None,1164.0016370435187,None,1168.0032603276777,None,1168.0032603276777,None,1168.0032603276777,None,1168.0032603276777,None,1168.0032603276777,None,1168.0032603276777,None,1168.0032603276777,None,1177.4902599750494,None,,1168.9869231709454,None,1169.9873465111596,None,0.86,7.502812348597217,1172.9884683787532,None,None,1172.9884683787532,None,,,,,,,,,,,,,,,,,,,22694,2019_Oct_07_1051,Mmi_3levels,3.1.5,59.99523899930179,
,,,3,1,5.9,,,,,,,,,0,2,2,2,0,23,23,5,,,,,,,,,,,,,,,,,,,,,,,,,,,,,,,,,,,,,,,,,,,,,,,,,,,,,,,,,,,,True,True,False,0.86,-0.14,-8.08,10.040000000000001,5.9,-4.140000000000001,0.8799999999999999,gamble,win,5.9,84.3154166666667,1179.5077007602085,None,1179.5077007602085,None,1179.5077007602085,None,1179.5077007602085,None,1179.5077007602085,None,1179.5077007602085,None,1179.5077007602085,None,1,1179.5077007602085,None,1182.0420130771527,None,1182.0420130771527,None,1182.0420130771527,None,1182.0420130771527,None,1182.0420130771527,None,1182.0420130771527,None,1182.0420130771527,None,1186.0435832437943,None,1186.0435832437943,None,1186.0435832437943,None,1186.0435832437943,None,1186.0435832437943,None,1186.0435832437943,None,1186.0435832437943,None,1187.0272508868366,None,2.501351296872599,,,,,,,,,,,,,,,,,,,,,,,,,,,,,,22694,2019_Oct_07_1051,Mmi_3levels,3.1.5,59.99523899930179,
,,,3,1,3.5,,,,,,,,,0,2,2,2,0,24,24,26,,,,,,,,,,,,,,,,,,,,,,,,,,,,,,,,,,,,,,,,,,,,,,,,,,,,,,,,,,,,True,False,True,0.86,-0.14,-8.22,-1.175,3.5,2.325,1.1625,gamble,lose,2.325,86.64041666666671,1189.0447444695164,None,1189.0447444695164,None,1189.0447444695164,None,1189.0447444695164,None,1189.0447444695164,None,1189.0447444695164,None,1189.0447444695164,None,1,1189.0447444695164,None,1190.3952637732727,None,1190.3952637732727,None,1190.3952637732727,None,1190.3952637732727,None,1190.3952637732727,None,1190.3952637732727,None,1190.3952637732727,None,1194.3968099410413,None,1194.3968099410413,None,1194.3968099410413,None,1194.3968099410413,None,1194.3968099410413,None,1194.3968099410413,None,1194.3968099410413,None,1203.8838115083054,None,1.317527565115597,1195.380518542166,None,1196.3808990043763,None,0.68,7.502725312660914,1199.3820330314047,None,None,1199.3820330314047,None,,,,,,,,,,,,,,,,,,,22694,2019_Oct_07_1051,Mmi_3levels,3.1.5,59.99523899930179,
,,,3,1,-0.7,,,,,,,,,0,2,2,2,0,25,25,13,,,,,,,,,,,,,,,,,,,,,,,,,,,,,,,,,,,,,,,,,,,,,,,,,,,,,,,,,,,,True,True,False,0.68,-0.31999999999999995,-8.540000000000001,13.02,-0.7,-13.719999999999999,-7.209999999999999,certain,certain,-7.209999999999999,79.43041666666672,1205.9012417339836,None,1205.9012417339836,None,1205.9012417339836,None,1205.9012417339836,None,1205.9012417339836,None,1205.9012417339836,None,1205.9012417339836,None,3,1205.9012417339836,None,1208.468964329979,None,1208.468964329979,None,1208.468964329979,None,1208.468964329979,None,1208.468964329979,None,1208.468964329979,None,1208.468964329979,None,1212.4705159374862,None,1212.4705159374862,None,1212.4705159374862,None,1212.4705159374862,None,1212.4705159374862,None,1212.4705159374862,None,1212.4705159374862,None,1213.454179420718,None,2.5346054232504684,,,,,,,,,,,,,,,,,,,,,,,,,,,,,,22694,2019_Oct_07_1051,Mmi_3levels,3.1.5,59.99523899930179,
,,,3,1,11.7,,,,,,,,,0,2,2,2,0,26,26,22,,,,,,,,,,,,,,,,,,,,,,,,,,,,,,,,,,,,,,,,,,,,,,,,,,,,,,,,,,,,True,True,False,0.68,-0.31999999999999995,-8.860000000000001,13.34,11.7,-1.6400000000000006,-0.8200000000000003,gamble,win,11.7,91.13041666666672,1215.4716483645898,None,1215.4716483645898,None,1215.4716483645898,None,1215.4716483645898,None,1215.4716483645898,None,1215.4716483645898,None,1215.4716483645898,None,1,1215.4716483645898,None,1216.988902598474,None,1216.988902598474,None,1216.988902598474,None,1216.988902598474,None,1216.988902598474,None,1216.988902598474,None,1216.988902598474,None,1220.9904305270757,None,1220.9904305270757,None,1220.9904305270757,None,1220.9904305270757,None,1220.9904305270757,None,1220.9904305270757,None,1220.9904305270757,None,1230.477507930831,None,1.4842922538809944,1221.9741900058289,None,1222.9745970268268,None,0.73,7.502776510285912,1225.975680816191,None,None,1225.975680816191,None,,,,,,,,,,,,,,,,,,,22694,2019_Oct_07_1051,Mmi_3levels,3.1.5,59.99523899930179,
,,,,,,,,,,,,,,,,,,,,,,,,,,,,,,0,0,0,0,,,,,,,,,,,,,,,,,,,,,,,,,,,,,,,,,,,,,,,,,,,,,,,,,,,,,,,,,,,,,,,,,,,,,,,,,,,,,,,,,,,,,,,,,,,,,,,,,,,,,,,,,,,,,,,,,,,,,,,,,1232.4782659753982,None,4,9.370643483533058,1232.4782659753982,None,91.13041666666672,3,1241.8819415156904,None,1241.8819415156904,None,1241.8819415156904,None,4,10.104240889864741,1241.8819415156904,None,22694,2019_Oct_07_1051,Mmi_3levels,3.1.5,59.99523899930179,
