currSlide,currImage,currText,blockNum,targetHappiness,highAmount,instructionLoop1.thisRepN,instructionLoop1.thisTrialN,instructionLoop1.thisN,instructionLoop1.thisIndex,instructionLoop2.thisRepN,instructionLoop2.thisTrialN,instructionLoop2.thisN,instructionLoop2.thisIndex,blockLoop.thisRepN,blockLoop.thisTrialN,blockLoop.thisN,blockLoop.thisIndex,trialLoop.thisRepN,trialLoop.thisTrialN,trialLoop.thisN,trialLoop.thisIndex,doRatingLoop.thisRepN,doRatingLoop.thisTrialN,doRatingLoop.thisN,doRatingLoop.thisIndex,trialHappyLoop.thisRepN,trialHappyLoop.thisTrialN,trialHappyLoop.thisN,trialHappyLoop.thisIndex,logWinningsLoop.thisRepN,logWinningsLoop.thisTrialN,logWinningsLoop.thisN,logWinningsLoop.thisIndex,instrImage.started,instrImage.stopped,instrText.started,instrText.stopped,instrContinueText.started,instrContinueText.stopped,instrKeyResp.keys,instrKeyResp.rt,instrKeyResp.started,instrKeyResp.stopped,lifeHappyText.started,lifeHappyText.stopped,lifeHappySlider.response,lifeHappySlider.rt,lifeHappySlider.started,lifeHappySlider.stopped,lifeHappyResp.keys,lifeHappyResp.rt,lifeHappyResp.started,lifeHappyResp.stopped,instrImage_2.started,instrImage_2.stopped,instrText_2.started,instrText_2.stopped,instrContinueText_2.started,instrContinueText_2.stopped,instrKeyResp_2.keys,instrKeyResp_2.rt,instrKeyResp_2.started,instrKeyResp_2.stopped,localizing.started,localizing.stopped,start_exp.keys,start_exp.rt,start_exp.started,start_exp.stopped,blockHappyText.started,blockHappyText.stopped,blockHappySlider.response,blockHappySlider.rt,blockHappySlider.started,blockHappySlider.stopped,blockHappyResp.keys,blockHappyResp.rt,blockHappyResp.started,blockHappyResp.stopped,blankText.started,blankText.stopped,isHappyBlock,isCongruent,isWinOnTop,lastHappyRating,diff,sumDiff,RPE,winAmount,loseAmount,certainAmount,choice,outcome,outcomeAmount,currentWinnings,fixCross.started,fixCross.stopped,certainBox.started,certainBox.stopped,outcome1Box.started,outcome1Box.stopped,outcome2Box.started,outcome2Box.stopped,certainText.started,certainText.stopped,outcome1Text.started,outcome1Text.stopped,outcome2Text.started,outcome2Text.stopped,choiceKey.keys,choiceKey.rt,choiceKey.started,choiceKey.stopped,fixCross_2.started,fixCross_2.stopped,certainBox_2.started,certainBox_2.stopped,outcome1Box_2.started,outcome1Box_2.stopped,outcome2Box_2.started,outcome2Box_2.stopped,certainText_2.started,certainText_2.stopped,outcome1Text_2.started,outcome1Text_2.stopped,outcome2Text_2.started,outcome2Text_2.stopped,fixCross_3.started,fixCross_3.stopped,certainBox_3.started,certainBox_3.stopped,outcome1Box_3.started,outcome1Box_3.stopped,outcome2Box_3.started,outcome2Box_3.stopped,certainText_3.started,certainText_3.stopped,outcome1Text_3.started,outcome1Text_3.stopped,outcome2Text_3.started,outcome2Text_3.stopped,fixCross_ITI.started,fixCross_ITI.stopped,fixCross_ISI.started,fixCross_ISI.stopped,happyText.started,happyText.stopped,happySlider.response,happySlider.rt,happySlider.started,happySlider.stopped,happyResp.keys,happyResp.started,happyResp.stopped,endOfBlockText.started,endOfBlockText.stopped,restKeyResp.keys,restKeyResp.rt,restKeyResp.started,restKeyResp.stopped,finalWinnings,cashBonus,goodbyeText.started,goodbyeText.stopped,finalWinningsText.started,finalWinningsText.stopped,spaceToContinue.started,spaceToContinue.stopped,goodbyeKeyResp_2.keys,goodbyeKeyResp_2.rt,goodbyeKeyResp_2.started,goodbyeKeyResp_2.stopped,participant,date,expName,psychopyVersion,frameRate,
1,black.png,"Welcome! You are about to play our gambling task.
This task has 3 blocks and takes about 15 minutes.",,,,0,0,0,0,,,,,,,,,,,,,,,,,,,,,,,,,8.639264922247094,None,8.639264922247094,None,8.639264922247094,None,space,0.551469265952619,8.639264922247094,None,,,,,,,,,,,,,,,,,,,,,,,,,,,,,,,,,,,,,,,,,,,,,,,,,,,,,,,,,,,,,,,,,,,,,,,,,,,,,,,,,,,,,,,,,,,,,,,,,,,,,,,,,,,,,,,,,,,,,,,,,,,,,,,,,,24287,2020_Mar_09_1654,Mmi_3levels,3.1.5,59.96270038503252,
2,black.png,"In this game, you may win or lose points. Your goal is to get as many points as possible. These points will be converted to a cash bonus at the end.
Sometimes we will ask you to rate your mood.",,,,0,1,1,1,,,,,,,,,,,,,,,,,,,,,,,,,9.222858881736101,None,9.222858881736101,None,9.222858881736101,None,space,0.2669755782571883,9.222858881736101,None,,,,,,,,,,,,,,,,,,,,,,,,,,,,,,,,,,,,,,,,,,,,,,,,,,,,,,,,,,,,,,,,,,,,,,,,,,,,,,,,,,,,,,,,,,,,,,,,,,,,,,,,,,,,,,,,,,,,,,,,,,,,,,,,,,24287,2020_Mar_09_1654,Mmi_3levels,3.1.5,59.96270038503252,
3,black.png,"On the next screen, please rate how you feel about your life these days. Use the LEFT (green) and RIGHT (blue) buttons to move the slider (you can press and hold them to slide gradually) and the TOP (red) button to lock in your response.
Make your rating as accurately and quickly as you can!",,,,0,2,2,2,,,,,,,,,,,,,,,,,,,,,,,,,9.539652613651924,None,9.539652613651924,None,9.539652613651924,None,4,0.05035604508702818,9.539652613651924,None,,,,,,,,,,,,,,,,,,,,,,,,,,,,,,,,,,,,,,,,,,,,,,,,,,,,,,,,,,,,,,,,,,,,,,,,,,,,,,,,,,,,,,,,,,,,,,,,,,,,,,,,,,,,,,,,,,,,,,,,,,,,,,,,,,24287,2020_Mar_09_1654,Mmi_3levels,3.1.5,59.96270038503252,
,,,,,,,,,,,,,,,,,,,,,,,,,,,,,,,,,,,,,,,,,,,,9.606379309130716,None,0.25,7.553069500949277,13.607859230516624,None,4,3.53587137451359,13.607859230516624,None,,,,,,,,,,,,,,,,,,,,,,,,,,,,,,,,,,,,,,,,,,,,,,,,,,,,,,,,,,,,,,,,,,,,,,,,,,,,,,,,,,,,,,,,,,,,,,,,,,,,,,,,,,,,,,,,,,,,,,,,24287,2020_Mar_09_1654,Mmi_3levels,3.1.5,59.96270038503252,
4,black.png,"In this game you can win money by earning points according to your choices. You will decide whether to gamble a number of points or stick with a guaranteed number of points. 
Make your choice by pressing the left or right arrow key once. An example of one trial is shown on the next screen.",,,,,,,,0,0,0,0,,,,,,,,,,,,,,,,,,,,,,,,,,,,,,,,,,,,,,,,,17.22703913967962,None,17.22703913967962,None,17.22703913967962,None,4,1.767533308629936,17.22703913967962,None,,,,,,,,,,,,,,,,,,,,,,,,,,,,,,,,,,,,,,,,,,,,,,,,,,,,,,,,,,,,,,,,,,,,,,,,,,,,,,,,,,,,,,,,,,,,,,,,,,,,,,,,,,,,,,24287,2020_Mar_09_1654,Mmi_3levels,3.1.5,59.96270038503252,
5,example_start.png,"The GAMBLING OPTION will be shown on the RIGHT SIDE. 
Select this option using the RIGHT (blue) button on your keypad.",,,,,,,,0,1,1,1,,,,,,,,,,,,,,,,,,,,,,,,,,,,,,,,,,,,,,,,,19.061058836554366,None,19.061058836554366,None,19.061058836554366,None,4,1.9175858178405178,19.061058836554366,None,,,,,,,,,,,,,,,,,,,,,,,,,,,,,,,,,,,,,,,,,,,,,,,,,,,,,,,,,,,,,,,,,,,,,,,,,,,,,,,,,,,,,,,,,,,,,,,,,,,,,,,,,,,,,,24287,2020_Mar_09_1654,Mmi_3levels,3.1.5,59.96270038503252,
6,example_gamble.png,"Once you select the gambling choice, the choice you made will remain on the screen.",,,,,,,,0,2,2,2,,,,,,,,,,,,,,,,,,,,,,,,,,,,,,,,,,,,,,,,,21.01179361352297,None,21.01179361352297,None,21.01179361352297,None,4,0.9172130376427958,21.01179361352297,None,,,,,,,,,,,,,,,,,,,,,,,,,,,,,,,,,,,,,,,,,,,,,,,,,,,,,,,,,,,,,,,,,,,,,,,,,,,,,,,,,,,,,,,,,,,,,,,,,,,,,,,,,,,,,,24287,2020_Mar_09_1654,Mmi_3levels,3.1.5,59.96270038503252,
7,example_win.png,"The outcome you received will then be shown on the screen. In this example , you WON 10 points.",,,,,,,,0,3,3,3,,,,,,,,,,,,,,,,,,,,,,,,,,,,,,,,,,,,,,,,,21.99554839646771,None,21.99554839646771,None,21.99554839646771,None,4,1.4340409437463677,21.99554839646771,None,,,,,,,,,,,,,,,,,,,,,,,,,,,,,,,,,,,,,,,,,,,,,,,,,,,,,,,,,,,,,,,,,,,,,,,,,,,,,,,,,,,,,,,,,,,,,,,,,,,,,,,,,,,,,,24287,2020_Mar_09_1654,Mmi_3levels,3.1.5,59.96270038503252,
8,example_start.png,"The GUARANTEED OPTION will be shown on the LEFT SIDE. You are 100% guaranteed to gain or lose this amount. In this example, you have a 100% chance of winning 1 point. Select this option using the LEFT (green) button on your keyboard.",,,,,,,,0,4,4,4,,,,,,,,,,,,,,,,,,,,,,,,,,,,,,,,,,,,,,,,,23.479456131290135,None,23.479456131290135,None,23.479456131290135,None,4,1.0172483637670666,23.479456131290135,None,,,,,,,,,,,,,,,,,,,,,,,,,,,,,,,,,,,,,,,,,,,,,,,,,,,,,,,,,,,,,,,,,,,,,,,,,,,,,,,,,,,,,,,,,,,,,,,,,,,,,,,,,,,,,,24287,2020_Mar_09_1654,Mmi_3levels,3.1.5,59.96270038503252,
9,example_certain.png,"Once you select the guaranteed choice, your selection will remain on the screen.",,,,,,,,0,5,5,5,,,,,,,,,,,,,,,,,,,,,,,,,,,,,,,,,,,,,,,,,24.529795217276842,None,24.529795217276842,None,24.529795217276842,None,4,1.1006314544574707,24.529795217276842,None,,,,,,,,,,,,,,,,,,,,,,,,,,,,,,,,,,,,,,,,,,,,,,,,,,,,,,,,,,,,,,,,,,,,,,,,,,,,,,,,,,,,,,,,,,,,,,,,,,,,,,,,,,,,,,24287,2020_Mar_09_1654,Mmi_3levels,3.1.5,59.96270038503252,
10,black.png,"Please make your choices as fast as possible.
You will be given a break at the end of each block.
Let's play!",,,,,,,,0,6,6,6,,,,,,,,,,,,,,,,,,,,,,,,,,,,,,,,,,,,,,,,,25.66362618817584,None,25.66362618817584,None,25.66362618817584,None,4,1.017193646674059,25.66362618817584,None,,,,,,,,,,,,,,,,,,,,,,,,,,,,,,,,,,,,,,,,,,,,,,,,,,,,,,,,,,,,,,,,,,,,,,,,,,,,,,,,,,,,,,,,,,,,,,,,,,,,,,,,,,,,,,24287,2020_Mar_09_1654,Mmi_3levels,3.1.5,59.96270038503252,
,,,,,,,,,,,,,,,,,,,,,,,,,,,,,,,,,,,,,,,,,,,,,,,,,,,,,,,,,,,,,,,,26.697315278612223,None,space,65.47524771484132,26.697315278612223,None,,,,,,,,,,,,,,,,,,,,,,,,,,,,,,,,,,,,,,,,,,,,,,,,,,,,,,,,,,,,,,,,,,,,,,,,,,,,,,,,,,,,,,,,,,,,,,,,,,,,,,,,24287,2020_Mar_09_1654,Mmi_3levels,3.1.5,59.96270038503252,
,,,1,1,-1.3,,,,,,,,,0,0,0,0,0,0,0,21,,,,,,,,,,,,,,,,,,,,,,,,,,,,,,,,,,,,,,,,,,,,,,,,,92.18894900302803,None,0.62,6.042608296645994,95.20677109631833,None,4,3.018011203244896,95.20677109631833,None,98.24123358567158,None,True,False,False,0.62,-0.38,-0.38,-1.3616666666666668,-1.3,-2.661666666666667,-1.9808333333333334,certain,certain,-1.9808333333333334,-1.9808333333333334,101.27581414875203,None,101.27581414875203,None,101.27581414875203,None,101.27581414875203,None,101.27581414875203,None,101.27581414875203,None,101.27581414875203,None,3,2.400939662085875,101.27581414875203,None,103.71002596342078,None,103.71002596342078,None,103.71002596342078,None,103.71002596342078,None,103.71002596342078,None,103.71002596342078,None,103.71002596342078,None,107.69498004265915,None,107.69498004265915,None,107.69498004265915,None,107.69498004265915,None,107.69498004265915,None,107.69498004265915,None,107.69498004265915,None,108.69526098773531,None,,,,,,,,,,,,,,,,,,,,,,,,,,,,,,24287,2020_Mar_09_1654,Mmi_3levels,3.1.5,59.96270038503252,
,,,1,1,-0.1,,,,,,,,,0,0,0,0,0,1,1,13,,,,,,,,,,,,,,,,,,,,,,,,,,,,,,,,,,,,,,,,,,,,,,,,,,,,,,,,,,,,,True,True,False,0.62,-0.38,-0.76,6.08,-0.1,-6.18,-3.1399999999999997,certain,certain,-3.1399999999999997,-5.120833333333334,110.71273173968984,None,110.71273173968984,None,110.71273173968984,None,110.71273173968984,None,110.71273173968984,None,110.71273173968984,None,110.71273173968984,None,3,2.1677107712039287,110.71273173968984,None,112.91353259314747,None,112.91353259314747,None,112.91353259314747,None,112.91353259314747,None,112.91353259314747,None,112.91353259314747,None,112.91353259314747,None,116.91506211190062,None,116.91506211190062,None,116.91506211190062,None,116.91506211190062,None,116.91506211190062,None,116.91506211190062,None,116.91506211190062,None,117.89873177936715,None,,,,,,,,,,,,,,,,,,,,,,,,,,,,,,24287,2020_Mar_09_1654,Mmi_3levels,3.1.5,59.96270038503252,
,,,1,1,3.7,,,,,,,,,0,0,0,0,0,2,2,18,,,,,,,,,,,,,,,,,,,,,,,,,,,,,,,,,,,,,,,,,,,,,,,,,,,,,,,,,,,,,True,False,False,0.62,-0.38,-1.1400000000000001,-1.425,3.7,2.2750000000000004,1.1375000000000002,gamble,lose,2.2750000000000004,-2.845833333333333,119.91620157137186,None,119.91620157137186,None,119.91620157137186,None,119.91620157137186,None,119.91620157137186,None,119.91620157137186,None,119.91620157137186,None,1,1.4676727572223172,119.91620157137186,None,121.41678330047034,None,121.41678330047034,None,121.41678330047034,None,121.41678330047034,None,121.41678330047034,None,121.41678330047034,None,121.41678330047034,None,125.4016439446732,None,125.4016439446732,None,125.4016439446732,None,125.4016439446732,None,125.4016439446732,None,125.4016439446732,None,125.4016439446732,None,134.90523895370643,None,126.40203496390131,None,127.4024435821957,None,0.68,7.502753133752776,130.40348320697194,None,None,130.40348320697194,None,,,,,,,,,,,,,,,,,,,24287,2020_Mar_09_1654,Mmi_3levels,3.1.5,59.96270038503252,
,,,1,1,10.7,,,,,,,,,0,0,0,0,0,3,3,11,,,,,,,,,,,,,,,,,,,,,,,,,,,,,,,,,,,,,,,,,,,,,,,,,,,,,,,,,,,,,True,False,True,0.68,-0.31999999999999995,-1.46,-1.2416666666666665,10.7,9.458333333333332,4.729166666666666,gamble,lose,9.458333333333332,6.612499999999999,136.9226908266628,None,136.9226908266628,None,136.9226908266628,None,136.9226908266628,None,136.9226908266628,None,136.9226908266628,None,136.9226908266628,None,1,1.8343028818308085,136.9226908266628,None,138.79006747161475,None,138.79006747161475,None,138.79006747161475,None,138.79006747161475,None,138.79006747161475,None,138.79006747161475,None,138.79006747161475,None,142.77497131352357,None,142.77497131352357,None,142.77497131352357,None,142.77497131352357,None,142.77497131352357,None,142.77497131352357,None,142.77497131352357,None,143.77530697569273,None,,,,,,,,,,,,,,,,,,,,,,,,,,,,,,24287,2020_Mar_09_1654,Mmi_3levels,3.1.5,59.96270038503252,
,,,1,1,6.5,,,,,,,,,0,0,0,0,0,4,4,26,,,,,,,,,,,,,,,,,,,,,,,,,,,,,,,,,,,,,,,,,,,,,,,,,,,,,,,,,,,,,True,False,True,0.68,-0.31999999999999995,-1.7799999999999998,-1.268333333333333,6.5,5.231666666666667,2.6158333333333337,gamble,lose,5.231666666666667,11.844166666666666,145.79274028963482,None,145.79274028963482,None,145.79274028963482,None,145.79274028963482,None,145.79274028963482,None,145.79274028963482,None,145.79274028963482,None,1,1.7507601196230098,145.79274028963482,None,147.5767556027422,None,147.5767556027422,None,147.5767556027422,None,147.5767556027422,None,147.5767556027422,None,147.5767556027422,None,147.5767556027422,None,151.56165432492162,None,151.56165432492162,None,151.56165432492162,None,151.56165432492162,None,151.56165432492162,None,151.56165432492162,None,151.56165432492162,None,161.06518853718444,None,152.56202806506917,None,153.56237076686375,None,0.68,7.502756013600447,156.563466068681,None,None,156.563466068681,None,,,,,,,,,,,,,,,,,,,24287,2020_Mar_09_1654,Mmi_3levels,3.1.5,59.96270038503252,
,,,1,1,-1.1,,,,,,,,,0,0,0,0,0,5,5,24,,,,,,,,,,,,,,,,,,,,,,,,,,,,,,,,,,,,,,,,,,,,,,,,,,,,,,,,,,,,,True,True,False,0.68,-0.31999999999999995,-2.0999999999999996,6.579999999999999,-1.1,-7.68,-4.39,certain,certain,-4.39,7.454166666666667,163.0826746483217,None,163.0826746483217,None,163.0826746483217,None,163.0826746483217,None,163.0826746483217,None,163.0826746483217,None,163.0826746483217,None,3,1.9008209483927203,163.0826746483217,None,165.01677382897287,None,165.01677382897287,None,165.01677382897287,None,165.01677382897287,None,165.01677382897287,None,165.01677382897287,None,165.01677382897287,None,169.0182828688139,None,169.0182828688139,None,169.0182828688139,None,169.0182828688139,None,169.0182828688139,None,169.0182828688139,None,169.0182828688139,None,170.00198901434305,None,,,,,,,,,,,,,,,,,,,,,,,,,,,,,,24287,2020_Mar_09_1654,Mmi_3levels,3.1.5,59.96270038503252,
,,,1,1,-0.5,,,,,,,,,0,0,0,0,0,6,6,8,,,,,,,,,,,,,,,,,,,,,,,,,,,,,,,,,,,,,,,,,,,,,,,,,,,,,,,,,,,,,True,False,False,0.68,-0.31999999999999995,-2.4199999999999995,-1.3216666666666665,-0.5,-1.8216666666666665,-1.1608333333333332,gamble,lose,-1.8216666666666665,5.6325,172.0194056891687,None,172.0194056891687,None,172.0194056891687,None,172.0194056891687,None,172.0194056891687,None,172.0194056891687,None,172.0194056891687,None,1,2.7346358561444504,172.0194056891687,None,174.7871373872622,None,174.7871373872622,None,174.7871373872622,None,174.7871373872622,None,174.7871373872622,None,174.7871373872622,None,174.7871373872622,None,178.77199547159944,None,178.77199547159944,None,178.77199547159944,None,178.77199547159944,None,178.77199547159944,None,178.77199547159944,None,178.77199547159944,None,179.77235257263055,None,,,,,,,,,,,,,,,,,,,,,,,,,,,,,,24287,2020_Mar_09_1654,Mmi_3levels,3.1.5,59.96270038503252,
,,,1,1,-0.9,,,,,,,,,0,0,0,0,0,7,7,0,,,,,,,,,,,,,,,,,,,,,,,,,,,,,,,,,,,,,,,,,,,,,,,,,,,,,,,,,,,,,True,True,False,0.68,-0.31999999999999995,-2.7399999999999993,7.219999999999999,-0.9,-8.12,-4.51,gamble,win,-0.9,4.7325,181.7898047655708,None,181.7898047655708,None,181.7898047655708,None,181.7898047655708,None,181.7898047655708,None,181.7898047655708,None,181.7898047655708,None,None,,181.7898047655708,None,184.7909483848216,None,184.7909483848216,None,184.7909483848216,None,184.7909483848216,None,184.7909483848216,None,184.7909483848216,None,184.7909483848216,None,188.79255213963006,None,188.79255213963006,None,188.79255213963006,None,188.79255213963006,None,188.79255213963006,None,188.79255213963006,None,188.79255213963006,None,198.27943475642496,None,189.7761827691702,None,190.77654690982672,None,0.6,7.502980961651701,193.77770012856854,None,None,193.77770012856854,None,,,,,,,,,,,,,,,,,,,24287,2020_Mar_09_1654,Mmi_3levels,3.1.5,59.96270038503252,
,,,1,1,7.1,,,,,,,,,0,0,0,0,0,8,8,3,,,,,,,,,,,,,,,,,,,,,,,,,,,,,,,,,,,,,,,,,,,,,,,,,,,,,,,,,,,,,True,False,False,0.6,-0.4,-3.1399999999999992,-1.6616666666666666,7.1,5.438333333333333,2.7191666666666663,gamble,lose,5.438333333333333,10.170833333333333,200.29686359060543,None,200.29686359060543,None,200.29686359060543,None,200.29686359060543,None,200.29686359060543,None,200.29686359060543,None,200.29686359060543,None,1,1.4674935667426325,200.29686359060543,None,201.79743764011255,None,201.79743764011255,None,201.79743764011255,None,201.79743764011255,None,201.79743764011255,None,201.79743764011255,None,201.79743764011255,None,205.7822874048925,None,205.7822874048925,None,205.7822874048925,None,205.7822874048925,None,205.7822874048925,None,205.7822874048925,None,205.7822874048925,None,206.78267650422276,None,,,,,,,,,,,,,,,,,,,,,,,,,,,,,,24287,2020_Mar_09_1654,Mmi_3levels,3.1.5,59.96270038503252,
,,,1,1,7.7,,,,,,,,,0,0,0,0,0,9,9,22,,,,,,,,,,,,,,,,,,,,,,,,,,,,,,,,,,,,,,,,,,,,,,,,,,,,,,,,,,,,,True,False,False,0.6,-0.4,-3.539999999999999,-1.695,7.7,6.005,3.0025,gamble,lose,6.005,16.175833333333333,208.80010661833512,None,208.80010661833512,None,208.80010661833512,None,208.80010661833512,None,208.80010661833512,None,208.80010661833512,None,208.80010661833512,None,1,1.2506167672363517,208.80010661833512,None,210.08392738177645,None,210.08392738177645,None,210.08392738177645,None,210.08392738177645,None,210.08392738177645,None,210.08392738177645,None,210.08392738177645,None,214.0688261039577,None,214.0688261039577,None,214.0688261039577,None,214.0688261039577,None,214.0688261039577,None,214.0688261039577,None,214.0688261039577,None,223.5724591909675,None,215.06921872310159,None,216.06957614411476,None,0.6,7.502721455435676,219.0706800854732,None,None,219.0706800854732,None,,,,,,,,,,,,,,,,,,,24287,2020_Mar_09_1654,Mmi_3levels,3.1.5,59.96270038503252,
,,,1,1,4.3,,,,,,,,,0,0,0,0,0,10,10,10,,,,,,,,,,,,,,,,,,,,,,,,,,,,,,,,,,,,,,,,,,,,,,,,,,,,,,,,,,,,,True,True,False,0.6,-0.4,-3.939999999999999,9.54,4.3,-5.239999999999999,-0.46999999999999975,certain,certain,-0.46999999999999975,15.705833333333334,225.5898960247232,None,225.5898960247232,None,225.5898960247232,None,225.5898960247232,None,225.5898960247232,None,225.5898960247232,None,225.5898960247232,None,3,1.9677383537400601,225.5898960247232,None,227.59058334821202,None,227.59058334821202,None,227.59058334821202,None,227.59058334821202,None,227.59058334821202,None,227.59058334821202,None,227.59058334821202,None,231.59213622572315,None,231.59213622572315,None,231.59213622572315,None,231.59213622572315,None,231.59213622572315,None,231.59213622572315,None,231.59213622572315,None,232.57582317227207,None,,,,,,,,,,,,,,,,,,,,,,,,,,,,,,24287,2020_Mar_09_1654,Mmi_3levels,3.1.5,59.96270038503252,
,,,1,1,1.7,,,,,,,,,0,0,0,0,0,11,11,7,,,,,,,,,,,,,,,,,,,,,,,,,,,,,,,,,,,,,,,,,,,,,,,,,,,,,,,,,,,,,True,True,True,0.6,-0.4,-4.339999999999999,9.94,1.7,-8.24,-3.27,gamble,win,1.7,17.405833333333334,234.59327888502594,None,234.59327888502594,None,234.59327888502594,None,234.59327888502594,None,234.59327888502594,None,234.59327888502594,None,234.59327888502594,None,1,2.4177333300049213,234.59327888502594,None,237.04427316820875,None,237.04427316820875,None,237.04427316820875,None,237.04427316820875,None,237.04427316820875,None,237.04427316820875,None,237.04427316820875,None,241.02906757592973,None,241.02906757592973,None,241.02906757592973,None,241.02906757592973,None,241.02906757592973,None,241.02906757592973,None,241.02906757592973,None,250.532694903246,None,242.02940707789458,None,243.02988385256867,None,0.61,7.502762733243799,246.03101051272097,None,None,246.03101051272097,None,,,,,,,,,,,,,,,,,,,24287,2020_Mar_09_1654,Mmi_3levels,3.1.5,59.96270038503252,
,,,1,1,1.3,,,,,,,,,0,0,0,0,0,12,12,9,,,,,,,,,,,,,,,,,,,,,,,,,,,,,,,,,,,,,,,,,,,,,,,,,,,,,,,,,,,,,True,True,True,0.61,-0.39,-4.729999999999999,10.189999999999998,1.3,-8.889999999999997,-3.7949999999999986,certain,certain,-3.7949999999999986,13.610833333333336,252.55016917501234,None,252.55016917501234,None,252.55016917501234,None,252.55016917501234,None,252.55016917501234,None,252.55016917501234,None,252.55016917501234,None,3,2.3510962297677906,252.55016917501234,None,254.9343692463044,None,254.9343692463044,None,254.9343692463044,None,254.9343692463044,None,254.9343692463044,None,254.9343692463044,None,254.9343692463044,None,258.91923021049115,None,258.91923021049115,None,258.91923021049115,None,258.91923021049115,None,258.91923021049115,None,258.91923021049115,None,258.91923021049115,None,259.9195601129668,None,,,,,,,,,,,,,,,,,,,,,,,,,,,,,,24287,2020_Mar_09_1654,Mmi_3levels,3.1.5,59.96270038503252,
,,,1,1,13.5,,,,,,,,,0,0,0,0,0,13,13,23,,,,,,,,,,,,,,,,,,,,,,,,,,,,,,,,,,,,,,,,,,,,,,,,,,,,,,,,,,,,,True,True,True,0.61,-0.39,-5.119999999999998,10.579999999999998,13.5,2.9200000000000017,1.4600000000000009,gamble,win,13.5,27.110833333333336,261.9370471840539,None,261.9370471840539,None,261.9370471840539,None,261.9370471840539,None,261.9370471840539,None,261.9370471840539,None,261.9370471840539,None,1,1.4009073438010091,261.9370471840539,None,263.3709262163993,None,263.3709262163993,None,263.3709262163993,None,263.3709262163993,None,263.3709262163993,None,263.3709262163993,None,263.3709262163993,None,267.3557731013316,None,267.3557731013316,None,267.3557731013316,None,267.3557731013316,None,267.3557731013316,None,267.3557731013316,None,267.3557731013316,None,268.3561622006637,None,,,,,,,,,,,,,,,,,,,,,,,,,,,,,,24287,2020_Mar_09_1654,Mmi_3levels,3.1.5,59.96270038503252,
,,,1,1,-0.3,,,,,,,,,0,0,0,0,0,14,14,14,,,,,,,,,,,,,,,,,,,,,,,,,,,,,,,,,,,,,,,,,,,,,,,,,,,,,,,,,,,,,True,False,True,0.61,-0.39,-5.509999999999998,-1.8241666666666665,-0.3,-2.1241666666666665,-1.2120833333333332,gamble,lose,-2.1241666666666665,24.986666666666668,270.3735916748101,None,270.3735916748101,None,270.3735916748101,None,270.3735916748101,None,270.3735916748101,None,270.3735916748101,None,270.3735916748101,None,None,,270.3735916748101,None,273.3747388138745,None,273.3747388138745,None,273.3747388138745,None,273.3747388138745,None,273.3747388138745,None,273.3747388138745,None,273.3747388138745,None,277.3762712124735,None,277.3762712124735,None,277.3762712124735,None,277.3762712124735,None,277.3762712124735,None,277.3762712124735,None,277.3762712124735,None,286.86319350716076,None,278.3599754381048,None,279.36034437850685,None,0.58,7.502759213430181,282.36146111918424,None,None,282.36146111918424,None,,,,,,,,,,,,,,,,,,,24287,2020_Mar_09_1654,Mmi_3levels,3.1.5,59.96270038503252,
,,,1,1,5.9,,,,,,,,,0,0,0,0,0,15,15,16,,,,,,,,,,,,,,,,,,,,,,,,,,,,,,,,,,,,,,,,,,,,,,,,,,,,,,,,,,,,,True,False,True,0.58,-0.42000000000000004,-5.929999999999998,-1.9641666666666666,5.9,3.935833333333334,1.967916666666667,gamble,lose,3.935833333333334,28.922500000000003,288.88065017986264,None,288.88065017986264,None,288.88065017986264,None,288.88065017986264,None,288.88065017986264,None,288.88065017986264,None,288.88065017986264,None,1,1.8844202195978141,288.88065017986264,None,290.79813840288807,None,290.79813840288807,None,290.79813840288807,None,290.79813840288807,None,290.79813840288807,None,290.79813840288807,None,290.79813840288807,None,294.7829872077182,None,294.7829872077182,None,294.7829872077182,None,294.7829872077182,None,294.7829872077182,None,294.7829872077182,None,294.7829872077182,None,295.7832835119789,None,,,,,,,,,,,,,,,,,,,,,,,,,,,,,,24287,2020_Mar_09_1654,Mmi_3levels,3.1.5,59.96270038503252,
,,,1,1,7.5,,,,,,,,,0,0,0,0,0,16,16,12,,,,,,,,,,,,,,,,,,,,,,,,,,,,,,,,,,,,,,,,,,,,,,,,,,,,,,,,,,,,,True,False,False,0.58,-0.42000000000000004,-6.349999999999998,-1.9991666666666665,7.5,5.5008333333333335,2.7504166666666667,gamble,lose,5.5008333333333335,34.42333333333334,297.80070242668626,None,297.80070242668626,None,297.80070242668626,None,297.80070242668626,None,297.80070242668626,None,297.80070242668626,None,297.80070242668626,None,1,1.2341917197354633,297.80070242668626,None,299.06791447238174,None,299.06791447238174,None,299.06791447238174,None,299.06791447238174,None,299.06791447238174,None,299.06791447238174,None,299.06791447238174,None,303.05276967687496,None,303.05276967687496,None,303.05276967687496,None,303.05276967687496,None,303.05276967687496,None,303.05276967687496,None,303.05276967687496,None,312.55639572425935,None,304.0531091788398,None,305.0534969982382,None,0.54,7.502812650591295,308.05466781604446,None,None,308.05466781604446,None,,,,,,,,,,,,,,,,,,,24287,2020_Mar_09_1654,Mmi_3levels,3.1.5,59.96270038503252,
,,,1,1,12.9,,,,,,,,,0,0,0,0,0,17,17,20,,,,,,,,,,,,,,,,,,,,,,,,,,,,,,,,,,,,,,,,,,,,,,,,,,,,,,,,,,,,,True,True,False,0.54,-0.45999999999999996,-6.809999999999998,13.249999999999996,12.9,-0.3499999999999961,-0.17499999999999805,gamble,win,12.9,47.32333333333334,314.5737759210224,None,314.5737759210224,None,314.5737759210224,None,314.5737759210224,None,314.5737759210224,None,314.5737759210224,None,314.5737759210224,None,1,2.6512844437711465,314.5737759210224,None,317.2581402075921,None,317.2581402075921,None,317.2581402075921,None,317.2581402075921,None,317.2581402075921,None,317.2581402075921,None,317.2581402075921,None,321.25965948688827,None,321.25965948688827,None,321.25965948688827,None,321.25965948688827,None,321.25965948688827,None,321.25965948688827,None,321.25965948688827,None,322.24337843173635,None,,,,,,,,,,,,,,,,,,,,,,,,,,,,,,24287,2020_Mar_09_1654,Mmi_3levels,3.1.5,59.96270038503252,
,,,1,1,8.3,,,,,,,,,0,0,0,0,0,18,18,2,,,,,,,,,,,,,,,,,,,,,,,,,,,,,,,,,,,,,,,,,,,,,,,,,,,,,,,,,,,,,True,False,False,0.54,-0.45999999999999996,-7.269999999999998,-2.215833333333333,8.3,6.084166666666668,3.042083333333334,gamble,lose,6.084166666666668,53.407500000000006,324.26081174568026,None,324.26081174568026,None,324.26081174568026,None,324.26081174568026,None,324.26081174568026,None,324.26081174568026,None,324.26081174568026,None,1,1.017723858509271,324.26081174568026,None,325.3112186680646,None,325.3112186680646,None,325.3112186680646,None,325.3112186680646,None,325.3112186680646,None,325.3112186680646,None,325.3112186680646,None,329.2960677928786,None,329.2960677928786,None,329.2960677928786,None,329.2960677928786,None,329.2960677928786,None,329.2960677928786,None,329.2960677928786,None,330.2964101746911,None,,,,,,,,,,,,,,,,,,,,,,,,,,,,,,24287,2020_Mar_09_1654,Mmi_3levels,3.1.5,59.96270038503252,
,,,1,1,10.1,,,,,,,,,0,0,0,0,0,19,19,1,,,,,,,,,,,,,,,,,,,,,,,,,,,,,,,,,,,,,,,,,,,,,,,,,,,,,,,,,,,,,True,True,False,0.54,-0.45999999999999996,-7.729999999999998,14.169999999999998,10.1,-4.0699999999999985,-2.0349999999999993,certain,certain,-2.0349999999999993,51.37250000000001,332.31397948140875,None,332.31397948140875,None,332.31397948140875,None,332.31397948140875,None,332.31397948140875,None,332.31397948140875,None,332.31397948140875,None,3,2.5511912007241335,332.31397948140875,None,334.89828700299404,None,334.89828700299404,None,334.89828700299404,None,334.89828700299404,None,334.89828700299404,None,334.89828700299404,None,334.89828700299404,None,338.89972916638544,None,338.89972916638544,None,338.89972916638544,None,338.89972916638544,None,338.89972916638544,None,338.89972916638544,None,338.89972916638544,None,348.38668505928945,None,339.883440431644,None,340.88385384968205,None,0.55,7.502733294808422,343.884952031347,None,None,343.884952031347,None,,,,,,,,,,,,,,,,,,,24287,2020_Mar_09_1654,Mmi_3levels,3.1.5,59.96270038503252,
,,,1,1,12.5,,,,,,,,,0,0,0,0,0,20,20,25,,,,,,,,,,,,,,,,,,,,,,,,,,,,,,,,,,,,,,,,,,,,,,,,,,,,,,,,,,,,,True,True,True,0.55,-0.44999999999999996,-8.179999999999998,14.479999999999997,12.5,-1.9799999999999969,-0.9899999999999984,gamble,win,12.5,63.87250000000001,350.404167330631,None,350.404167330631,None,350.404167330631,None,350.404167330631,None,350.404167330631,None,350.404167330631,None,350.404167330631,None,1,2.5677256824128563,350.404167330631,None,353.0051062887542,None,353.0051062887542,None,353.0051062887542,None,353.0051062887542,None,353.0051062887542,None,353.0051062887542,None,353.0051062887542,None,357.0066479668603,None,357.0066479668603,None,357.0066479668603,None,357.0066479668603,None,357.0066479668603,None,357.0066479668603,None,357.0066479668603,None,357.99039219036604,None,,,,,,,,,,,,,,,,,,,,,,,,,,,,,,24287,2020_Mar_09_1654,Mmi_3levels,3.1.5,59.96270038503252,
,,,1,1,5.7,,,,,,,,,0,0,0,0,0,21,21,17,,,,,,,,,,,,,,,,,,,,,,,,,,,,,,,,,,,,,,,,,,,,,,,,,,,,,,,,,,,,,True,True,False,0.55,-0.44999999999999996,-8.629999999999997,14.929999999999996,5.7,-9.229999999999997,-1.7649999999999983,certain,certain,-1.7649999999999983,62.10750000000001,360.00782166451245,None,360.00782166451245,None,360.00782166451245,None,360.00782166451245,None,360.00782166451245,None,360.00782166451245,None,360.00782166451245,None,3,2.217845068071256,360.00782166451245,None,362.2586374611783,None,362.2586374611783,None,362.2586374611783,None,362.2586374611783,None,362.2586374611783,None,362.2586374611783,None,362.2586374611783,None,366.24348818590624,None,366.24348818590624,None,366.24348818590624,None,366.24348818590624,None,366.24348818590624,None,366.24348818590624,None,366.24348818590624,None,375.74711679315624,None,367.24386960564516,None,368.2442983828696,None,0.55,7.502780652292131,371.24538760500946,None,None,371.24538760500946,None,,,,,,,,,,,,,,,,,,,24287,2020_Mar_09_1654,Mmi_3levels,3.1.5,59.96270038503252,
,,,1,1,0.3,,,,,,,,,0,0,0,0,0,22,22,15,,,,,,,,,,,,,,,,,,,,,,,,,,,,,,,,,,,,,,,,,,,,,,,,,,,,,,,,,,,,,True,True,True,0.55,-0.44999999999999996,-9.079999999999997,15.379999999999995,0.3,-15.079999999999995,-7.389999999999997,certain,certain,-7.389999999999997,54.717500000000015,377.7645504270804,None,377.7645504270804,None,377.7645504270804,None,377.7645504270804,None,377.7645504270804,None,377.7645504270804,None,377.7645504270804,None,3,2.7512973710836377,377.7645504270804,None,380.54894971979047,None,380.54894971979047,None,380.54894971979047,None,380.54894971979047,None,380.54894971979047,None,380.54894971979047,None,380.54894971979047,None,384.55048499823715,None,384.55048499823715,None,384.55048499823715,None,384.55048499823715,None,384.55048499823715,None,384.55048499823715,None,384.55048499823715,None,385.53419786340964,None,,,,,,,,,,,,,,,,,,,,,,,,,,,,,,24287,2020_Mar_09_1654,Mmi_3levels,3.1.5,59.96270038503252,
,,,1,1,2.3,,,,,,,,,0,0,0,0,0,23,23,5,,,,,,,,,,,,,,,,,,,,,,,,,,,,,,,,,,,,,,,,,,,,,,,,,,,,,,,,,,,,,True,True,True,0.55,-0.44999999999999996,-9.529999999999996,15.829999999999995,2.3,-13.529999999999994,-5.614999999999997,gamble,win,2.3,57.01750000000001,387.5516161381511,None,387.5516161381511,None,387.5516161381511,None,387.5516161381511,None,387.5516161381511,None,387.5516161381511,None,387.5516161381511,None,1,2.684620272970278,387.5516161381511,None,390.2693172138697,None,390.2693172138697,None,390.2693172138697,None,390.2693172138697,None,390.2693172138697,None,390.2693172138697,None,390.2693172138697,None,394.2708425728415,None,394.2708425728415,None,394.2708425728415,None,394.2708425728415,None,394.2708425728415,None,394.2708425728415,None,394.2708425728415,None,403.75784678317905,None,395.2545515982183,None,396.2549333379411,None,0.56,7.502489787742888,399.256066077769,None,None,399.256066077769,None,,,,,,,,,,,,,,,,,,,24287,2020_Mar_09_1654,Mmi_3levels,3.1.5,59.96270038503252,
,,,1,1,8.5,,,,,,,,,0,0,0,0,0,24,24,6,,,,,,,,,,,,,,,,,,,,,,,,,,,,,,,,,,,,,,,,,,,,,,,,,,,,,,,,,,,,,True,True,False,0.56,-0.43999999999999995,-9.969999999999995,16.129999999999995,8.5,-7.6299999999999955,0.4350000000000023,certain,certain,0.4350000000000023,57.452500000000015,405.7752304997557,None,405.7752304997557,None,405.7752304997557,None,405.7752304997557,None,405.7752304997557,None,405.7752304997557,None,405.7752304997557,None,3,2.751374806970489,405.7752304997557,None,408.5596272326002,None,408.5596272326002,None,408.5596272326002,None,408.5596272326002,None,408.5596272326002,None,408.5596272326002,None,408.5596272326002,None,412.54448147714356,None,412.54448147714356,None,412.54448147714356,None,412.54448147714356,None,412.54448147714356,None,412.54448147714356,None,412.54448147714356,None,413.54486065700075,None,,,,,,,,,,,,,,,,,,,,,,,,,,,,,,24287,2020_Mar_09_1654,Mmi_3levels,3.1.5,59.96270038503252,
,,,1,1,7.3,,,,,,,,,0,0,0,0,0,25,25,4,,,,,,,,,,,,,,,,,,,,,,,,,,,,,,,,,,,,,,,,,,,,,,,,,,,,,,,,,,,,,True,True,True,0.56,-0.43999999999999995,-10.409999999999995,16.569999999999993,7.3,-9.269999999999992,-0.9849999999999963,gamble,win,7.3,64.75250000000001,415.5622885312332,None,415.5622885312332,None,415.5622885312332,None,415.5622885312332,None,415.5622885312332,None,415.5622885312332,None,415.5622885312332,None,None,,415.5622885312332,None,418.56344142999114,None,418.56344142999114,None,418.56344142999114,None,418.56344142999114,None,418.56344142999114,None,418.56344142999114,None,418.56344142999114,None,422.5483468718139,None,422.5483468718139,None,422.5483468718139,None,422.5483468718139,None,422.5483468718139,None,422.5483468718139,None,422.5483468718139,None,423.54872829155283,None,,,,,,,,,,,,,,,,,,,,,,,,,,,,,,24287,2020_Mar_09_1654,Mmi_3levels,3.1.5,59.96270038503252,
,,,1,1,9.1,,,,,,,,,0,0,0,0,0,26,26,19,,,,,,,,,,,,,,,,,,,,,,,,,,,,,,,,,,,,,,,,,,,,,,,,,,,,,,,,,,,,,True,True,False,0.56,-0.43999999999999995,-10.849999999999994,17.009999999999994,9.1,-7.909999999999995,0.5950000000000024,certain,certain,0.5950000000000024,65.34750000000001,425.5661120081295,None,425.5661120081295,None,425.5661120081295,None,425.5661120081295,None,425.5661120081295,None,425.5661120081295,None,425.5661120081295,None,3,1.4341353387299023,425.5661120081295,None,427.0333451087081,None,427.0333451087081,None,427.0333451087081,None,427.0333451087081,None,427.0333451087081,None,427.0333451087081,None,427.0333451087081,None,431.0182307115847,None,431.0182307115847,None,431.0182307115847,None,431.0182307115847,None,431.0182307115847,None,431.0182307115847,None,431.0182307115847,None,440.5218190009746,None,432.01857501329505,None,433.0190562677308,None,0.54,7.50274321427969,436.0200894928457,None,None,436.0200894928457,None,,,,,,,,,,,,,,,,,,,24287,2020_Mar_09_1654,Mmi_3levels,3.1.5,59.96270038503252,
,,,2,0,11.3,,,,,,,,,0,1,1,1,0,0,0,12,,,,,,,,,,,,,,,,,,,,,,,,,,,,,,,,,,,,,,,,,,,,,,,,,452.6264313639658,None,0.56,5.117536796446075,455.6442147393118,None,4,2.084378557810851,455.6442147393118,None,457.745033383826,None,False,True,False,0.56,0.56,0.56,-8.4,11.3,2.9000000000000004,1.4500000000000002,gamble,lose,2.9000000000000004,68.24750000000002,460.7796341058365,None,460.7796341058365,None,460.7796341058365,None,460.7796341058365,None,460.7796341058365,None,460.7796341058365,None,460.7796341058365,None,1,1.317347302510825,460.7796341058365,None,462.1300561314183,None,462.1300561314183,None,462.1300561314183,None,462.1300561314183,None,462.1300561314183,None,462.1300561314183,None,462.1300561314183,None,466.11496317315505,None,466.11496317315505,None,466.11496317315505,None,466.11496317315505,None,466.11496317315505,None,466.11496317315505,None,466.11496317315505,None,467.11529851534215,None,,,,,,,,,,,,442.52262375822465,None,4,10.087345440209901,442.52262375822465,None,,,,,,,,,,,,,24287,2020_Mar_09_1654,Mmi_3levels,3.1.5,59.96270038503252,
,,,2,0,7.3,,,,,,,,,0,1,1,1,0,1,1,3,,,,,,,,,,,,,,,,,,,,,,,,,,,,,,,,,,,,,,,,,,,,,,,,,,,,,,,,,,,,,False,True,True,0.56,0.56,1.12,-8.96,7.3,-1.660000000000001,-0.8300000000000005,gamble,lose,-1.660000000000001,66.58750000000002,469.13278302656545,None,469.13278302656545,None,469.13278302656545,None,469.13278302656545,None,469.13278302656545,None,469.13278302656545,None,469.13278302656545,None,1,2.0511966404355917,469.13278302656545,None,471.21690399805993,None,471.21690399805993,None,471.21690399805993,None,471.21690399805993,None,471.21690399805993,None,471.21690399805993,None,471.21690399805993,None,475.21843639665894,None,475.21843639665894,None,475.21843639665894,None,475.21843639665894,None,475.21843639665894,None,475.21843639665894,None,475.21843639665894,None,484.70533597255235,None,476.20209166489076,None,477.2024772444074,None,0.54,7.50287184744775,480.20360486450954,None,None,480.20360486450954,None,,,,,,,,,,,,,,,,,,,24287,2020_Mar_09_1654,Mmi_3levels,3.1.5,59.96270038503252,
,,,2,0,1.7,,,,,,,,,0,1,1,1,0,2,2,22,,,,,,,,,,,,,,,,,,,,,,,,,,,,,,,,,,,,,,,,,,,,,,,,,,,,,,,,,,,,,False,True,False,0.54,0.54,1.6600000000000001,-9.22,1.7,-7.5200000000000005,-2.91,certain,certain,-2.91,63.67750000000002,486.7227712063923,None,486.7227712063923,None,486.7227712063923,None,486.7227712063923,None,486.7227712063923,None,486.7227712063923,None,486.7227712063923,None,3,2.484533301591,486.7227712063923,None,489.24045122722964,None,489.24045122722964,None,489.24045122722964,None,489.24045122722964,None,489.24045122722964,None,489.24045122722964,None,489.24045122722964,None,493.22529651224795,None,493.22529651224795,None,493.22529651224795,None,493.22529651224795,None,493.22529651224795,None,493.22529651224795,None,493.22529651224795,None,494.2256299345372,None,,,,,,,,,,,,,,,,,,,,,,,,,,,,,,24287,2020_Mar_09_1654,Mmi_3levels,3.1.5,59.96270038503252,
,,,2,0,-1.3,,,,,,,,,0,1,1,1,0,3,3,26,,,,,,,,,,,,,,,,,,,,,,,,,,,,,,,,,,,,,,,,,,,,,,,,,,,,,,,,,,,,,False,True,False,0.54,0.54,2.2,-9.760000000000002,-1.3,-11.060000000000002,-6.1800000000000015,certain,certain,-6.1800000000000015,57.497500000000024,496.243067088275,None,496.243067088275,None,496.243067088275,None,496.243067088275,None,496.243067088275,None,496.243067088275,None,496.243067088275,None,3,2.1175508756969066,496.243067088275,None,498.3938885166408,None,498.3938885166408,None,498.3938885166408,None,498.3938885166408,None,498.3938885166408,None,498.3938885166408,None,498.3938885166408,None,502.37873348167705,None,502.37873348167705,None,502.37873348167705,None,502.37873348167705,None,502.37873348167705,None,502.37873348167705,None,502.37873348167705,None,511.8823649687729,None,503.3791145814321,None,504.37950016095056,None,0.52,7.502779052376354,507.3805887431263,None,None,507.3805887431263,None,,,,,,,,,,,,,,,,,,,24287,2020_Mar_09_1654,Mmi_3levels,3.1.5,59.96270038503252,
,,,2,0,8.9,,,,,,,,,0,1,1,1,0,4,4,2,,,,,,,,,,,,,,,,,,,,,,,,,,,,,,,,,,,,,,,,,,,,,,,,,,,,,,,,,,,,,False,False,True,0.52,0.52,2.72,2.046666666666667,2.225,0.17833333333333323,1.2016666666666667,gamble,win,2.225,59.722500000000025,513.8997954028673,None,513.8997954028673,None,513.8997954028673,None,513.8997954028673,None,513.8997954028673,None,513.8997954028673,None,513.8997954028673,None,1,1.4841656411208533,513.8997954028673,None,515.4170674453762,None,515.4170674453762,None,515.4170674453762,None,515.4170674453762,None,515.4170674453762,None,515.4170674453762,None,515.4170674453762,None,519.401895771296,None,519.401895771296,None,519.401895771296,None,519.401895771296,None,519.401895771296,None,519.401895771296,None,519.401895771296,None,520.4023386277713,None,,,,,,,,,,,,,,,,,,,,,,,,,,,,,,24287,2020_Mar_09_1654,Mmi_3levels,3.1.5,59.96270038503252,
,,,2,0,4.5,,,,,,,,,0,1,1,1,0,5,5,18,,,,,,,,,,,,,,,,,,,,,,,,,,,,,,,,,,,,,,,,,,,,,,,,,,,,,,,,,,,,,False,False,False,0.52,0.52,3.24,2.09,1.125,-0.9649999999999999,0.08000000000000007,gamble,win,1.125,60.847500000000025,522.4197130648408,None,522.4197130648408,None,522.4197130648408,None,522.4197130648408,None,522.4197130648408,None,522.4197130648408,None,522.4197130648408,None,1,2.351216863360605,522.4197130648408,None,524.8039560138568,None,524.8039560138568,None,524.8039560138568,None,524.8039560138568,None,524.8039560138568,None,524.8039560138568,None,524.8039560138568,None,528.8054832927264,None,528.8054832927264,None,528.8054832927264,None,528.8054832927264,None,528.8054832927264,None,528.8054832927264,None,528.8054832927264,None,529.7891916781373,None,,,,,,,,,,,,,,,,,,,,,,,,,,,,,,24287,2020_Mar_09_1654,Mmi_3levels,3.1.5,59.96270038503252,
,,,2,0,6.9,,,,,,,,,0,1,1,1,0,6,6,14,,,,,,,,,,,,,,,,,,,,,,,,,,,,,,,,,,,,,,,,,,,,,,,,,,,,,,,,,,,,,False,True,True,0.52,0.52,3.7600000000000002,-11.040000000000001,6.9,-4.140000000000001,1.38,gamble,lose,-4.140000000000001,56.707500000000024,531.8066323516887,None,531.8066323516887,None,531.8066323516887,None,531.8066323516887,None,531.8066323516887,None,531.8066323516887,None,531.8066323516887,None,None,,531.8066323516887,None,534.8078223684752,None,534.8078223684752,None,534.8078223684752,None,534.8078223684752,None,534.8078223684752,None,534.8078223684752,None,534.8078223684752,None,538.8092968501514,None,538.8092968501514,None,538.8092968501514,None,538.8092968501514,None,538.8092968501514,None,538.8092968501514,None,538.8092968501514,None,548.296248903258,None,539.793010675272,None,540.7933876152492,None,0.54,7.502758573464234,543.7945379541434,None,None,543.7945379541434,None,,,,,,,,,,,,,,,,,,,24287,2020_Mar_09_1654,Mmi_3levels,3.1.5,59.96270038503252,
,,,2,0,11.5,,,,,,,,,0,1,1,1,0,7,7,5,,,,,,,,,,,,,,,,,,,,,,,,,,,,,,,,,,,,,,,,,,,,,,,,,,,,,,,,,,,,,False,True,True,0.54,0.54,4.300000000000001,-11.860000000000001,11.5,-0.3600000000000012,-0.1800000000000006,gamble,lose,-0.3600000000000012,56.347500000000025,550.3137324545314,None,550.3137324545314,None,550.3137324545314,None,550.3137324545314,None,550.3137324545314,None,550.3137324545314,None,550.3137324545314,None,1,2.00101914586412,550.3137324545314,None,552.3477988049272,None,552.3477988049272,None,552.3477988049272,None,552.3477988049272,None,552.3477988049272,None,552.3477988049272,None,552.3477988049272,None,556.3493232039509,None,556.3493232039509,None,556.3493232039509,None,556.3493232039509,None,556.3493232039509,None,556.3493232039509,None,556.3493232039509,None,557.333029989446,None,,,,,,,,,,,,,,,,,,,,,,,,,,,,,,24287,2020_Mar_09_1654,Mmi_3levels,3.1.5,59.96270038503252,
,,,2,0,6.7,,,,,,,,,0,1,1,1,0,8,8,9,,,,,,,,,,,,,,,,,,,,,,,,,,,,,,,,,,,,,,,,,,,,,,,,,,,,,,,,,,,,,False,True,True,0.54,0.54,4.840000000000001,-12.400000000000002,6.7,-5.700000000000002,0.4999999999999991,gamble,lose,-5.700000000000002,50.64750000000002,559.3504607435243,None,559.3504607435243,None,559.3504607435243,None,559.3504607435243,None,559.3504607435243,None,559.3504607435243,None,559.3504607435243,None,1,2.4176933321305114,559.3504607435243,None,561.8013980697342,None,561.8013980697342,None,561.8013980697342,None,561.8013980697342,None,561.8013980697342,None,561.8013980697342,None,561.8013980697342,None,565.8029320682472,None,565.8029320682472,None,565.8029320682472,None,565.8029320682472,None,565.8029320682472,None,565.8029320682472,None,565.8029320682472,None,575.2899327587711,None,566.7866420535738,None,567.7870151537536,None,0.53,7.502775212580673,570.788139894008,None,None,570.788139894008,None,,,,,,,,,,,,,,,,,,,24287,2020_Mar_09_1654,Mmi_3levels,3.1.5,59.96270038503252,
,,,2,0,9.1,,,,,,,,,0,1,1,1,0,9,9,23,,,,,,,,,,,,,,,,,,,,,,,,,,,,,,,,,,,,,,,,,,,,,,,,,,,,,,,,,,,,,False,True,True,0.53,0.53,5.370000000000001,-12.790000000000001,9.1,-3.6900000000000013,-1.8450000000000006,gamble,lose,-3.6900000000000013,46.957500000000024,577.3073119955861,None,577.3073119955861,None,577.3073119955861,None,577.3073119955861,None,577.3073119955861,None,577.3073119955861,None,577.3073119955861,None,1,2.5845692676812178,577.3073119955861,None,579.9249796650802,None,579.9249796650802,None,579.9249796650802,None,579.9249796650802,None,579.9249796650802,None,579.9249796650802,None,579.9249796650802,None,583.9098323097078,None,583.9098323097078,None,583.9098323097078,None,583.9098323097078,None,583.9098323097078,None,583.9098323097078,None,583.9098323097078,None,584.9102178892244,None,,,,,,,,,,,,,,,,,,,,,,,,,,,,,,24287,2020_Mar_09_1654,Mmi_3levels,3.1.5,59.96270038503252,
,,,2,0,11.1,,,,,,,,,0,1,1,1,0,10,10,17,,,,,,,,,,,,,,,,,,,,,,,,,,,,,,,,,,,,,,,,,,,,,,,,,,,,,,,,,,,,,False,True,True,0.53,0.53,5.900000000000001,-13.32,11.1,-2.2200000000000006,-1.1100000000000003,gamble,lose,-2.2200000000000006,44.737500000000026,586.9276425636272,None,586.9276425636272,None,586.9276425636272,None,586.9276425636272,None,586.9276425636272,None,586.9276425636272,None,586.9276425636272,None,1,2.634598290138456,586.9276425636272,None,589.5953299760713,None,589.5953299760713,None,589.5953299760713,None,589.5953299760713,None,589.5953299760713,None,589.5953299760713,None,589.5953299760713,None,593.5801887003763,None,593.5801887003763,None,593.5801887003763,None,593.5801887003763,None,593.5801887003763,None,593.5801887003763,None,593.5801887003763,None,594.5805400417121,None,,,,,,,,,,,,,,,,,,,,,,,,,,,,,,24287,2020_Mar_09_1654,Mmi_3levels,3.1.5,59.96270038503252,
,,,2,0,-0.7,,,,,,,,,0,1,1,1,0,11,11,19,,,,,,,,,,,,,,,,,,,,,,,,,,,,,,,,,,,,,,,,,,,,,,,,,,,,,,,,,,,,,False,False,True,0.53,0.53,6.4300000000000015,2.3908333333333336,-0.175,-2.5658333333333334,-1.3704166666666666,certain,certain,-1.3704166666666666,43.36708333333336,596.5979819951954,None,596.5979819951954,None,596.5979819951954,None,596.5979819951954,None,596.5979819951954,None,596.5979819951954,None,596.5979819951954,None,3,1.9510979576771206,596.5979819951954,None,598.5821629955008,None,598.5821629955008,None,598.5821629955008,None,598.5821629955008,None,598.5821629955008,None,598.5821629955008,None,598.5821629955008,None,602.5836086787058,None,602.5836086787058,None,602.5836086787058,None,602.5836086787058,None,602.5836086787058,None,602.5836086787058,None,602.5836086787058,None,612.0705466525615,None,603.5673285835055,None,604.5677103232265,None,0.52,7.502740334433838,607.5688709015776,None,None,607.5688709015776,None,,,,,,,,,,,,,,,,,,,24287,2020_Mar_09_1654,Mmi_3levels,3.1.5,59.96270038503252,
,,,2,0,2.9,,,,,,,,,0,1,1,1,0,12,12,16,,,,,,,,,,,,,,,,,,,,,,,,,,,,,,,,,,,,,,,,,,,,,,,,,,,,,,,,,,,,,False,True,True,0.52,0.52,6.950000000000001,-14.23,2.9,-11.33,-4.215,gamble,lose,-11.33,32.037083333333364,614.0880090849569,None,614.0880090849569,None,614.0880090849569,None,614.0880090849569,None,614.0880090849569,None,614.0880090849569,None,614.0880090849569,None,1,2.3345508686579706,614.0880090849569,None,616.4555729199656,None,616.4555729199656,None,616.4555729199656,None,616.4555729199656,None,616.4555729199656,None,616.4555729199656,None,616.4555729199656,None,620.4571027587008,None,620.4571027587008,None,620.4571027587008,None,620.4571027587008,None,620.4571027587008,None,620.4571027587008,None,620.4571027587008,None,621.440819463669,None,,,,,,,,,,,,,,,,,,,,,,,,,,,,,,24287,2020_Mar_09_1654,Mmi_3levels,3.1.5,59.96270038503252,
,,,2,0,-1.1,,,,,,,,,0,1,1,1,0,13,13,7,,,,,,,,,,,,,,,,,,,,,,,,,,,,,,,,,,,,,,,,,,,,,,,,,,,,,,,,,,,,,False,False,False,0.52,0.52,7.470000000000001,2.4425,-0.275,-2.7175,-1.4962499999999999,certain,certain,-1.4962499999999999,30.540833333333364,623.4582035002295,None,623.4582035002295,None,623.4582035002295,None,623.4582035002295,None,623.4582035002295,None,623.4582035002295,None,623.4582035002295,None,3,1.9510829184764589,623.4582035002295,None,625.442317304105,None,625.442317304105,None,625.442317304105,None,625.442317304105,None,625.442317304105,None,625.442317304105,None,625.442317304105,None,629.443862502023,None,629.443862502023,None,629.443862502023,None,629.443862502023,None,629.443862502023,None,629.443862502023,None,629.443862502023,None,638.9307723173733,None,630.4275785670252,None,631.4279321482445,None,0.5,7.502786411985653,634.4290428092445,None,None,634.4290428092445,None,,,,,,,,,,,,,,,,,,,24287,2020_Mar_09_1654,Mmi_3levels,3.1.5,59.96270038503252,
,,,2,0,9.7,,,,,,,,,0,1,1,1,0,14,14,10,,,,,,,,,,,,,,,,,,,,,,,,,,,,,,,,,,,,,,,,,,,,,,,,,,,,,,,,,,,,,False,True,True,0.5,0.5,7.970000000000001,-14.97,9.7,-5.270000000000001,-2.6350000000000007,certain,certain,-2.6350000000000007,27.905833333333362,640.9482481890554,None,640.9482481890554,None,640.9482481890554,None,640.9482481890554,None,640.9482481890554,None,640.9482481890554,None,640.9482481890554,None,3,2.0844540737998614,640.9482481890554,None,643.0657241887311,None,643.0657241887311,None,643.0657241887311,None,643.0657241887311,None,643.0657241887311,None,643.0657241887311,None,643.0657241887311,None,647.0672492277208,None,647.0672492277208,None,647.0672492277208,None,647.0672492277208,None,647.0672492277208,None,647.0672492277208,None,647.0672492277208,None,648.0509608129614,None,,,,,,,,,,,,,,,,,,,,,,,,,,,,,,24287,2020_Mar_09_1654,Mmi_3levels,3.1.5,59.96270038503252,
,,,2,0,-0.3,,,,,,,,,0,1,1,1,0,15,15,15,,,,,,,,,,,,,,,,,,,,,,,,,,,,,,,,,,,,,,,,,,,,,,,,,,,,,,,,,,,,,False,True,True,0.5,0.5,8.47,-15.47,-0.3,-15.770000000000001,-8.035,gamble,lose,-15.770000000000001,12.13583333333336,650.0683941269035,None,650.0683941269035,None,650.0683941269035,None,650.0683941269035,None,650.0683941269035,None,650.0683941269035,None,650.0683941269035,None,1,2.3178042382387503,650.0683941269035,None,652.4192935671254,None,652.4192935671254,None,652.4192935671254,None,652.4192935671254,None,652.4192935671254,None,652.4192935671254,None,652.4192935671254,None,656.4208710833282,None,656.4208710833282,None,656.4208710833282,None,656.4208710833282,None,656.4208710833282,None,656.4208710833282,None,656.4208710833282,None,665.9077808986785,None,657.4046127469701,None,658.4049880870316,None,0.5,7.502826409860063,661.406025151944,None,None,661.406025151944,None,,,,,,,,,,,,,,,,,,,24287,2020_Mar_09_1654,Mmi_3levels,3.1.5,59.96270038503252,
,,,2,0,8.3,,,,,,,,,0,1,1,1,0,16,16,25,,,,,,,,,,,,,,,,,,,,,,,,,,,,,,,,,,,,,,,,,,,,,,,,,,,,,,,,,,,,,False,False,True,0.5,0.5,8.97,2.4975,2.075,-0.4224999999999999,0.8262500000000002,gamble,win,2.075,14.210833333333362,667.9252087729092,None,667.9252087729092,None,667.9252087729092,None,667.9252087729092,None,667.9252087729092,None,667.9252087729092,None,667.9252087729092,None,1,1.8509938352071913,667.9252087729092,None,669.8092533324616,None,669.8092533324616,None,669.8092533324616,None,669.8092533324616,None,669.8092533324616,None,669.8092533324616,None,669.8092533324616,None,673.8108810859958,None,673.8108810859958,None,673.8108810859958,None,673.8108810859958,None,673.8108810859958,None,673.8108810859958,None,673.8108810859958,None,674.7944928365396,None,,,,,,,,,,,,,,,,,,,,,,,,,,,,,,24287,2020_Mar_09_1654,Mmi_3levels,3.1.5,59.96270038503252,
,,,2,0,3.3,,,,,,,,,0,1,1,1,0,17,17,13,,,,,,,,,,,,,,,,,,,,,,,,,,,,,,,,,,,,,,,,,,,,,,,,,,,,,,,,,,,,,False,True,False,0.5,0.5,9.47,-16.47,3.3,-13.169999999999998,-4.934999999999999,gamble,lose,-13.169999999999998,1.0408333333333637,676.8119235906179,None,676.8119235906179,None,676.8119235906179,None,676.8119235906179,None,676.8119235906179,None,676.8119235906179,None,676.8119235906179,None,None,,676.8119235906179,None,679.8130710496644,None,679.8130710496644,None,679.8130710496644,None,679.8130710496644,None,679.8130710496644,None,679.8130710496644,None,679.8130710496644,None,683.8145983285358,None,683.8145983285358,None,683.8145983285358,None,683.8145983285358,None,683.8145983285358,None,683.8145983285358,None,683.8145983285358,None,684.7983035141169,None,,,,,,,,,,,,,,,,,,,,,,,,,,,,,,24287,2020_Mar_09_1654,Mmi_3levels,3.1.5,59.96270038503252,
,,,2,0,-0.5,,,,,,,,,0,1,1,1,0,18,18,21,,,,,,,,,,,,,,,,,,,,,,,,,,,,,,,,,,,,,,,,,,,,,,,,,,,,,,,,,,,,,False,False,False,0.5,0.5,9.97,2.5808333333333335,-0.125,-2.7058333333333335,-1.4154166666666668,certain,certain,-1.4154166666666668,-0.37458333333330307,686.8158328229601,None,686.8158328229601,None,686.8158328229601,None,686.8158328229601,None,686.8158328229601,None,686.8158328229601,None,686.8158328229601,None,3,2.4511049973025365,686.8158328229601,None,689.3000256626365,None,689.3000256626365,None,689.3000256626365,None,689.3000256626365,None,689.3000256626365,None,689.3000256626365,None,689.3000256626365,None,693.3015452619147,None,693.3015452619147,None,693.3015452619147,None,693.3015452619147,None,693.3015452619147,None,693.3015452619147,None,693.3015452619147,None,702.7885021147667,None,694.2852542872915,None,695.2856353870484,None,0.5,7.502667058324732,698.2867710067239,None,None,698.2867710067239,None,,,,,,,,,,,,,,,,,,,24287,2020_Mar_09_1654,Mmi_3levels,3.1.5,59.96270038503252,
,,,2,0,10.1,,,,,,,,,0,1,1,1,0,19,19,24,,,,,,,,,,,,,,,,,,,,,,,,,,,,,,,,,,,,,,,,,,,,,,,,,,,,,,,,,,,,,False,True,True,0.5,0.5,10.47,-17.47,10.1,-7.369999999999999,1.3650000000000002,gamble,lose,-7.369999999999999,-7.744583333333303,704.8059399084723,None,704.8059399084723,None,704.8059399084723,None,704.8059399084723,None,704.8059399084723,None,704.8059399084723,None,704.8059399084723,None,1,2.467870186736036,704.8059399084723,None,707.3068883380911,None,707.3068883380911,None,707.3068883380911,None,707.3068883380911,None,707.3068883380911,None,707.3068883380911,None,707.3068883380911,None,711.3084988125429,None,711.3084988125429,None,711.3084988125429,None,711.3084988125429,None,711.3084988125429,None,711.3084988125429,None,711.3084988125429,None,712.2921252823053,None,,,,,,,,,,,,,,,,,,,,,,,,,,,,,,24287,2020_Mar_09_1654,Mmi_3levels,3.1.5,59.96270038503252,
,,,2,0,5.1,,,,,,,,,0,1,1,1,0,20,20,8,,,,,,,,,,,,,,,,,,,,,,,,,,,,,,,,,,,,,,,,,,,,,,,,,,,,,,,,,,,,,False,False,False,0.5,0.5,10.97,2.6641666666666666,1.275,-1.3891666666666667,-0.057083333333333375,gamble,win,1.275,-6.469583333333302,714.3095566763495,None,714.3095566763495,None,714.3095566763495,None,714.3095566763495,None,714.3095566763495,None,714.3095566763495,None,714.3095566763495,None,None,,714.3095566763495,None,717.3108039700928,None,717.3108039700928,None,717.3108039700928,None,717.3108039700928,None,717.3108039700928,None,717.3108039700928,None,717.3108039700928,None,721.295553900176,None,721.295553900176,None,721.295553900176,None,721.295553900176,None,721.295553900176,None,721.295553900176,None,721.295553900176,None,730.7991709880371,None,722.2959391597105,None,723.2963416983275,None,0.52,7.502741934347796,726.2974533192792,None,None,726.2974533192792,None,,,,,,,,,,,,,,,,,,,24287,2020_Mar_09_1654,Mmi_3levels,3.1.5,59.96270038503252,
,,,2,0,6.1,,,,,,,,,0,1,1,1,0,21,21,1,,,,,,,,,,,,,,,,,,,,,,,,,,,,,,,,,,,,,,,,,,,,,,,,,,,,,,,,,,,,,False,True,True,0.52,0.52,11.49,-18.77,6.1,-12.67,-3.285,gamble,lose,-12.67,-19.139583333333302,732.8166177412659,None,732.8166177412659,None,732.8166177412659,None,732.8166177412659,None,732.8166177412659,None,732.8166177412659,None,732.8166177412659,None,1,2.417853003647906,732.8166177412659,None,735.2675496277625,None,735.2675496277625,None,735.2675496277625,None,735.2675496277625,None,735.2675496277625,None,735.2675496277625,None,735.2675496277625,None,739.269032109014,None,739.269032109014,None,739.269032109014,None,739.269032109014,None,739.269032109014,None,739.269032109014,None,739.269032109014,None,740.2528438489335,None,,,,,,,,,,,,,,,,,,,,,,,,,,,,,,24287,2020_Mar_09_1654,Mmi_3levels,3.1.5,59.96270038503252,
,,,2,0,1.9,,,,,,,,,0,1,1,1,0,22,22,4,,,,,,,,,,,,,,,,,,,,,,,,,,,,,,,,,,,,,,,,,,,,,,,,,,,,,,,,,,,,,False,True,True,0.52,0.52,12.01,-19.29,1.9,-17.39,-7.745,gamble,lose,-17.39,-36.529583333333306,742.2702182860048,None,742.2702182860048,None,742.2702182860048,None,742.2702182860048,None,742.2702182860048,None,742.2702182860048,None,742.2702182860048,None,None,,742.2702182860048,None,745.2713676649491,None,745.2713676649491,None,745.2713676649491,None,745.2713676649491,None,745.2713676649491,None,745.2713676649491,None,745.2713676649491,None,749.2728920639729,None,749.2728920639729,None,749.2728920639729,None,749.2728920639729,None,749.2728920639729,None,749.2728920639729,None,749.2728920639729,None,758.7598466769432,None,750.25659788952,None,751.2569805891908,None,0.5,7.502751853820882,754.2581091692409,None,None,754.2581091692409,None,,,,,,,,,,,,,,,,,,,24287,2020_Mar_09_1654,Mmi_3levels,3.1.5,59.96270038503252,
,,,2,0,5.3,,,,,,,,,0,1,1,1,0,23,23,0,,,,,,,,,,,,,,,,,,,,,,,,,,,,,,,,,,,,,,,,,,,,,,,,,,,,,,,,,,,,,False,False,False,0.5,0.5,12.51,2.7925,1.325,-1.4675,-0.07125000000000004,certain,certain,-0.07125000000000004,-36.600833333333306,760.7772899103602,None,760.7772899103602,None,760.7772899103602,None,760.7772899103602,None,760.7772899103602,None,760.7772899103602,None,760.7772899103602,None,3,1.0339901944407757,760.7772899103602,None,761.8443522680063,None,761.8443522680063,None,761.8443522680063,None,761.8443522680063,None,761.8443522680063,None,761.8443522680063,None,761.8443522680063,None,765.8291991529404,None,765.8291991529404,None,765.8291991529404,None,765.8291991529404,None,765.8291991529404,None,765.8291991529404,None,765.8291991529404,None,766.8295853724248,None,,,,,,,,,,,,,,,,,,,,,,,,,,,,,,24287,2020_Mar_09_1654,Mmi_3levels,3.1.5,59.96270038503252,
,,,2,0,5.5,,,,,,,,,0,1,1,1,0,24,24,20,,,,,,,,,,,,,,,,,,,,,,,,,,,,,,,,,,,,,,,,,,,,,,,,,,,,,,,,,,,,,False,True,False,0.5,0.5,13.01,-20.009999999999998,5.5,-14.509999999999998,-4.504999999999999,certain,certain,-4.504999999999999,-41.10583333333331,768.8470394852611,None,768.8470394852611,None,768.8470394852611,None,768.8470394852611,None,768.8470394852611,None,768.8470394852611,None,768.8470394852611,None,3,2.401136771615711,768.8470394852611,None,771.2812663391323,None,771.2812663391323,None,771.2812663391323,None,771.2812663391323,None,771.2812663391323,None,771.2812663391323,None,771.2812663391323,None,775.2828048174069,None,775.2828048174069,None,775.2828048174069,None,775.2828048174069,None,775.2828048174069,None,775.2828048174069,None,775.2828048174069,None,776.2665148027336,None,,,,,,,,,,,,,,,,,,,,,,,,,,,,,,24287,2020_Mar_09_1654,Mmi_3levels,3.1.5,59.96270038503252,
,,,2,0,2.7,,,,,,,,,0,1,1,1,0,25,25,6,,,,,,,,,,,,,,,,,,,,,,,,,,,,,,,,,,,,,,,,,,,,,,,,,,,,,,,,,,,,,False,False,True,0.5,0.5,13.51,2.8758333333333335,0.675,-2.2008333333333336,-0.7629166666666668,certain,certain,-0.7629166666666668,-41.86874999999998,778.2839084387833,None,778.2839084387833,None,778.2839084387833,None,778.2839084387833,None,778.2839084387833,None,778.2839084387833,None,778.2839084387833,None,3,2.0844329549217946,778.2839084387833,None,780.4014241163495,None,780.4014241163495,None,780.4014241163495,None,780.4014241163495,None,780.4014241163495,None,780.4014241163495,None,780.4014241163495,None,784.4029526751528,None,784.4029526751528,None,784.4029526751528,None,784.4029526751528,None,784.4029526751528,None,784.4029526751528,None,784.4029526751528,None,793.8899063281751,None,785.3866428215333,None,786.387038000541,None,0.48,7.502774572614726,789.3881333023583,None,None,789.3881333023583,None,,,,,,,,,,,,,,,,,,,24287,2020_Mar_09_1654,Mmi_3levels,3.1.5,59.96270038503252,
,,,2,0,10.9,,,,,,,,,0,1,1,1,0,26,26,11,,,,,,,,,,,,,,,,,,,,,,,,,,,,,,,,,,,,,,,,,,,,,,,,,,,,,,,,,,,,,False,True,False,0.48,0.48,13.99,-20.71,10.9,-9.81,0.5449999999999999,certain,certain,0.5449999999999999,-41.323749999999976,795.9073377222194,None,795.9073377222194,None,795.9073377222194,None,795.9073377222194,None,795.9073377222194,None,795.9073377222194,None,795.9073377222194,None,3,1.584194887567719,795.9073377222194,None,797.5246242919566,None,797.5246242919566,None,797.5246242919566,None,797.5246242919566,None,797.5246242919566,None,797.5246242919566,None,797.5246242919566,None,801.5094743767204,None,801.5094743767204,None,801.5094743767204,None,801.5094743767204,None,801.5094743767204,None,801.5094743767204,None,801.5094743767204,None,802.5098605962048,None,,,,,,,,,,,,,,,,,,,,,,,,,,,,,,24287,2020_Mar_09_1654,Mmi_3levels,3.1.5,59.96270038503252,
,,,3,1,8.5,,,,,,,,,0,2,2,2,0,0,0,13,,,,,,,,,,,,,,,,,,,,,,,,,,,,,,,,,,,,,,,,,,,,,,,,,822.2674069153436,None,0.5,5.33418192825593,825.2851995701985,None,4,2.3010720070542448,825.2851995701985,None,827.6026934249239,None,True,True,False,0.5,-0.5,-0.5,7.5,8.5,1.0,0.5,gamble,win,8.5,-32.823749999999976,830.6372167110476,None,830.6372167110476,None,830.6372167110476,None,830.6372167110476,None,830.6372167110476,None,830.6372167110476,None,830.6372167110476,None,1,1.5008674739201524,830.6372167110476,None,832.1711870665422,None,832.1711870665422,None,832.1711870665422,None,832.1711870665422,None,832.1711870665422,None,832.1711870665422,None,832.1711870665422,None,836.1560173123598,None,836.1560173123598,None,836.1560173123598,None,836.1560173123598,None,836.1560173123598,None,836.1560173123598,None,836.1560173123598,None,845.6595998420562,None,837.156408331588,None,838.1567814317696,None,0.52,7.502772652716885,841.157916731463,None,None,841.157916731463,None,804.510619595887,None,4,17.740625937951336,804.510619595887,None,,,,,,,,,,,,,24287,2020_Mar_09_1654,Mmi_3levels,3.1.5,59.96270038503252,
,,,3,1,2.9,,,,,,,,,0,2,2,2,0,1,1,8,,,,,,,,,,,,,,,,,,,,,,,,,,,,,,,,,,,,,,,,,,,,,,,,,,,,,,,,,,,,,True,True,True,0.52,-0.48,-0.98,7.699999999999999,2.9,-4.799999999999999,-0.9499999999999995,certain,certain,-0.9499999999999995,-33.77374999999998,847.6771630690964,None,847.6771630690964,None,847.6771630690964,None,847.6771630690964,None,847.6771630690964,None,847.6771630690964,None,847.6771630690964,None,3,2.084313281276991,847.6771630690964,None,849.7946150700463,None,849.7946150700463,None,849.7946150700463,None,849.7946150700463,None,849.7946150700463,None,849.7946150700463,None,849.7946150700463,None,853.7961330694106,None,853.7961330694106,None,853.7961330694106,None,853.7961330694106,None,853.7961330694106,None,853.7961330694106,None,853.7961330694106,None,854.7797937773539,None,,,,,,,,,,,,,,,,,,,,,,,,,,,,,,24287,2020_Mar_09_1654,Mmi_3levels,3.1.5,59.96270038503252,
,,,3,1,-1.5,,,,,,,,,0,2,2,2,0,2,2,26,,,,,,,,,,,,,,,,,,,,,,,,,,,,,,,,,,,,,,,,,,,,,,,,,,,,,,,,,,,,,True,True,False,0.52,-0.48,-1.46,8.18,-1.5,-9.68,-5.59,certain,certain,-5.59,-39.36374999999998,856.7972232515003,None,856.7972232515003,None,856.7972232515003,None,856.7972232515003,None,856.7972232515003,None,856.7972232515003,None,856.7972232515003,None,3,1.3841232753711665,856.7972232515003,None,858.2144337292793,None,858.2144337292793,None,858.2144337292793,None,858.2144337292793,None,858.2144337292793,None,858.2144337292793,None,858.2144337292793,None,862.2159491687798,None,862.2159491687798,None,862.2159491687798,None,862.2159491687798,None,862.2159491687798,None,862.2159491687798,None,862.2159491687798,None,863.1997442695847,None,,,,,,,,,,,,,,,,,,,,,,,,,,,,,,24287,2020_Mar_09_1654,Mmi_3levels,3.1.5,59.96270038503252,
,,,3,1,6.3,,,,,,,,,0,2,2,2,0,3,3,3,,,,,,,,,,,,,,,,,,,,,,,,,,,,,,,,,,,,,,,,,,,,,,,,,,,,,,,,,,,,,True,True,True,0.52,-0.48,-1.94,8.66,6.3,-2.3600000000000003,1.9699999999999998,gamble,win,6.3,-33.063749999999985,865.2171007876059,None,865.2171007876059,None,865.2171007876059,None,865.2171007876059,None,865.2171007876059,None,865.2171007876059,None,865.2171007876059,None,1,1.484167881002577,865.2171007876059,None,866.734349471355,None,866.734349471355,None,866.734349471355,None,866.734349471355,None,866.734349471355,None,866.734349471355,None,866.734349471355,None,870.7359122683392,None,870.7359122683392,None,870.7359122683392,None,870.7359122683392,None,870.7359122683392,None,870.7359122683392,None,870.7359122683392,None,880.2228294432989,None,871.7195860955853,None,872.7199703951719,None,0.5,7.5028168103708595,875.7210941754765,None,None,875.7210941754765,None,,,,,,,,,,,,,,,,,,,24287,2020_Mar_09_1654,Mmi_3levels,3.1.5,59.96270038503252,
,,,3,1,10.9,,,,,,,,,0,2,2,2,0,4,4,9,,,,,,,,,,,,,,,,,,,,,,,,,,,,,,,,,,,,,,,,,,,,,,,,,,,,,,,,,,,,,True,False,False,0.5,-0.5,-2.44,-1.9533333333333334,10.9,8.946666666666667,4.473333333333334,gamble,lose,8.946666666666667,-24.11708333333332,882.2402643571568,None,882.2402643571568,None,882.2402643571568,None,882.2402643571568,None,882.2402643571568,None,882.2402643571568,None,882.2402643571568,None,1,1.167368709373477,882.2402643571568,None,883.440720588922,None,883.440720588922,None,883.440720588922,None,883.440720588922,None,883.440720588922,None,883.440720588922,None,883.440720588922,None,887.4422542674529,None,887.4422542674529,None,887.4422542674529,None,887.4422542674529,None,887.4422542674529,None,887.4422542674529,None,887.4422542674529,None,888.4259546532885,None,,,,,,,,,,,,,,,,,,,,,,,,,,,,,,24287,2020_Mar_09_1654,Mmi_3levels,3.1.5,59.96270038503252,
,,,3,1,1.9,,,,,,,,,0,2,2,2,0,5,5,10,,,,,,,,,,,,,,,,,,,,,,,,,,,,,,,,,,,,,,,,,,,,,,,,,,,,,,,,,,,,,True,True,False,0.5,-0.5,-2.94,9.94,1.9,-8.04,-3.0699999999999994,certain,certain,-3.0699999999999994,-27.18708333333332,890.4433863673148,None,890.4433863673148,None,890.4433863673148,None,890.4433863673148,None,890.4433863673148,None,890.4433863673148,None,890.4433863673148,None,3,1.8509736762771354,890.4433863673148,None,892.3274392464264,None,892.3274392464264,None,892.3274392464264,None,892.3274392464264,None,892.3274392464264,None,892.3274392464264,None,892.3274392464264,None,896.3122883712404,None,896.3122883712404,None,896.3122883712404,None,896.3122883712404,None,896.3122883712404,None,896.3122883712404,None,896.3122883712404,None,905.8158718608865,None,897.312671070913,None,898.3130572903956,None,0.5,7.502710576014579,901.3142732258057,None,None,901.3142732258057,None,,,,,,,,,,,,,,,,,,,24287,2020_Mar_09_1654,Mmi_3levels,3.1.5,59.96270038503252,
,,,3,1,-1.1,,,,,,,,,0,2,2,2,0,6,6,23,,,,,,,,,,,,,,,,,,,,,,,,,,,,,,,,,,,,,,,,,,,,,,,,,,,,,,,,,,,,,True,True,False,0.5,-0.5,-3.44,10.44,-1.1,-11.54,-6.319999999999999,gamble,win,-1.1,-28.28708333333332,907.833344212755,None,907.833344212755,None,907.833344212755,None,907.833344212755,None,907.833344212755,None,907.833344212755,None,907.833344212755,None,1,2.234441626460466,907.833344212755,None,910.100888080824,None,910.100888080824,None,910.100888080824,None,910.100888080824,None,910.100888080824,None,910.100888080824,None,910.100888080824,None,914.0857372056398,None,914.0857372056398,None,914.0857372056398,None,914.0857372056398,None,914.0857372056398,None,914.0857372056398,None,914.0857372056398,None,915.0861160655131,None,,,,,,,,,,,,,,,,,,,,,,,,,,,,,,24287,2020_Mar_09_1654,Mmi_3levels,3.1.5,59.96270038503252,
,,,3,1,1.1,,,,,,,,,0,2,2,2,0,7,7,2,,,,,,,,,,,,,,,,,,,,,,,,,,,,,,,,,,,,,,,,,,,,,,,,,,,,,,,,,,,,,True,True,True,0.5,-0.5,-3.94,10.94,1.1,-9.84,-4.37,gamble,win,1.1,-27.18708333333332,917.1035557791165,None,917.1035557791165,None,917.1035557791165,None,917.1035557791165,None,917.1035557791165,None,917.1035557791165,None,917.1035557791165,None,1,2.851309658430182,917.1035557791165,None,919.987990397949,None,919.987990397949,None,919.987990397949,None,919.987990397949,None,919.987990397949,None,919.987990397949,None,919.987990397949,None,923.9728369628992,None,923.9728369628992,None,923.9728369628992,None,923.9728369628992,None,923.9728369628992,None,923.9728369628992,None,923.9728369628992,None,933.4764457312031,None,924.9732203025378,None,925.9736487597766,None,0.52,7.502774572614726,928.9747079035151,None,None,928.9747079035151,None,,,,,,,,,,,,,,,,,,,24287,2020_Mar_09_1654,Mmi_3levels,3.1.5,59.96270038503252,
,,,3,1,6.9,,,,,,,,,0,2,2,2,0,8,8,16,,,,,,,,,,,,,,,,,,,,,,,,,,,,,,,,,,,,,,,,,,,,,,,,,,,,,,,,,,,,,True,True,False,0.52,-0.48,-4.42,11.14,6.9,-4.24,1.33,certain,certain,1.33,-25.85708333333332,935.4939001640232,None,935.4939001640232,None,935.4939001640232,None,935.4939001640232,None,935.4939001640232,None,935.4939001640232,None,935.4939001640232,None,3,1.7676629017478263,935.4939001640232,None,937.2945715523583,None,937.2945715523583,None,937.2945715523583,None,937.2945715523583,None,937.2945715523583,None,937.2945715523583,None,937.2945715523583,None,941.2794286767476,None,941.2794286767476,None,941.2794286767476,None,941.2794286767476,None,941.2794286767476,None,941.2794286767476,None,941.2794286767476,None,942.2798744130705,None,,,,,,,,,,,,,,,,,,,,,,,,,,,,,,24287,2020_Mar_09_1654,Mmi_3levels,3.1.5,59.96270038503252,
,,,3,1,2.3,,,,,,,,,0,2,2,2,0,9,9,5,,,,,,,,,,,,,,,,,,,,,,,,,,,,,,,,,,,,,,,,,,,,,,,,,,,,,,,,,,,,,True,False,True,0.52,-0.48,-4.9,-2.0883333333333334,2.3,0.21166666666666645,1.2558333333333331,gamble,lose,0.21166666666666645,-25.645416666666655,944.2972661292224,None,944.2972661292224,None,944.2972661292224,None,944.2972661292224,None,944.2972661292224,None,944.2972661292224,None,944.2972661292224,None,1,1.7840431516287936,944.2972661292224,None,946.1145772736545,None,946.1145772736545,None,946.1145772736545,None,946.1145772736545,None,946.1145772736545,None,946.1145772736545,None,946.1145772736545,None,950.0994292783162,None,950.0994292783162,None,950.0994292783162,None,950.0994292783162,None,950.0994292783162,None,950.0994292783162,None,950.0994292783162,None,951.0998423763722,None,,,,,,,,,,,,,,,,,,,,,,,,,,,,,,24287,2020_Mar_09_1654,Mmi_3levels,3.1.5,59.96270038503252,
,,,3,1,10.5,,,,,,,,,0,2,2,2,0,10,10,14,,,,,,,,,,,,,,,,,,,,,,,,,,,,,,,,,,,,,,,,,,,,,,,,,,,,,,,,,,,,,True,True,False,0.52,-0.48,-5.380000000000001,12.100000000000001,10.5,-1.6000000000000014,-0.8000000000000007,certain,certain,-0.8000000000000007,-26.445416666666656,953.1172811300257,None,953.1172811300257,None,953.1172811300257,None,953.1172811300257,None,953.1172811300257,None,953.1172811300257,None,953.1172811300257,None,3,2.5512257588870852,953.1172811300257,None,955.7016174500804,None,955.7016174500804,None,955.7016174500804,None,955.7016174500804,None,955.7016174500804,None,955.7016174500804,None,955.7016174500804,None,959.7031655278461,None,959.7031655278461,None,959.7031655278461,None,959.7031655278461,None,959.7031655278461,None,959.7031655278461,None,959.7031655278461,None,969.1900935822287,None,960.6868617539039,None,961.6871977360552,None,0.52,7.502742574315562,964.6883701537772,None,None,964.6883701537772,None,,,,,,,,,,,,,,,,,,,24287,2020_Mar_09_1654,Mmi_3levels,3.1.5,59.96270038503252,
,,,3,1,2.5,,,,,,,,,0,2,2,2,0,11,11,24,,,,,,,,,,,,,,,,,,,,,,,,,,,,,,,,,,,,,,,,,,,,,,,,,,,,,,,,,,,,,True,True,True,0.52,-0.48,-5.860000000000001,12.580000000000002,2.5,-10.080000000000002,-3.790000000000001,gamble,win,2.5,-23.945416666666656,971.2075214564593,None,971.2075214564593,None,971.2075214564593,None,971.2075214564593,None,971.2075214564593,None,971.2075214564593,None,971.2075214564593,None,1,2.4845445009959803,971.2075214564593,None,973.7251419604581,None,973.7251419604581,None,973.7251419604581,None,973.7251419604581,None,973.7251419604581,None,973.7251419604581,None,973.7251419604581,None,977.7266705192615,None,977.7266705192615,None,977.7266705192615,None,977.7266705192615,None,977.7266705192615,None,977.7266705192615,None,977.7266705192615,None,978.7103869042476,None,,,,,,,,,,,,,,,,,,,,,,,,,,,,,,24287,2020_Mar_09_1654,Mmi_3levels,3.1.5,59.96270038503252,
,,,3,1,6.1,,,,,,,,,0,2,2,2,0,12,12,25,,,,,,,,,,,,,,,,,,,,,,,,,,,,,,,,,,,,,,,,,,,,,,,,,,,,,,,,,,,,,True,True,False,0.52,-0.48,-6.340000000000002,13.060000000000002,6.1,-6.960000000000003,-0.4300000000000015,certain,certain,-0.4300000000000015,-24.37541666666666,980.7278525364727,None,980.7278525364727,None,980.7278525364727,None,980.7278525364727,None,980.7278525364727,None,980.7278525364727,None,980.7278525364727,None,3,1.9342972501290205,980.7278525364727,None,982.695231229316,None,982.695231229316,None,982.695231229316,None,982.695231229316,None,982.695231229316,None,982.695231229316,None,982.695231229316,None,986.6967617080172,None,986.6967617080172,None,986.6967617080172,None,986.6967617080172,None,986.6967617080172,None,986.6967617080172,None,986.6967617080172,None,996.1837121612098,None,987.680570248107,None,988.6808419136778,None,0.5,7.502812330607412,991.6819858529107,None,None,991.6819858529107,None,,,,,,,,,,,,,,,,,,,24287,2020_Mar_09_1654,Mmi_3levels,3.1.5,59.96270038503252,
,,,3,1,-0.9,,,,,,,,,0,2,2,2,0,13,13,4,,,,,,,,,,,,,,,,,,,,,,,,,,,,,,,,,,,,,,,,,,,,,,,,,,,,,,,,,,,,,True,True,False,0.5,-0.5,-6.840000000000002,13.840000000000002,-0.9,-14.740000000000002,-7.820000000000001,gamble,win,-0.9,-25.275416666666658,998.2011425953042,None,998.2011425953042,None,998.2011425953042,None,998.2011425953042,None,998.2011425953042,None,998.2011425953042,None,998.2011425953042,None,1,2.4345333975870744,998.2011425953042,None,1000.6687708748905,None,1000.6687708748905,None,1000.6687708748905,None,1000.6687708748905,None,1000.6687708748905,None,1000.6687708748905,None,1000.6687708748905,None,1004.6703112730647,None,1004.6703112730647,None,1004.6703112730647,None,1004.6703112730647,None,1004.6703112730647,None,1004.6703112730647,None,1004.6703112730647,None,1005.6540334177444,None,,,,,,,,,,,,,,,,,,,,,,,,,,,,,,24287,2020_Mar_09_1654,Mmi_3levels,3.1.5,59.96270038503252,
,,,3,1,4.3,,,,,,,,,0,2,2,2,0,14,14,1,,,,,,,,,,,,,,,,,,,,,,,,,,,,,,,,,,,,,,,,,,,,,,,,,,,,,,,,,,,,,True,False,True,0.5,-0.5,-7.340000000000002,-2.361666666666667,4.3,1.938333333333333,0.9691666666666665,gamble,lose,1.938333333333333,-23.337083333333325,1007.6714417730127,None,1007.6714417730127,None,1007.6714417730127,None,1007.6714417730127,None,1007.6714417730127,None,1007.6714417730127,None,1007.6714417730127,None,1,1.2340483673506242,1007.6714417730127,None,1008.9385571838411,None,1008.9385571838411,None,1008.9385571838411,None,1008.9385571838411,None,1008.9385571838411,None,1008.9385571838411,None,1008.9385571838411,None,1012.923429027449,None,1012.923429027449,None,1012.923429027449,None,1012.923429027449,None,1012.923429027449,None,1012.923429027449,None,1012.923429027449,None,1013.9238062874101,None,,,,,,,,,,,,,,,,,,,,,,,,,,,,,,24287,2020_Mar_09_1654,Mmi_3levels,3.1.5,59.96270038503252,
,,,3,1,9.7,,,,,,,,,0,2,2,2,0,15,15,12,,,,,,,,,,,,,,,,,,,,,,,,,,,,,,,,,,,,,,,,,,,,,,,,,,,,,,,,,,,,,True,True,True,0.5,-0.5,-7.840000000000002,14.840000000000002,9.7,-5.140000000000002,-2.570000000000001,gamble,win,9.7,-13.637083333333326,1015.9412466409776,None,1015.9412466409776,None,1015.9412466409776,None,1015.9412466409776,None,1015.9412466409776,None,1015.9412466409776,None,1015.9412466409776,None,1,1.9008091090199741,1015.9412466409776,None,1017.8753163831934,None,1017.8753163831934,None,1017.8753163831934,None,1017.8753163831934,None,1017.8753163831934,None,1017.8753163831934,None,1017.8753163831934,None,1021.8768183834072,None,1021.8768183834072,None,1021.8768183834072,None,1021.8768183834072,None,1021.8768183834072,None,1021.8768183834072,None,1021.8768183834072,None,1031.3638040347287,None,1022.8605510875259,None,1023.8609805047145,None,0.5,7.502739694467891,1026.8620642871447,None,None,1026.8620642871447,None,,,,,,,,,,,,,,,,,,,24287,2020_Mar_09_1654,Mmi_3levels,3.1.5,59.96270038503252,
,,,3,1,9.1,,,,,,,,,0,2,2,2,0,16,16,17,,,,,,,,,,,,,,,,,,,,,,,,,,,,,,,,,,,,,,,,,,,,,,,,,,,,,,,,,,,,,True,False,False,0.5,-0.5,-8.340000000000002,-2.4450000000000003,9.1,6.654999999999999,3.3274999999999997,gamble,lose,6.654999999999999,-6.9820833333333265,1033.3812357487568,None,1033.3812357487568,None,1033.3812357487568,None,1033.3812357487568,None,1033.3812357487568,None,1033.3812357487568,None,1033.3812357487568,None,1,1.1507071944342897,1033.3812357487568,None,1034.5650096666868,None,1034.5650096666868,None,1034.5650096666868,None,1034.5650096666868,None,1034.5650096666868,None,1034.5650096666868,None,1034.5650096666868,None,1038.5498738307015,None,1038.5498738307015,None,1038.5498738307015,None,1038.5498738307015,None,1038.5498738307015,None,1038.5498738307015,None,1038.5498738307015,None,1039.5502453309673,None,,,,,,,,,,,,,,,,,,,,,,,,,,,,,,24287,2020_Mar_09_1654,Mmi_3levels,3.1.5,59.96270038503252,
,,,3,1,8.9,,,,,,,,,0,2,2,2,0,17,17,20,,,,,,,,,,,,,,,,,,,,,,,,,,,,,,,,,,,,,,,,,,,,,,,,,,,,,,,,,,,,,True,True,True,0.5,-0.5,-8.840000000000002,15.840000000000002,8.9,-6.940000000000001,0.9799999999999995,gamble,win,8.9,1.9179166666666738,1041.5676789648933,None,1041.5676789648933,None,1041.5676789648933,None,1041.5676789648933,None,1041.5676789648933,None,1041.5676789648933,None,1041.5676789648933,None,1,1.9010004588562879,1041.5676789648933,None,1043.5017535068528,None,1043.5017535068528,None,1043.5017535068528,None,1043.5017535068528,None,1043.5017535068528,None,1043.5017535068528,None,1043.5017535068528,None,1047.486600711769,None,1047.486600711769,None,1047.486600711769,None,1047.486600711769,None,1047.486600711769,None,1047.486600711769,None,1047.486600711769,None,1056.9902673969955,None,1048.4869936508967,None,1049.4873849901087,None,0.54,7.502700336557609,1052.4884972510263,None,None,1052.4884972510263,None,,,,,,,,,,,,,,,,,,,24287,2020_Mar_09_1654,Mmi_3levels,3.1.5,59.96270038503252,
,,,3,1,3.5,,,,,,,,,0,2,2,2,0,18,18,6,,,,,,,,,,,,,,,,,,,,,,,,,,,,,,,,,,,,,,,,,,,,,,,,,,,,,,,,,,,,,True,True,False,0.54,-0.45999999999999996,-9.3,15.74,3.5,-12.24,-4.37,certain,certain,-4.37,-2.4520833333333263,1059.0076696725864,None,1059.0076696725864,None,1059.0076696725864,None,1059.0076696725864,None,1059.0076696725864,None,1059.0076696725864,None,1059.0076696725864,None,3,2.1844276432020706,1059.0076696725864,None,1061.2251736387752,None,1061.2251736387752,None,1061.2251736387752,None,1061.2251736387752,None,1061.2251736387752,None,1061.2251736387752,None,1061.2251736387752,None,1065.2267044374603,None,1065.2267044374603,None,1065.2267044374603,None,1065.2267044374603,None,1065.2267044374603,None,1065.2267044374603,None,1065.2267044374603,None,1066.2104176226148,None,,,,,,,,,,,,,,,,,,,,,,,,,,,,,,24287,2020_Mar_09_1654,Mmi_3levels,3.1.5,59.96270038503252,
,,,3,1,7.9,,,,,,,,,0,2,2,2,0,19,19,0,,,,,,,,,,,,,,,,,,,,,,,,,,,,,,,,,,,,,,,,,,,,,,,,,,,,,,,,,,,,,True,False,True,0.54,-0.45999999999999996,-9.760000000000002,-2.4233333333333333,7.9,5.476666666666667,2.7383333333333333,gamble,lose,5.476666666666667,3.0245833333333403,1068.2278410170838,None,1068.2278410170838,None,1068.2278410170838,None,1068.2278410170838,None,1068.2278410170838,None,1068.2278410170838,None,1068.2278410170838,None,1,1.150711674195918,1068.2278410170838,None,1069.411634133994,None,1069.411634133994,None,1069.411634133994,None,1069.411634133994,None,1069.411634133994,None,1069.411634133994,None,1069.411634133994,None,1073.4131495734946,None,1073.4131495734946,None,1073.4131495734946,None,1073.4131495734946,None,1073.4131495734946,None,1073.4131495734946,None,1073.4131495734946,None,1082.9001118660562,None,1074.396972192837,None,1075.397255057811,None,0.46,7.502754413686489,1078.3984370750222,None,None,1078.3984370750222,None,,,,,,,,,,,,,,,,,,,24287,2020_Mar_09_1654,Mmi_3levels,3.1.5,59.96270038503252,
,,,3,1,-0.7,,,,,,,,,0,2,2,2,0,20,20,21,,,,,,,,,,,,,,,,,,,,,,,,,,,,,,,,,,,,,,,,,,,,,,,,,,,,,,,,,,,,,True,True,True,0.46,-0.54,-10.3,17.86,-0.7,-18.56,-9.629999999999999,gamble,win,-0.7,2.32458333333334,1084.917546459932,None,1084.917546459932,None,1084.917546459932,None,1084.917546459932,None,1084.917546459932,None,1084.917546459932,None,1084.917546459932,None,1,2.6012423020092683,1084.917546459932,None,1087.5518823640086,None,1087.5518823640086,None,1087.5518823640086,None,1087.5518823640086,None,1087.5518823640086,None,1087.5518823640086,None,1087.5518823640086,None,1091.5534195623532,None,1091.5534195623532,None,1091.5534195623532,None,1091.5534195623532,None,1091.5534195623532,None,1091.5534195623532,None,1091.5534195623532,None,1092.5371237879845,None,,,,,,,,,,,,,,,,,,,,,,,,,,,,,,24287,2020_Mar_09_1654,Mmi_3levels,3.1.5,59.96270038503252,
,,,3,1,1.5,,,,,,,,,0,2,2,2,0,21,21,22,,,,,,,,,,,,,,,,,,,,,,,,,,,,,,,,,,,,,,,,,,,,,,,,,,,,,,,,,,,,,True,False,True,0.46,-0.54,-10.84,-2.7933333333333334,1.5,-1.2933333333333334,0.10333333333333328,certain,certain,0.10333333333333328,2.4279166666666736,1094.554607339258,None,1094.554607339258,None,1094.554607339258,None,1094.554607339258,None,1094.554607339258,None,1094.554607339258,None,1094.554607339258,None,3,2.2343869093674584,1094.554607339258,None,1096.822084010897,None,1096.822084010897,None,1096.822084010897,None,1096.822084010897,None,1096.822084010897,None,1096.822084010897,None,1096.822084010897,None,1100.8069360155587,None,1100.8069360155587,None,1100.8069360155587,None,1100.8069360155587,None,1100.8069360155587,None,1100.8069360155587,None,1100.8069360155587,None,1101.807324154941,None,,,,,,,,,,,,,,,,,,,,,,,,,,,,,,24287,2020_Mar_09_1654,Mmi_3levels,3.1.5,59.96270038503252,
,,,3,1,12.9,,,,,,,,,0,2,2,2,0,22,22,19,,,,,,,,,,,,,,,,,,,,,,,,,,,,,,,,,,,,,,,,,,,,,,,,,,,,,,,,,,,,,True,True,True,0.46,-0.54,-11.379999999999999,18.939999999999998,12.9,-6.039999999999997,-3.0199999999999987,gamble,win,12.9,15.327916666666674,1103.8247494693078,None,1103.8247494693078,None,1103.8247494693078,None,1103.8247494693078,None,1103.8247494693078,None,1103.8247494693078,None,1103.8247494693078,None,1,1.3841293550485716,1103.8247494693078,None,1105.2419644268484,None,1105.2419644268484,None,1105.2419644268484,None,1105.2419644268484,None,1105.2419644268484,None,1105.2419644268484,None,1105.2419644268484,None,1109.2434869059744,None,1109.2434869059744,None,1109.2434869059744,None,1109.2434869059744,None,1109.2434869059744,None,1109.2434869059744,None,1109.2434869059744,None,1118.7304447187762,None,1110.2272042509103,None,1111.2275747912263,None,0.47,7.502768812921204,1114.2286720129414,None,None,1114.2286720129414,None,,,,,,,,,,,,,,,,,,,24287,2020_Mar_09_1654,Mmi_3levels,3.1.5,59.96270038503252,
,,,3,1,11.7,,,,,,,,,0,2,2,2,0,23,23,15,,,,,,,,,,,,,,,,,,,,,,,,,,,,,,,,,,,,,,,,,,,,,,,,,,,,,,,,,,,,,True,True,False,0.47,-0.53,-11.909999999999998,19.33,11.7,-7.629999999999999,-3.8149999999999995,gamble,win,11.7,27.027916666666673,1120.747858833738,None,1120.747858833738,None,1120.747858833738,None,1120.747858833738,None,1120.747858833738,None,1120.747858833738,None,1120.747858833738,None,1,1.4675156455687102,1120.747858833738,None,1122.2484488823957,None,1122.2484488823957,None,1122.2484488823957,None,1122.2484488823957,None,1122.2484488823957,None,1122.2484488823957,None,1122.2484488823957,None,1126.249978721129,None,1126.249978721129,None,1126.249978721129,None,1126.249978721129,None,1126.249978721129,None,1126.249978721129,None,1126.249978721129,None,1127.233686146592,None,,,,,,,,,,,,,,,,,,,,,,,,,,,,,,24287,2020_Mar_09_1654,Mmi_3levels,3.1.5,59.96270038503252,
,,,3,1,0.1,,,,,,,,,0,2,2,2,0,24,24,11,,,,,,,,,,,,,,,,,,,,,,,,,,,,,,,,,,,,,,,,,,,,,,,,,,,,,,,,,,,,,True,False,False,0.47,-0.53,-12.439999999999998,-2.8916666666666666,0.1,-2.7916666666666665,-1.3458333333333332,certain,certain,-1.3458333333333332,25.68208333333334,1129.2511153007545,None,1129.2511153007545,None,1129.2511153007545,None,1129.2511153007545,None,1129.2511153007545,None,1129.2511153007545,None,1129.2511153007545,None,3,2.50122489493333,1129.2511153007545,None,1131.7854171586405,None,1131.7854171586405,None,1131.7854171586405,None,1131.7854171586405,None,1131.7854171586405,None,1131.7854171586405,None,1131.7854171586405,None,1135.7869466773918,None,1135.7869466773918,None,1135.7869466773918,None,1135.7869466773918,None,1135.7869466773918,None,1135.7869466773918,None,1135.7869466773918,None,1145.2738980905324,None,1136.7706541028529,None,1137.7710147236976,None,0.48,7.502721455435676,1140.772161862762,None,None,1140.772161862762,None,,,,,,,,,,,,,,,,,,,24287,2020_Mar_09_1654,Mmi_3levels,3.1.5,59.96270038503252,
,,,3,1,0.5,,,,,,,,,0,2,2,2,0,25,25,18,,,,,,,,,,,,,,,,,,,,,,,,,,,,,,,,,,,,,,,,,,,,,,,,,,,,,,,,,,,,,True,True,True,0.48,-0.52,-12.959999999999997,20.24,0.5,-19.74,-9.62,gamble,win,0.5,26.18208333333334,1147.2913365242039,None,1147.2913365242039,None,1147.2913365242039,None,1147.2913365242039,None,1147.2913365242039,None,1147.2913365242039,None,1147.2913365242039,None,1,2.03432873645761,1147.2913365242039,None,1149.3588350186837,None,1149.3588350186837,None,1149.3588350186837,None,1149.3588350186837,None,1149.3588350186837,None,1149.3588350186837,None,1149.3588350186837,None,1153.3436332662004,None,1153.3436332662004,None,1153.3436332662004,None,1153.3436332662004,None,1153.3436332662004,None,1153.3436332662004,None,1153.3436332662004,None,1154.3440956416398,None,,,,,,,,,,,,,,,,,,,,,,,,,,,,,,24287,2020_Mar_09_1654,Mmi_3levels,3.1.5,59.96270038503252,
,,,3,1,5.9,,,,,,,,,0,2,2,2,0,26,26,7,,,,,,,,,,,,,,,,,,,,,,,,,,,,,,,,,,,,,,,,,,,,,,,,,,,,,,,,,,,,,True,True,True,0.48,-0.52,-13.479999999999997,20.759999999999998,5.9,-14.859999999999998,-4.479999999999999,gamble,win,5.9,32.08208333333334,1156.3614588793043,None,1156.3614588793043,None,1156.3614588793043,None,1156.3614588793043,None,1156.3614588793043,None,1156.3614588793043,None,1156.3614588793043,None,1,2.1677392496912944,1156.3614588793043,None,1158.5622942909267,None,1158.5622942909267,None,1158.5622942909267,None,1158.5622942909267,None,1158.5622942909267,None,1158.5622942909267,None,1158.5622942909267,None,1162.563780611974,None,1162.563780611974,None,1162.563780611974,None,1162.563780611974,None,1162.563780611974,None,1162.563780611974,None,1162.563780611974,None,1172.0508017814082,None,1163.547574432845,None,1164.5479580924657,None,0.48,7.502919844897406,1167.549041874896,None,None,1167.549041874896,None,,,,,,,,,,,,,,,,,,,24287,2020_Mar_09_1654,Mmi_3levels,3.1.5,59.96270038503252,
,,,,,,,,,,,,,,,,,,,,,,,,,,,,,,0,0,0,0,,,,,,,,,,,,,,,,,,,,,,,,,,,,,,,,,,,,,,,,,,,,,,,,,,,,,,,,,,,,,,,,,,,,,,,,,,,,,,,,,,,,,,,,,,,,,,,,,,,,,,,,,,,,,,,,,,,,,,,,,,1174.0515607810903,None,4,9.770577306931955,1174.0515607810903,None,32.08208333333334,2,1183.8552710480017,None,1183.8552710480017,None,1183.8552710480017,None,4,5.535658585817146,1183.8552710480017,None,24287,2020_Mar_09_1654,Mmi_3levels,3.1.5,59.96270038503252,
