currSlide,currImage,currText,blockNum,targetHappiness,highAmount,instructionLoop1.thisRepN,instructionLoop1.thisTrialN,instructionLoop1.thisN,instructionLoop1.thisIndex,instructionLoop2.thisRepN,instructionLoop2.thisTrialN,instructionLoop2.thisN,instructionLoop2.thisIndex,blockLoop.thisRepN,blockLoop.thisTrialN,blockLoop.thisN,blockLoop.thisIndex,trialLoop.thisRepN,trialLoop.thisTrialN,trialLoop.thisN,trialLoop.thisIndex,doRatingLoop.thisRepN,doRatingLoop.thisTrialN,doRatingLoop.thisN,doRatingLoop.thisIndex,trialHappyLoop.thisRepN,trialHappyLoop.thisTrialN,trialHappyLoop.thisN,trialHappyLoop.thisIndex,logWinningsLoop.thisRepN,logWinningsLoop.thisTrialN,logWinningsLoop.thisN,logWinningsLoop.thisIndex,instrImage.started,instrImage.stopped,instrText.started,instrText.stopped,instrContinueText.started,instrContinueText.stopped,instrKeyResp.keys,instrKeyResp.rt,instrKeyResp.started,instrKeyResp.stopped,lifeHappyText.started,lifeHappyText.stopped,lifeHappySlider.response,lifeHappySlider.rt,lifeHappySlider.started,lifeHappySlider.stopped,lifeHappyResp.keys,lifeHappyResp.rt,lifeHappyResp.started,lifeHappyResp.stopped,instrImage_2.started,instrImage_2.stopped,instrText_2.started,instrText_2.stopped,instrContinueText_2.started,instrContinueText_2.stopped,instrKeyResp_2.keys,instrKeyResp_2.rt,instrKeyResp_2.started,instrKeyResp_2.stopped,localizing.started,localizing.stopped,start_exp.keys,start_exp.rt,start_exp.started,start_exp.stopped,blockHappyText.started,blockHappyText.stopped,blockHappySlider.response,blockHappySlider.rt,blockHappySlider.started,blockHappySlider.stopped,blockHappyResp.keys,blockHappyResp.started,blockHappyResp.stopped,blankText.started,blankText.stopped,isHappyBlock,isCongruent,isWinOnTop,lastHappyRating,diff,sumDiff,RPE,winAmount,loseAmount,certainAmount,choice,outcome,outcomeAmount,currentWinnings,fixCross.started,fixCross.stopped,certainBox.started,certainBox.stopped,outcome1Box.started,outcome1Box.stopped,outcome2Box.started,outcome2Box.stopped,certainText.started,certainText.stopped,outcome1Text.started,outcome1Text.stopped,outcome2Text.started,outcome2Text.stopped,choiceKey.keys,choiceKey.rt,choiceKey.started,choiceKey.stopped,fixCross_2.started,fixCross_2.stopped,certainBox_2.started,certainBox_2.stopped,outcome1Box_2.started,outcome1Box_2.stopped,outcome2Box_2.started,outcome2Box_2.stopped,certainText_2.started,certainText_2.stopped,outcome1Text_2.started,outcome1Text_2.stopped,outcome2Text_2.started,outcome2Text_2.stopped,fixCross_3.started,fixCross_3.stopped,certainBox_3.started,certainBox_3.stopped,outcome1Box_3.started,outcome1Box_3.stopped,outcome2Box_3.started,outcome2Box_3.stopped,certainText_3.started,certainText_3.stopped,outcome1Text_3.started,outcome1Text_3.stopped,outcome2Text_3.started,outcome2Text_3.stopped,fixCross_ITI.started,fixCross_ITI.stopped,fixCross_ISI.started,fixCross_ISI.stopped,happyText.started,happyText.stopped,happySlider.response,happySlider.rt,happySlider.started,happySlider.stopped,happyResp.keys,happyResp.started,happyResp.stopped,endOfBlockText.started,endOfBlockText.stopped,restKeyResp.keys,restKeyResp.rt,restKeyResp.started,restKeyResp.stopped,finalWinnings,cashBonus,goodbyeText.started,goodbyeText.stopped,finalWinningsText.started,finalWinningsText.stopped,spaceToContinue.started,spaceToContinue.stopped,goodbyeKeyResp_2.keys,goodbyeKeyResp_2.rt,goodbyeKeyResp_2.started,goodbyeKeyResp_2.stopped,participant,date,expName,psychopyVersion,frameRate,
1,black.png,"Welcome! You are about to play our gambling task.
This task has 3 blocks and takes about 15 minutes.",,,,0,0,0,0,,,,,,,,,,,,,,,,,,,,,,,,,1028.566015023156,None,1028.566015023156,None,1028.566015023156,None,4,7.403134224470705,1028.566015023156,None,,,,,,,,,,,,,,,,,,,,,,,,,,,,,,,,,,,,,,,,,,,,,,,,,,,,,,,,,,,,,,,,,,,,,,,,,,,,,,,,,,,,,,,,,,,,,,,,,,,,,,,,,,,,,,,,,,,,,,,,,,,,,,,,,23780,2019_Dec_30_1128,Mmi_3levels,3.1.5,59.97702768786066,
2,black.png,"In this game, you may win or lose points. Your goal is to get as many points as possible. These points will be converted to a cash bonus at the end.
Sometimes we will ask you to rate your mood.",,,,0,1,1,1,,,,,,,,,,,,,,,,,,,,,,,,,1036.0188901420915,None,1036.0188901420915,None,1036.0188901420915,None,4,1.0006220451323316,1036.0188901420915,None,,,,,,,,,,,,,,,,,,,,,,,,,,,,,,,,,,,,,,,,,,,,,,,,,,,,,,,,,,,,,,,,,,,,,,,,,,,,,,,,,,,,,,,,,,,,,,,,,,,,,,,,,,,,,,,,,,,,,,,,,,,,,,,,,23780,2019_Dec_30_1128,Mmi_3levels,3.1.5,59.97702768786066,
3,black.png,"On the next screen, please rate how you feel about your life these days. Use the LEFT (green) and RIGHT (blue) buttons to move the slider (you can press and hold them to slide gradually) and the TOP (red) button to lock in your response.
Make your rating as accurately and quickly as you can!",,,,0,2,2,2,,,,,,,,,,,,,,,,,,,,,,,,,1037.06922620337,None,1037.06922620337,None,1037.06922620337,None,4,1.567686289548874,1037.06922620337,None,,,,,,,,,,,,,,,,,,,,,,,,,,,,,,,,,,,,,,,,,,,,,,,,,,,,,,,,,,,,,,,,,,,,,,,,,,,,,,,,,,,,,,,,,,,,,,,,,,,,,,,,,,,,,,,,,,,,,,,,,,,,,,,,,23780,2019_Dec_30_1128,Mmi_3levels,3.1.5,59.97702768786066,
,,,,,,,,,,,,,,,,,,,,,,,,,,,,,,,,,,,,,,,,,,,,1038.6532027806388,None,0.84,8.635550649254583,1042.6546609390061,None,4,4.618669034563936,1042.6546609390061,None,,,,,,,,,,,,,,,,,,,,,,,,,,,,,,,,,,,,,,,,,,,,,,,,,,,,,,,,,,,,,,,,,,,,,,,,,,,,,,,,,,,,,,,,,,,,,,,,,,,,,,,,,,,,,,,,,,,,,,,23780,2019_Dec_30_1128,Mmi_3levels,3.1.5,59.97702768786066,
4,black.png,"In this game you can win money by earning points according to your choices. You will decide whether to gamble a number of points or stick with a guaranteed number of points. 
Make your choice by pressing the left or right arrow key once. An example of one trial is shown on the next screen.",,,,,,,,0,0,0,0,,,,,,,,,,,,,,,,,,,,,,,,,,,,,,,,,,,,,,,,,1047.339855848113,None,1047.339855848113,None,1047.339855848113,None,4,2.8846195813966915,1047.339855848113,None,,,,,,,,,,,,,,,,,,,,,,,,,,,,,,,,,,,,,,,,,,,,,,,,,,,,,,,,,,,,,,,,,,,,,,,,,,,,,,,,,,,,,,,,,,,,,,,,,,,,,,,,,,,,,23780,2019_Dec_30_1128,Mmi_3levels,3.1.5,59.97702768786066,
5,example_start.png,"The GAMBLING OPTION will be shown on the RIGHT SIDE. 
Select this option using the RIGHT (blue) button on your keypad.",,,,,,,,0,1,1,1,,,,,,,,,,,,,,,,,,,,,,,,,,,,,,,,,,,,,,,,,1050.290923868306,None,1050.290923868306,None,1050.290923868306,None,4,5.519054772914387,1050.290923868306,None,,,,,,,,,,,,,,,,,,,,,,,,,,,,,,,,,,,,,,,,,,,,,,,,,,,,,,,,,,,,,,,,,,,,,,,,,,,,,,,,,,,,,,,,,,,,,,,,,,,,,,,,,,,,,23780,2019_Dec_30_1128,Mmi_3levels,3.1.5,59.97702768786066,
6,example_gamble.png,"Once you select the gambling choice, the choice you made will remain on the screen.",,,,,,,,0,2,2,2,,,,,,,,,,,,,,,,,,,,,,,,,,,,,,,,,,,,,,,,,1055.8430526290322,None,1055.8430526290322,None,1055.8430526290322,None,4,1.2173811066895723,1055.8430526290322,None,,,,,,,,,,,,,,,,,,,,,,,,,,,,,,,,,,,,,,,,,,,,,,,,,,,,,,,,,,,,,,,,,,,,,,,,,,,,,,,,,,,,,,,,,,,,,,,,,,,,,,,,,,,,,23780,2019_Dec_30_1128,Mmi_3levels,3.1.5,59.97702768786066,
7,example_win.png,"The outcome you received will then be shown on the screen. In this example , you WON 10 points.",,,,,,,,0,3,3,3,,,,,,,,,,,,,,,,,,,,,,,,,,,,,,,,,,,,,,,,,1057.093519242946,None,1057.093519242946,None,1057.093519242946,None,4,1.0674656619085,1057.093519242946,None,,,,,,,,,,,,,,,,,,,,,,,,,,,,,,,,,,,,,,,,,,,,,,,,,,,,,,,,,,,,,,,,,,,,,,,,,,,,,,,,,,,,,,,,,,,,,,,,,,,,,,,,,,,,,23780,2019_Dec_30_1128,Mmi_3levels,3.1.5,59.97702768786066,
8,example_start.png,"The GUARANTEED OPTION will be shown on the LEFT SIDE. You are 100% guaranteed to gain or lose this amount. In this example, you have a 100% chance of winning 1 point. Select this option using the LEFT (green) button on your keyboard.",,,,,,,,0,4,4,4,,,,,,,,,,,,,,,,,,,,,,,,,,,,,,,,,,,,,,,,,1058.2106294847326,None,1058.2106294847326,None,1058.2106294847326,None,4,1.1673640676308423,1058.2106294847326,None,,,,,,,,,,,,,,,,,,,,,,,,,,,,,,,,,,,,,,,,,,,,,,,,,,,,,,,,,,,,,,,,,,,,,,,,,,,,,,,,,,,,,,,,,,,,,,,,,,,,,,,,,,,,,23780,2019_Dec_30_1128,Mmi_3levels,3.1.5,59.97702768786066,
9,example_certain.png,"Once you select the guaranteed choice, your selection will remain on the screen.",,,,,,,,0,5,5,5,,,,,,,,,,,,,,,,,,,,,,,,,,,,,,,,,,,,,,,,,1059.4111027382314,None,1059.4111027382314,None,1059.4111027382314,None,4,0.9339160206727684,1059.4111027382314,None,,,,,,,,,,,,,,,,,,,,,,,,,,,,,,,,,,,,,,,,,,,,,,,,,,,,,,,,,,,,,,,,,,,,,,,,,,,,,,,,,,,,,,,,,,,,,,,,,,,,,,,,,,,,,23780,2019_Dec_30_1128,Mmi_3levels,3.1.5,59.97702768786066,
10,black.png,"Please make your choices as fast as possible.
You will be given a break at the end of each block.
Let's play!",,,,,,,,0,6,6,6,,,,,,,,,,,,,,,,,,,,,,,,,,,,,,,,,,,,,,,,,1060.3780770676676,None,1060.3780770676676,None,1060.3780770676676,None,4,1.500840752851218,1060.3780770676676,None,,,,,,,,,,,,,,,,,,,,,,,,,,,,,,,,,,,,,,,,,,,,,,,,,,,,,,,,,,,,,,,,,,,,,,,,,,,,,,,,,,,,,,,,,,,,,,,,,,,,,,,,,,,,,23780,2019_Dec_30_1128,Mmi_3levels,3.1.5,59.97702768786066,
,,,,,,,,,,,,,,,,,,,,,,,,,,,,,,,,,,,,,,,,,,,,,,,,,,,,,,,,,,,,,,,,1061.8954010575544,None,space,47.96839728974737,1061.8954010575544,None,,,,,,,,,,,,,,,,,,,,,,,,,,,,,,,,,,,,,,,,,,,,,,,,,,,,,,,,,,,,,,,,,,,,,,,,,,,,,,,,,,,,,,,,,,,,,,,,,,,,,,,23780,2019_Dec_30_1128,Mmi_3levels,3.1.5,59.97702768786066,
,,,1,1,1.1,,,,,,,,,0,0,0,0,0,0,0,6,,,,,,,,,,,,,,,,,,,,,,,,,,,,,,,,,,,,,,,,,,,,,,,,,1109.8802044684999,None,0.85,7.496022462728433,1112.8979941923171,None,None,1112.8979941923171,None,1117.3830233507324,None,True,False,False,0.85,-0.15000000000000002,-0.15000000000000002,-0.5375000000000001,1.1,0.5625,0.83125,certain,certain,0.83125,0.83125,1120.4175250985427,None,1120.4175250985427,None,1120.4175250985427,None,1120.4175250985427,None,1120.4175250985427,None,1120.4175250985427,None,1120.4175250985427,None,3,2.651248330133967,1120.4175250985427,None,1123.101878774818,None,1123.101878774818,None,1123.101878774818,None,1123.101878774818,None,1123.101878774818,None,1123.101878774818,None,1123.101878774818,None,1127.0867148239631,None,1127.0867148239631,None,1127.0867148239631,None,1127.0867148239631,None,1127.0867148239631,None,1127.0867148239631,None,1127.0867148239631,None,1128.0870984825306,None,,,,,,,,,,,,,,,,,,,,,,,,,,,,,,23780,2019_Dec_30_1128,Mmi_3levels,3.1.5,59.97702768786066,
,,,1,1,3.5,,,,,,,,,0,0,0,0,0,1,1,2,,,,,,,,,,,,,,,,,,,,,,,,,,,,,,,,,,,,,,,,,,,,,,,,,,,,,,,,,,,,True,False,False,0.85,-0.15000000000000002,-0.30000000000000004,-0.5500000000000002,3.5,2.9499999999999997,1.4749999999999999,gamble,lose,2.9499999999999997,3.78125,1130.1045227866853,None,1130.1045227866853,None,1130.1045227866853,None,1130.1045227866853,None,1130.1045227866853,None,1130.1045227866853,None,1130.1045227866853,None,1,2.1010548209305853,1130.1045227866853,None,1132.2386711144354,None,1132.2386711144354,None,1132.2386711144354,None,1132.2386711144354,None,1132.2386711144354,None,1132.2386711144354,None,1132.2386711144354,None,1136.2235119632678,None,1136.2235119632678,None,1136.2235119632678,None,1136.2235119632678,None,1136.2235119632678,None,1136.2235119632678,None,1136.2235119632678,None,1137.2238889022265,None,,,,,,,,,,,,,,,,,,,,,,,,,,,,,,23780,2019_Dec_30_1128,Mmi_3levels,3.1.5,59.97702768786066,
,,,1,1,0.3,,,,,,,,,0,0,0,0,0,2,2,19,,,,,,,,,,,,,,,,,,,,,,,,,,,,,,,,,,,,,,,,,,,,,,,,,,,,,,,,,,,,True,False,True,0.85,-0.15000000000000002,-0.45000000000000007,-0.5625000000000001,0.3,-0.2625000000000001,0.018749999999999933,certain,certain,0.018749999999999933,3.8,1139.2413202460157,None,1139.2413202460157,None,1139.2413202460157,None,1139.2413202460157,None,1139.2413202460157,None,1139.2413202460157,None,1139.2413202460157,None,3,2.6512528099119663,1139.2413202460157,None,1141.9089932563948,None,1141.9089932563948,None,1141.9089932563948,None,1141.9089932563948,None,1141.9089932563948,None,1141.9089932563948,None,1141.9089932563948,None,1145.9105707680574,None,1145.9105707680574,None,1145.9105707680574,None,1145.9105707680574,None,1145.9105707680574,None,1145.9105707680574,None,1145.9105707680574,None,1155.4141096099047,None,1146.910896829795,None,1147.9112718487158,None,0.86,7.502753285807557,1150.9123773868196,None,None,1150.9123773868196,None,,,,,,,,,,,,,,,,,,,23780,2019_Dec_30_1128,Mmi_3levels,3.1.5,59.97702768786066,
,,,1,1,6.3,,,,,,,,,0,0,0,0,0,3,3,20,,,,,,,,,,,,,,,,,,,,,,,,,,,,,,,,,,,,,,,,,,,,,,,,,,,,,,,,,,,,True,True,True,0.86,-0.14,-0.5900000000000001,2.5500000000000003,6.3,3.7499999999999996,1.8749999999999998,gamble,win,6.3,10.1,1157.4315479933284,None,1157.4315479933284,None,1157.4315479933284,None,1157.4315479933284,None,1157.4315479933284,None,1157.4315479933284,None,1157.4315479933284,None,1,1.5173153502400964,1157.4315479933284,None,1158.9821325205266,None,1158.9821325205266,None,1158.9821325205266,None,1158.9821325205266,None,1158.9821325205266,None,1158.9821325205266,None,1158.9821325205266,None,1162.9669647299452,None,1162.9669647299452,None,1162.9669647299452,None,1162.9669647299452,None,1162.9669647299452,None,1162.9669647299452,None,1162.9669647299452,None,1163.967348068487,None,,,,,,,,,,,,,,,,,,,,,,,,,,,,,,23780,2019_Dec_30_1128,Mmi_3levels,3.1.5,59.97702768786066,
,,,1,1,11.7,,,,,,,,,0,0,0,0,0,4,4,1,,,,,,,,,,,,,,,,,,,,,,,,,,,,,,,,,,,,,,,,,,,,,,,,,,,,,,,,,,,,True,True,True,0.86,-0.14,-0.7300000000000001,2.6900000000000004,11.7,9.009999999999998,4.504999999999999,gamble,win,11.7,21.799999999999997,1165.984783892054,None,1165.984783892054,None,1165.984783892054,None,1165.984783892054,None,1165.984783892054,None,1165.984783892054,None,1165.984783892054,None,1,1.6508825906785205,1165.984783892054,None,1167.6687558296835,None,1167.6687558296835,None,1167.6687558296835,None,1167.6687558296835,None,1167.6687558296835,None,1167.6687558296835,None,1167.6687558296835,None,1171.6702943035634,None,1171.6702943035634,None,1171.6702943035634,None,1171.6702943035634,None,1171.6702943035634,None,1171.6702943035634,None,1171.6702943035634,None,1181.1572049565148,None,1172.6539745774353,None,1173.6543841544772,None,0.9,7.502880318672396,1176.6554768932983,None,None,1176.6554768932983,None,,,,,,,,,,,,,,,,,,,23780,2019_Dec_30_1128,Mmi_3levels,3.1.5,59.97702768786066,
,,,1,1,8.9,,,,,,,,,0,0,0,0,0,5,5,21,,,,,,,,,,,,,,,,,,,,,,,,,,,,,,,,,,,,,,,,,,,,,,,,,,,,,,,,,,,,True,True,False,0.9,-0.09999999999999998,-0.8300000000000001,2.2299999999999995,8.9,6.670000000000001,3.3350000000000004,gamble,win,8.9,30.699999999999996,1183.1746846176684,None,1183.1746846176684,None,1183.1746846176684,None,1183.1746846176684,None,1183.1746846176684,None,1183.1746846176684,None,1183.1746846176684,None,1,0.9672303150873631,1183.1746846176684,None,1184.1750106794061,None,1184.1750106794061,None,1184.1750106794061,None,1184.1750106794061,None,1184.1750106794061,None,1184.1750106794061,None,1184.1750106794061,None,1188.1598489684984,None,1188.1598489684984,None,1188.1598489684984,None,1188.1598489684984,None,1188.1598489684984,None,1188.1598489684984,None,1188.1598489684984,None,1189.1602243074449,None,,,,,,,,,,,,,,,,,,,,,,,,,,,,,,23780,2019_Dec_30_1128,Mmi_3levels,3.1.5,59.97702768786066,
,,,1,1,1.5,,,,,,,,,0,0,0,0,0,6,6,7,,,,,,,,,,,,,,,,,,,,,,,,,,,,,,,,,,,,,,,,,,,,,,,,,,,,,,,,,,,,True,True,False,0.9,-0.09999999999999998,-0.93,2.3299999999999996,1.5,-0.8299999999999996,0.3350000000000002,certain,certain,0.3350000000000002,31.034999999999997,1191.1776050941553,None,1191.1776050941553,None,1191.1776050941553,None,1191.1776050941553,None,1191.1776050941553,None,1191.1776050941553,None,1191.1776050941553,None,3,2.1011204172391444,1191.1776050941553,None,1193.3118023790885,None,1193.3118023790885,None,1193.3118023790885,None,1193.3118023790885,None,1193.3118023790885,None,1193.3118023790885,None,1193.3118023790885,None,1197.2966413081158,None,1197.2966413081158,None,1197.2966413081158,None,1197.2966413081158,None,1197.2966413081158,None,1197.2966413081158,None,1197.2966413081158,None,1198.2970185669838,None,,,,,,,,,,,,,,,,,,,,,,,,,,,,,,23780,2019_Dec_30_1128,Mmi_3levels,3.1.5,59.97702768786066,
,,,1,1,1.7,,,,,,,,,0,0,0,0,0,7,7,13,,,,,,,,,,,,,,,,,,,,,,,,,,,,,,,,,,,,,,,,,,,,,,,,,,,,,,,,,,,,True,True,False,0.9,-0.09999999999999998,-1.03,2.4299999999999997,1.7,-0.7299999999999998,0.4850000000000001,certain,certain,0.4850000000000001,31.519999999999996,1200.314448630903,None,1200.314448630903,None,1200.314448630903,None,1200.314448630903,None,1200.314448630903,None,1200.314448630903,None,1200.314448630903,None,3,1.5508475526003167,1200.314448630903,None,1201.8983628116548,None,1201.8983628116548,None,1201.8983628116548,None,1201.8983628116548,None,1201.8983628116548,None,1201.8983628116548,None,1201.8983628116548,None,1205.8998987256782,None,1205.8998987256782,None,1205.8998987256782,None,1205.8998987256782,None,1205.8998987256782,None,1205.8998987256782,None,1205.8998987256782,None,1215.3868103385903,None,1206.8836081179325,None,1207.884040093748,None,0.88,7.50270496844314,1210.8851190733258,None,None,1210.8851190733258,None,,,,,,,,,,,,,,,,,,,23780,2019_Dec_30_1128,Mmi_3levels,3.1.5,59.97702768786066,
,,,1,1,0.9,,,,,,,,,0,0,0,0,0,8,8,10,,,,,,,,,,,,,,,,,,,,,,,,,,,,,,,,,,,,,,,,,,,,,,,,,,,,,,,,,,,,True,True,False,0.88,-0.12,-1.15,2.83,0.9,-1.9300000000000002,-0.5150000000000001,certain,certain,-0.5150000000000001,31.004999999999995,1217.404253841727,None,1217.404253841727,None,1217.404253841727,None,1217.404253841727,None,1217.404253841727,None,1217.404253841727,None,1217.404253841727,None,3,2.3676475717220455,1217.404253841727,None,1219.8051667506807,None,1219.8051667506807,None,1219.8051667506807,None,1219.8051667506807,None,1219.8051667506807,None,1219.8051667506807,None,1219.8051667506807,None,1223.8067340229172,None,1223.8067340229172,None,1223.8067340229172,None,1223.8067340229172,None,1223.8067340229172,None,1223.8067340229172,None,1223.8067340229172,None,1224.790389338159,None,,,,,,,,,,,,,,,,,,,,,,,,,,,,,,23780,2019_Dec_30_1128,Mmi_3levels,3.1.5,59.97702768786066,
,,,1,1,-1.1,,,,,,,,,0,0,0,0,0,9,9,9,,,,,,,,,,,,,,,,,,,,,,,,,,,,,,,,,,,,,,,,,,,,,,,,,,,,,,,,,,,,True,True,True,0.88,-0.12,-1.27,2.95,-1.1,-4.050000000000001,-2.575,certain,certain,-2.575,28.429999999999996,1226.8078753990121,None,1226.8078753990121,None,1226.8078753990121,None,1226.8078753990121,None,1226.8078753990121,None,1226.8078753990121,None,1226.8078753990121,None,3,2.534495508298278,1226.8078753990121,None,1229.3754836128792,None,1229.3754836128792,None,1229.3754836128792,None,1229.3754836128792,None,1229.3754836128792,None,1229.3754836128792,None,1229.3754836128792,None,1233.3769795291591,None,1233.3769795291591,None,1233.3769795291591,None,1233.3769795291591,None,1233.3769795291591,None,1233.3769795291591,None,1233.3769795291591,None,1242.863890822162,None,1234.3606825218303,None,1235.3610578607768,None,0.89,7.502786243916489,1238.3621755581116,None,None,1238.3621755581116,None,,,,,,,,,,,,,,,,,,,23780,2019_Dec_30_1128,Mmi_3levels,3.1.5,59.97702768786066,
,,,1,1,9.5,,,,,,,,,0,0,0,0,0,10,10,26,,,,,,,,,,,,,,,,,,,,,,,,,,,,,,,,,,,,,,,,,,,,,,,,,,,,,,,,,,,,True,True,True,0.89,-0.10999999999999999,-1.38,2.92,9.5,6.58,3.29,certain,certain,3.29,31.719999999999995,1244.8813308054814,None,1244.8813308054814,None,1244.8813308054814,None,1244.8813308054814,None,1244.8813308054814,None,1244.8813308054814,None,1244.8813308054814,None,3,1.084047453245148,1244.8813308054814,None,1245.9984752853634,None,1245.9984752853634,None,1245.9984752853634,None,1245.9984752853634,None,1245.9984752853634,None,1245.9984752853634,None,1245.9984752853634,None,1249.983259177534,None,1249.983259177534,None,1249.983259177534,None,1249.983259177534,None,1249.983259177534,None,1249.983259177534,None,1249.983259177534,None,1250.9836367563112,None,,,,,,,,,,,,,,,,,,,,,,,,,,,,,,23780,2019_Dec_30_1128,Mmi_3levels,3.1.5,59.97702768786066,
,,,1,1,11.9,,,,,,,,,0,0,0,0,0,11,11,11,,,,,,,,,,,,,,,,,,,,,,,,,,,,,,,,,,,,,,,,,,,,,,,,,,,,,,,,,,,,True,True,True,0.89,-0.10999999999999999,-1.4899999999999998,3.0299999999999994,11.9,8.870000000000001,4.4350000000000005,gamble,win,11.9,43.62,1253.0010674601654,None,1253.0010674601654,None,1253.0010674601654,None,1253.0010674601654,None,1253.0010674601654,None,1253.0010674601654,None,1253.0010674601654,None,1,0.7672018368029967,1253.0010674601654,None,1253.8013567239977,None,1253.8013567239977,None,1253.8013567239977,None,1253.8013567239977,None,1253.8013567239977,None,1253.8013567239977,None,1253.8013567239977,None,1257.786217731773,None,1257.786217731773,None,1257.786217731773,None,1257.786217731773,None,1257.786217731773,None,1257.786217731773,None,1257.786217731773,None,1267.2898698472418,None,1258.7865981905488,None,1259.7869767292868,None,0.89,7.502899517654441,1262.788153943373,None,None,1262.788153943373,None,,,,,,,,,,,,,,,,,,,23780,2019_Dec_30_1128,Mmi_3levels,3.1.5,59.97702768786066,
,,,1,1,11.5,,,,,,,,,0,0,0,0,0,12,12,17,,,,,,,,,,,,,,,,,,,,,,,,,,,,,,,,,,,,,,,,,,,,,,,,,,,,,,,,,,,,True,True,True,0.89,-0.10999999999999999,-1.5999999999999996,3.1399999999999997,11.5,8.36,4.18,gamble,win,11.5,55.12,1269.3072448743042,None,1269.3072448743042,None,1269.3072448743042,None,1269.3072448743042,None,1269.3072448743042,None,1269.3072448743042,None,1269.3072448743042,None,1,0.9172788723371923,1269.3072448743042,None,1270.2576114936965,None,1270.2576114936965,None,1270.2576114936965,None,1270.2576114936965,None,1270.2576114936965,None,1270.2576114936965,None,1270.2576114936965,None,1274.2590702921152,None,1274.2590702921152,None,1274.2590702921152,None,1274.2590702921152,None,1274.2590702921152,None,1274.2590702921152,None,1274.2590702921152,None,1275.2428219219437,None,,,,,,,,,,,,,,,,,,,,,,,,,,,,,,23780,2019_Dec_30_1128,Mmi_3levels,3.1.5,59.97702768786066,
,,,1,1,4.5,,,,,,,,,0,0,0,0,0,13,13,0,,,,,,,,,,,,,,,,,,,,,,,,,,,,,,,,,,,,,,,,,,,,,,,,,,,,,,,,,,,,True,True,False,0.89,-0.10999999999999999,-1.7099999999999995,3.249999999999999,4.5,1.2500000000000009,0.6250000000000004,gamble,win,4.5,59.62,1277.2602420664625,None,1277.2602420664625,None,1277.2602420664625,None,1277.2602420664625,None,1277.2602420664625,None,1277.2602420664625,None,1277.2602420664625,None,1,1.2840880911098793,1277.2602420664625,None,1278.5774278240278,None,1278.5774278240278,None,1278.5774278240278,None,1278.5774278240278,None,1278.5774278240278,None,1278.5774278240278,None,1278.5774278240278,None,1282.5622635532636,None,1282.5622635532636,None,1282.5622635532636,None,1282.5622635532636,None,1282.5622635532636,None,1282.5622635532636,None,1282.5622635532636,None,1283.5626436918974,None,,,,,,,,,,,,,,,,,,,,,,,,,,,,,,23780,2019_Dec_30_1128,Mmi_3levels,3.1.5,59.97702768786066,
,,,1,1,10.5,,,,,,,,,0,0,0,0,0,14,14,15,,,,,,,,,,,,,,,,,,,,,,,,,,,,,,,,,,,,,,,,,,,,,,,,,,,,,,,,,,,,True,True,True,0.89,-0.10999999999999999,-1.8199999999999994,3.3599999999999994,10.5,7.140000000000001,3.5700000000000003,gamble,win,10.5,70.12,1285.580074395868,None,1285.580074395868,None,1285.580074395868,None,1285.580074395868,None,1285.580074395868,None,1285.580074395868,None,1285.580074395868,None,1,0.8339532986283302,1285.580074395868,None,1286.4471253609518,None,1286.4471253609518,None,1286.4471253609518,None,1286.4471253609518,None,1286.4471253609518,None,1286.4471253609518,None,1286.4471253609518,None,1290.4319550105138,None,1290.4319550105138,None,1290.4319550105138,None,1290.4319550105138,None,1290.4319550105138,None,1290.4319550105138,None,1290.4319550105138,None,1299.9355076116044,None,1291.4322897117818,None,1292.4326490516542,None,0.94,7.502752325846814,1295.4337875478668,None,None,1295.4337875478668,None,,,,,,,,,,,,,,,,,,,23780,2019_Dec_30_1128,Mmi_3levels,3.1.5,59.97702768786066,
,,,1,1,5.9,,,,,,,,,0,0,0,0,0,15,15,18,,,,,,,,,,,,,,,,,,,,,,,,,,,,,,,,,,,,,,,,,,,,,,,,,,,,,,,,,,,,True,True,False,0.94,-0.06000000000000005,-1.8799999999999994,2.72,5.9,3.18,1.59,gamble,win,5.9,76.02000000000001,1301.9529418352759,None,1301.9529418352759,None,1301.9529418352759,None,1301.9529418352759,None,1301.9529418352759,None,1301.9529418352759,None,1301.9529418352759,None,1,0.8338985816808417,1301.9529418352759,None,1302.8199339236598,None,1302.8199339236598,None,1302.8199339236598,None,1302.8199339236598,None,1302.8199339236598,None,1302.8199339236598,None,1302.8199339236598,None,1306.8047747726087,None,1306.8047747726087,None,1306.8047747726087,None,1306.8047747726087,None,1306.8047747726087,None,1306.8047747726087,None,1306.8047747726087,None,1307.805158431176,None,,,,,,,,,,,,,,,,,,,,,,,,,,,,,,23780,2019_Dec_30_1128,Mmi_3levels,3.1.5,59.97702768786066,
,,,1,1,4.1,,,,,,,,,0,0,0,0,0,16,16,24,,,,,,,,,,,,,,,,,,,,,,,,,,,,,,,,,,,,,,,,,,,,,,,,,,,,,,,,,,,,True,False,True,0.94,-0.06000000000000005,-1.9399999999999995,-0.3716666666666668,4.1,3.7283333333333326,1.8641666666666663,gamble,lose,3.7283333333333326,79.74833333333335,1309.8225840153173,None,1309.8225840153173,None,1309.8225840153173,None,1309.8225840153173,None,1309.8225840153173,None,1309.8225840153173,None,1309.8225840153173,None,1,0.8006098858313635,1309.8225840153173,None,1310.656252209912,None,1310.656252209912,None,1310.656252209912,None,1310.656252209912,None,1310.656252209912,None,1310.656252209912,None,1310.656252209912,None,1314.6411461757962,None,1314.6411461757962,None,1314.6411461757962,None,1314.6411461757962,None,1314.6411461757962,None,1314.6411461757962,None,1314.6411461757962,None,1324.1446536594303,None,1315.6415112753166,None,1316.6418334973278,None,0.94,7.502756485599093,1319.6429342356278,None,None,1319.6429342356278,None,,,,,,,,,,,,,,,,,,,23780,2019_Dec_30_1128,Mmi_3levels,3.1.5,59.97702768786066,
,,,1,1,5.3,,,,,,,,,0,0,0,0,0,17,17,4,,,,,,,,,,,,,,,,,,,,,,,,,,,,,,,,,,,,,,,,,,,,,,,,,,,,,,,,,,,,True,False,False,0.94,-0.06000000000000005,-1.9999999999999996,-0.3766666666666668,5.3,4.923333333333333,2.4616666666666664,gamble,lose,4.923333333333333,84.67166666666668,1326.162158919149,None,1326.162158919149,None,1326.162158919149,None,1326.162158919149,None,1326.162158919149,None,1326.162158919149,None,1326.162158919149,None,1,0.7671340004308149,1326.162158919149,None,1326.9623518682783,None,1326.9623518682783,None,1326.9623518682783,None,1326.9623518682783,None,1326.9623518682783,None,1326.9623518682783,None,1326.9623518682783,None,1330.9473194300663,None,1330.9473194300663,None,1330.9473194300663,None,1330.9473194300663,None,1330.9473194300663,None,1330.9473194300663,None,1330.9473194300663,None,1331.9476090138778,None,,,,,,,,,,,,,,,,,,,,,,,,,,,,,,23780,2019_Dec_30_1128,Mmi_3levels,3.1.5,59.97702768786066,
,,,1,1,2.3,,,,,,,,,0,0,0,0,0,18,18,14,,,,,,,,,,,,,,,,,,,,,,,,,,,,,,,,,,,,,,,,,,,,,,,,,,,,,,,,,,,,True,True,True,0.94,-0.06000000000000005,-2.0599999999999996,2.9000000000000004,2.3,-0.6000000000000005,0.8499999999999996,certain,certain,0.8499999999999996,85.52166666666668,1333.965064036427,None,1333.965064036427,None,1333.965064036427,None,1333.965064036427,None,1333.965064036427,None,1333.965064036427,None,1333.965064036427,None,3,1.6342544016661122,1333.965064036427,None,1335.6324388234643,None,1335.6324388234643,None,1335.6324388234643,None,1335.6324388234643,None,1335.6324388234643,None,1335.6324388234643,None,1335.6324388234643,None,1339.6171977568883,None,1339.6171977568883,None,1339.6171977568883,None,1339.6171977568883,None,1339.6171977568883,None,1339.6171977568883,None,1339.6171977568883,None,1340.61757981556,None,,,,,,,,,,,,,,,,,,,,,,,,,,,,,,23780,2019_Dec_30_1128,Mmi_3levels,3.1.5,59.97702768786066,
,,,1,1,2.5,,,,,,,,,0,0,0,0,0,19,19,3,,,,,,,,,,,,,,,,,,,,,,,,,,,,,,,,,,,,,,,,,,,,,,,,,,,,,,,,,,,,True,False,True,0.94,-0.06000000000000005,-2.1199999999999997,-0.3866666666666668,2.5,2.1133333333333333,1.0566666666666666,gamble,lose,2.1133333333333333,87.635,1342.6350092394277,None,1342.6350092394277,None,1342.6350092394277,None,1342.6350092394277,None,1342.6350092394277,None,1342.6350092394277,None,1342.6350092394277,None,1,0.8006578831700608,1342.6350092394277,None,1343.4686975929653,None,1343.4686975929653,None,1343.4686975929653,None,1343.4686975929653,None,1343.4686975929653,None,1343.4686975929653,None,1343.4686975929653,None,1347.470196389011,None,1347.470196389011,None,1347.470196389011,None,1347.470196389011,None,1347.470196389011,None,1347.470196389011,None,1347.470196389011,None,1356.957077283645,None,1348.4538789028302,None,1349.4542568016332,None,0.91,7.50261345366016,1352.455379618681,None,None,1352.455379618681,None,,,,,,,,,,,,,,,,,,,23780,2019_Dec_30_1128,Mmi_3levels,3.1.5,59.97702768786066,
,,,1,1,12.3,,,,,,,,,0,0,0,0,0,20,20,16,,,,,,,,,,,,,,,,,,,,,,,,,,,,,,,,,,,,,,,,,,,,,,,,,,,,,,,,,,,,True,False,True,0.91,-0.08999999999999997,-2.2099999999999995,-0.49916666666666654,12.3,11.800833333333333,5.900416666666667,gamble,lose,11.800833333333333,99.43583333333333,1358.9745323061943,None,1358.9745323061943,None,1358.9745323061943,None,1358.9745323061943,None,1358.9745323061943,None,1358.9745323061943,None,1358.9745323061943,None,1,0.7005108514567837,1358.9745323061943,None,1359.7081885014195,None,1359.7081885014195,None,1359.7081885014195,None,1359.7081885014195,None,1359.7081885014195,None,1359.7081885014195,None,1359.7081885014195,None,1363.6929355956381,None,1363.6929355956381,None,1363.6929355956381,None,1363.6929355956381,None,1363.6929355956381,None,1363.6929355956381,None,1363.6929355956381,None,1364.6933608517284,None,,,,,,,,,,,,,,,,,,,,,,,,,,,,,,23780,2019_Dec_30_1128,Mmi_3levels,3.1.5,59.97702768786066,
,,,1,1,11.3,,,,,,,,,0,0,0,0,0,21,21,12,,,,,,,,,,,,,,,,,,,,,,,,,,,,,,,,,,,,,,,,,,,,,,,,,,,,,,,,,,,,True,True,False,0.91,-0.08999999999999997,-2.2999999999999994,3.5599999999999987,11.3,7.740000000000002,3.870000000000001,gamble,win,11.3,110.73583333333333,1366.7107573176036,None,1366.7107573176036,None,1366.7107573176036,None,1366.7107573176036,None,1366.7107573176036,None,1366.7107573176036,None,1366.7107573176036,None,1,0.800611165817827,1366.7107573176036,None,1367.544405993307,None,1367.544405993307,None,1367.544405993307,None,1367.544405993307,None,1367.544405993307,None,1367.544405993307,None,1367.544405993307,None,1371.5292503619567,None,1371.5292503619567,None,1371.5292503619567,None,1371.5292503619567,None,1371.5292503619567,None,1371.5292503619567,None,1371.5292503619567,None,1381.0328813586384,None,1372.5296637788415,None,1373.530006159679,None,0.92,7.502783364150673,1376.531128976727,None,None,1376.531128976727,None,,,,,,,,,,,,,,,,,,,23780,2019_Dec_30_1128,Mmi_3levels,3.1.5,59.97702768786066,
,,,1,1,8.3,,,,,,,,,0,0,0,0,0,22,22,5,,,,,,,,,,,,,,,,,,,,,,,,,,,,,,,,,,,,,,,,,,,,,,,,,,,,,,,,,,,,True,True,False,0.92,-0.07999999999999996,-2.3799999999999994,3.499999999999999,8.3,4.800000000000002,2.400000000000001,gamble,win,8.3,119.03583333333333,1383.0503370211227,None,1383.0503370211227,None,1383.0503370211227,None,1383.0503370211227,None,1383.0503370211227,None,1383.0503370211227,None,1383.0503370211227,None,1,0.9505893269088119,1383.0503370211227,None,1384.03398401686,None,1384.03398401686,None,1384.03398401686,None,1384.03398401686,None,1384.03398401686,None,1384.03398401686,None,1384.03398401686,None,1388.0188712632516,None,1388.0188712632516,None,1388.0188712632516,None,1388.0188712632516,None,1388.0188712632516,None,1388.0188712632516,None,1388.0188712632516,None,1389.0192040445982,None,,,,,,,,,,,,,,,,,,,,,,,,,,,,,,23780,2019_Dec_30_1128,Mmi_3levels,3.1.5,59.97702768786066,
,,,1,1,-0.5,,,,,,,,,0,0,0,0,0,23,23,8,,,,,,,,,,,,,,,,,,,,,,,,,,,,,,,,,,,,,,,,,,,,,,,,,,,,,,,,,,,,True,False,True,0.92,-0.07999999999999996,-2.4599999999999995,-0.4849999999999998,-0.5,-0.9849999999999999,-0.7424999999999999,certain,certain,-0.7424999999999999,118.29333333333332,1391.0366296287393,None,1391.0366296287393,None,1391.0366296287393,None,1391.0366296287393,None,1391.0366296287393,None,1391.0366296287393,None,1391.0366296287393,None,3,2.1510804994031787,1391.0366296287393,None,1393.2207924355753,None,1393.2207924355753,None,1393.2207924355753,None,1393.2207924355753,None,1393.2207924355753,None,1393.2207924355753,None,1393.2207924355753,None,1397.2223520282423,None,1397.2223520282423,None,1397.2223520282423,None,1397.2223520282423,None,1397.2223520282423,None,1397.2223520282423,None,1397.2223520282423,None,1406.7092351628235,None,1398.2060508611612,None,1399.206398681621,None,0.89,7.502816642168909,1402.2075214987854,None,None,1402.2075214987854,None,,,,,,,,,,,,,,,,,,,23780,2019_Dec_30_1128,Mmi_3levels,3.1.5,59.97702768786066,
,,,1,1,7.7,,,,,,,,,0,0,0,0,0,24,24,22,,,,,,,,,,,,,,,,,,,,,,,,,,,,,,,,,,,,,,,,,,,,,,,,,,,,,,,,,,,,True,True,False,0.89,-0.10999999999999999,-2.5699999999999994,4.109999999999999,7.7,3.5900000000000007,1.7950000000000004,gamble,win,7.7,125.99333333333333,1408.7266645868076,None,1408.7266645868076,None,1408.7266645868076,None,1408.7266645868076,None,1408.7266645868076,None,1408.7266645868076,None,1408.7266645868076,None,1,0.7504197366070002,1408.7266645868076,None,1409.510346780531,None,1409.510346780531,None,1409.510346780531,None,1409.510346780531,None,1409.510346780531,None,1409.510346780531,None,1409.510346780531,None,1413.495183149702,None,1413.495183149702,None,1413.495183149702,None,1413.495183149702,None,1413.495183149702,None,1413.495183149702,None,1413.495183149702,None,1414.495514971204,None,,,,,,,,,,,,,,,,,,,,,,,,,,,,,,23780,2019_Dec_30_1128,Mmi_3levels,3.1.5,59.97702768786066,
,,,1,1,-0.3,,,,,,,,,0,0,0,0,0,25,25,23,,,,,,,,,,,,,,,,,,,,,,,,,,,,,,,,,,,,,,,,,,,,,,,,,,,,,,,,,,,,True,True,False,0.89,-0.10999999999999999,-2.6799999999999993,4.219999999999999,-0.3,-4.519999999999999,-2.4099999999999993,certain,certain,-2.4099999999999993,123.58333333333333,1416.5129850328667,None,1416.5129850328667,None,1416.5129850328667,None,1416.5129850328667,None,1416.5129850328667,None,1416.5129850328667,None,1416.5129850328667,None,3,1.200715799932368,1416.5129850328667,None,1417.7467444223585,None,1417.7467444223585,None,1417.7467444223585,None,1417.7467444223585,None,1417.7467444223585,None,1417.7467444223585,None,1417.7467444223585,None,1421.7316355083603,None,1421.7316355083603,None,1421.7316355083603,None,1421.7316355083603,None,1421.7316355083603,None,1421.7316355083603,None,1421.7316355083603,None,1422.7320185269928,None,,,,,,,,,,,,,,,,,,,,,,,,,,,,,,23780,2019_Dec_30_1128,Mmi_3levels,3.1.5,59.97702768786066,
,,,1,1,0.5,,,,,,,,,0,0,0,0,0,26,26,25,,,,,,,,,,,,,,,,,,,,,,,,,,,,,,,,,,,,,,,,,,,,,,,,,,,,,,,,,,,,True,True,False,0.89,-0.10999999999999999,-2.789999999999999,4.329999999999999,0.5,-3.829999999999999,-1.6649999999999996,certain,certain,-1.6649999999999996,121.91833333333332,1424.749392593978,None,1424.749392593978,None,1424.749392593978,None,1424.749392593978,None,1424.749392593978,None,1424.749392593978,None,1424.749392593978,None,3,0.7005652483785525,1424.749392593978,None,1425.4830097514205,None,1425.4830097514205,None,1425.4830097514205,None,1425.4830097514205,None,1425.4830097514205,None,1425.4830097514205,None,1425.4830097514205,None,1429.4678512403043,None,1429.4678512403043,None,1429.4678512403043,None,1429.4678512403043,None,1429.4678512403043,None,1429.4678512403043,None,1429.4678512403043,None,1438.9714732775465,None,1430.468223699485,None,1431.4686201572185,None,0.87,7.502760325442068,1434.4697842521127,None,None,1434.4697842521127,None,,,,,,,,,,,,,,,,,,,23780,2019_Dec_30_1128,Mmi_3levels,3.1.5,59.97702768786066,
,,,2,0,4.7,,,,,,,,,0,1,1,1,0,0,0,22,,,,,,,,,,,,,,,,,,,,,,,,,,,,,,,,,,,,,,,,,,,,,,,,,1443.6398806467187,None,0.92,7.501643587951548,1446.6576950090239,None,None,1446.6576950090239,None,1451.1427580855088,None,False,True,False,0.92,0.92,0.92,-13.8,4.7,-9.100000000000001,-2.2000000000000006,certain,certain,-2.2000000000000006,119.71833333333332,1454.1772284752224,None,1454.1772284752224,None,1454.1772284752224,None,1454.1772284752224,None,1454.1772284752224,None,1454.1772284752224,None,1454.1772284752224,None,3,0.8838906621094793,1454.1772284752224,None,1455.0942116841907,None,1455.0942116841907,None,1455.0942116841907,None,1455.0942116841907,None,1455.0942116841907,None,1455.0942116841907,None,1455.0942116841907,None,1459.0957344789058,None,1459.0957344789058,None,1459.0957344789058,None,1459.0957344789058,None,1459.0957344789058,None,1459.0957344789058,None,1459.0957344789058,None,1460.079434911604,None,,,,,,,,,,,,1440.9721967569785,None,4,2.6513388850726187,1440.9721967569785,None,,,,,,,,,,,,,23780,2019_Dec_30_1128,Mmi_3levels,3.1.5,59.97702768786066,
,,,2,0,12.9,,,,,,,,,0,1,1,1,0,1,1,14,,,,,,,,,,,,,,,,,,,,,,,,,,,,,,,,,,,,,,,,,,,,,,,,,,,,,,,,,,,,False,True,True,0.92,0.92,1.84,-14.72,12.9,-1.8200000000000003,-0.9100000000000001,certain,certain,-0.9100000000000001,118.80833333333332,1462.09691873251,None,1462.09691873251,None,1462.09691873251,None,1462.09691873251,None,1462.09691873251,None,1462.09691873251,None,1462.09691873251,None,3,0.5337941074976698,1462.09691873251,None,1462.6637490700232,None,1462.6637490700232,None,1462.6637490700232,None,1462.6637490700232,None,1462.6637490700232,None,1462.6637490700232,None,1462.6637490700232,None,1466.6652597055072,None,1466.6652597055072,None,1466.6652597055072,None,1466.6652597055072,None,1466.6652597055072,None,1466.6652597055072,None,1466.6652597055072,None,1476.1522820321843,None,1467.6490170949837,None,1468.649359795847,None,0.89,7.502806082833558,1471.6504730135202,None,None,1471.6504730135202,None,,,,,,,,,,,,,,,,,,,23780,2019_Dec_30_1128,Mmi_3levels,3.1.5,59.97702768786066,
,,,2,0,12.1,,,,,,,,,0,1,1,1,0,2,2,25,,,,,,,,,,,,,,,,,,,,,,,,,,,,,,,,,,,,,,,,,,,,,,,,,,,,,,,,,,,,False,False,True,0.89,0.89,2.73,3.3425000000000002,3.025,-0.31750000000000034,1.3537499999999998,gamble,win,3.025,121.83333333333333,1478.1697220155038,None,1478.1697220155038,None,1478.1697220155038,None,1478.1697220155038,None,1478.1697220155038,None,1478.1697220155038,None,1478.1697220155038,None,1,0.7671420000260696,1478.1697220155038,None,1478.96997480141,None,1478.96997480141,None,1478.96997480141,None,1478.96997480141,None,1478.96997480141,None,1478.96997480141,None,1478.96997480141,None,1482.9547615733463,None,1482.9547615733463,None,1482.9547615733463,None,1482.9547615733463,None,1482.9547615733463,None,1482.9547615733463,None,1482.9547615733463,None,1483.9551407521358,None,,,,,,,,,,,,,,,,,,,,,,,,,,,,,,23780,2019_Dec_30_1128,Mmi_3levels,3.1.5,59.97702768786066,
,,,2,0,9.5,,,,,,,,,0,1,1,1,0,3,3,6,,,,,,,,,,,,,,,,,,,,,,,,,,,,,,,,,,,,,,,,,,,,,,,,,,,,,,,,,,,,False,True,True,0.89,0.89,3.62,-16.080000000000002,9.5,-6.580000000000002,1.459999999999999,certain,certain,1.459999999999999,123.29333333333332,1485.97257145599,None,1485.97257145599,None,1485.97257145599,None,1485.97257145599,None,1485.97257145599,None,1485.97257145599,None,1485.97257145599,None,3,1.5841890454757959,1485.97257145599,None,1487.589846648625,None,1487.589846648625,None,1487.589846648625,None,1487.589846648625,None,1487.589846648625,None,1487.589846648625,None,1487.589846648625,None,1491.5913656034973,None,1491.5913656034973,None,1491.5913656034973,None,1491.5913656034973,None,1491.5913656034973,None,1491.5913656034973,None,1491.5913656034973,None,1501.0783469725866,None,1492.575071156025,None,1493.57549449231,None,0.91,7.502768644946627,1496.5765757117188,None,None,1496.5765757117188,None,,,,,,,,,,,,,,,,,,,23780,2019_Dec_30_1128,Mmi_3levels,3.1.5,59.97702768786066,
,,,2,0,2.5,,,,,,,,,0,1,1,1,0,4,4,16,,,,,,,,,,,,,,,,,,,,,,,,,,,,,,,,,,,,,,,,,,,,,,,,,,,,,,,,,,,,False,False,False,0.91,0.91,4.53,3.5625,0.625,-2.9375,-1.15625,certain,certain,-1.15625,122.13708333333332,1503.0957018407062,None,1503.0957018407062,None,1503.0957018407062,None,1503.0957018407062,None,1503.0957018407062,None,1503.0957018407062,None,1503.0957018407062,None,3,1.4676077340263873,1503.0957018407062,None,1504.5962846881012,None,1504.5962846881012,None,1504.5962846881012,None,1504.5962846881012,None,1504.5962846881012,None,1504.5962846881012,None,1504.5962846881012,None,1508.5812116120942,None,1508.5812116120942,None,1508.5812116120942,None,1508.5812116120942,None,1508.5812116120942,None,1508.5812116120942,None,1508.5812116120942,None,1509.5815072755795,None,,,,,,,,,,,,,,,,,,,,,,,,,,,,,,23780,2019_Dec_30_1128,Mmi_3levels,3.1.5,59.97702768786066,
,,,2,0,-0.9,,,,,,,,,0,1,1,1,0,5,5,26,,,,,,,,,,,,,,,,,,,,,,,,,,,,,,,,,,,,,,,,,,,,,,,,,,,,,,,,,,,,False,False,False,0.91,0.91,5.44,3.6383333333333336,-0.225,-3.8633333333333337,-2.044166666666667,certain,certain,-2.044166666666667,120.09291666666665,1511.5990013359115,None,1511.5990013359115,None,1511.5990013359115,None,1511.5990013359115,None,1511.5990013359115,None,1511.5990013359115,None,1511.5990013359115,None,3,1.5507739566965029,1511.5990013359115,None,1513.18292543618,None,1513.18292543618,None,1513.18292543618,None,1513.18292543618,None,1513.18292543618,None,1513.18292543618,None,1513.18292543618,None,1517.184444071143,None,1517.184444071143,None,1517.184444071143,None,1517.184444071143,None,1517.184444071143,None,1517.184444071143,None,1517.184444071143,None,1518.168093306711,None,,,,,,,,,,,,,,,,,,,,,,,,,,,,,,23780,2019_Dec_30_1128,Mmi_3levels,3.1.5,59.97702768786066,
,,,2,0,5.5,,,,,,,,,0,1,1,1,0,6,6,0,,,,,,,,,,,,,,,,,,,,,,,,,,,,,,,,,,,,,,,,,,,,,,,,,,,,,,,,,,,,False,False,True,0.91,0.91,6.3500000000000005,3.714166666666667,1.375,-2.339166666666667,-0.4820833333333334,certain,certain,-0.4820833333333334,119.61083333333332,1520.1855262505123,None,1520.1855262505123,None,1520.1855262505123,None,1520.1855262505123,None,1520.1855262505123,None,1520.1855262505123,None,1520.1855262505123,None,3,0.6671783180208877,1520.1855262505123,None,1520.885788795771,None,1520.885788795771,None,1520.885788795771,None,1520.885788795771,None,1520.885788795771,None,1520.885788795771,None,1520.885788795771,None,1524.887352868216,None,1524.887352868216,None,1524.887352868216,None,1524.887352868216,None,1524.887352868216,None,1524.887352868216,None,1524.887352868216,None,1534.3742232035147,None,1525.8710645004176,None,1526.8714433591813,None,0.89,7.502774084568955,1529.87250697962,None,None,1529.87250697962,None,,,,,,,,,,,,,,,,,,,23780,2019_Dec_30_1128,Mmi_3levels,3.1.5,59.97702768786066,
,,,2,0,2.7,,,,,,,,,0,1,1,1,0,7,7,13,,,,,,,,,,,,,,,,,,,,,,,,,,,,,,,,,,,,,,,,,,,,,,,,,,,,,,,,,,,,False,True,False,0.89,0.89,7.24,-19.700000000000003,2.7,-17.000000000000004,-7.150000000000002,certain,certain,-7.150000000000002,112.46083333333331,1536.391711184173,None,1536.391711184173,None,1536.391711184173,None,1536.391711184173,None,1536.391711184173,None,1536.391711184173,None,1536.391711184173,None,3,1.7842504819855094,1536.391711184173,None,1538.2090650923783,None,1538.2090650923783,None,1538.2090650923783,None,1538.2090650923783,None,1538.2090650923783,None,1538.2090650923783,None,1538.2090650923783,None,1542.2105309303151,None,1542.2105309303151,None,1542.2105309303151,None,1542.2105309303151,None,1542.2105309303151,None,1542.2105309303151,None,1542.2105309303151,None,1543.1942307230784,None,,,,,,,,,,,,,,,,,,,,,,,,,,,,,,23780,2019_Dec_30_1128,Mmi_3levels,3.1.5,59.97702768786066,
,,,2,0,-0.3,,,,,,,,,0,1,1,1,0,8,8,12,,,,,,,,,,,,,,,,,,,,,,,,,,,,,,,,,,,,,,,,,,,,,,,,,,,,,,,,,,,,False,True,True,0.89,0.89,8.13,-20.590000000000003,-0.3,-20.890000000000004,-10.595000000000002,certain,certain,-10.595000000000002,101.86583333333331,1545.2116585471667,None,1545.2116585471667,None,1545.2116585471667,None,1545.2116585471667,None,1545.2116585471667,None,1545.2116585471667,None,1545.2116585471667,None,3,2.18440503324382,1545.2116585471667,None,1547.4291679665912,None,1547.4291679665912,None,1547.4291679665912,None,1547.4291679665912,None,1547.4291679665912,None,1547.4291679665912,None,1547.4291679665912,None,1551.430706440471,None,1551.430706440471,None,1551.430706440471,None,1551.430706440471,None,1551.430706440471,None,1551.430706440471,None,1551.430706440471,None,1560.917582215392,None,1552.414438871434,None,1553.414769732859,None,0.87,7.502282272209413,1556.4159415073227,None,None,1556.4159415073227,None,,,,,,,,,,,,,,,,,,,23780,2019_Dec_30_1128,Mmi_3levels,3.1.5,59.97702768786066,
,,,2,0,10.1,,,,,,,,,0,1,1,1,0,9,9,15,,,,,,,,,,,,,,,,,,,,,,,,,,,,,,,,,,,,,,,,,,,,,,,,,,,,,,,,,,,,False,True,False,0.87,0.87,9.0,-21.18,10.1,-11.08,-0.4900000000000002,certain,certain,-0.4900000000000002,101.37583333333332,1562.935034997994,None,1562.935034997994,None,1562.935034997994,None,1562.935034997994,None,1562.935034997994,None,1562.935034997994,None,1562.935034997994,None,3,0.7837164318189025,1562.935034997994,None,1563.7520382058574,None,1563.7520382058574,None,1563.7520382058574,None,1563.7520382058574,None,1563.7520382058574,None,1563.7520382058574,None,1563.7520382058574,None,1567.7535769996466,None,1567.7535769996466,None,1567.7535769996466,None,1567.7535769996466,None,1567.7535769996466,None,1567.7535769996466,None,1567.7535769996466,None,1568.7372339149006,None,,,,,,,,,,,,,,,,,,,,,,,,,,,,,,23780,2019_Dec_30_1128,Mmi_3levels,3.1.5,59.97702768786066,
,,,2,0,13.5,,,,,,,,,0,1,1,1,0,10,10,8,,,,,,,,,,,,,,,,,,,,,,,,,,,,,,,,,,,,,,,,,,,,,,,,,,,,,,,,,,,,False,True,False,0.87,0.87,9.87,-22.049999999999997,13.5,-8.549999999999997,-4.274999999999999,gamble,lose,-8.549999999999997,92.82583333333332,1570.754761573393,None,1570.754761573393,None,1570.754761573393,None,1570.754761573393,None,1570.754761573393,None,1570.754761573393,None,1570.754761573393,None,1,2.117768125026487,1570.754761573393,None,1572.9055425695842,None,1572.9055425695842,None,1572.9055425695842,None,1572.9055425695842,None,1572.9055425695842,None,1572.9055425695842,None,1572.9055425695842,None,1576.9069911284605,None,1576.9069911284605,None,1576.9069911284605,None,1576.9069911284605,None,1576.9069911284605,None,1576.9069911284605,None,1576.9069911284605,None,1577.8907037206227,None,,,,,,,,,,,,,,,,,,,,,,,,,,,,,,23780,2019_Dec_30_1128,Mmi_3levels,3.1.5,59.97702768786066,
,,,2,0,8.7,,,,,,,,,0,1,1,1,0,11,11,4,,,,,,,,,,,,,,,,,,,,,,,,,,,,,,,,,,,,,,,,,,,,,,,,,,,,,,,,,,,,False,True,False,0.87,0.87,10.739999999999998,-22.919999999999998,8.7,-14.219999999999999,-2.76,certain,certain,-2.76,90.06583333333332,1579.9081299446989,None,1579.9081299446989,None,1579.9081299446989,None,1579.9081299446989,None,1579.9081299446989,None,1579.9081299446989,None,1579.9081299446989,None,3,1.750966265797615,1579.9081299446989,None,1581.6921951570548,None,1581.6921951570548,None,1581.6921951570548,None,1581.6921951570548,None,1581.6921951570548,None,1581.6921951570548,None,1581.6921951570548,None,1585.6937057924224,None,1585.6937057924224,None,1585.6937057924224,None,1585.6937057924224,None,1585.6937057924224,None,1585.6937057924224,None,1585.6937057924224,None,1595.180697080912,None,1586.6773588679498,None,1587.6777406064793,None,0.83,7.50280512298923,1590.6789050212828,None,None,1590.6789050212828,None,,,,,,,,,,,,,,,,,,,23780,2019_Dec_30_1128,Mmi_3levels,3.1.5,59.97702768786066,
,,,2,0,3.7,,,,,,,,,0,1,1,1,0,12,12,10,,,,,,,,,,,,,,,,,,,,,,,,,,,,,,,,,,,,,,,,,,,,,,,,,,,,,,,,,,,,False,True,False,0.83,0.83,11.569999999999999,-23.189999999999998,3.7,-19.49,-7.895,certain,certain,-7.895,82.17083333333332,1597.198081067414,None,1597.198081067414,None,1597.198081067414,None,1597.198081067414,None,1597.198081067414,None,1597.198081067414,None,1597.198081067414,None,3,2.1177025287179276,1597.198081067414,None,1599.3488790227566,None,1599.3488790227566,None,1599.3488790227566,None,1599.3488790227566,None,1599.3488790227566,None,1599.3488790227566,None,1599.3488790227566,None,1603.350338460994,None,1603.350338460994,None,1603.350338460994,None,1603.350338460994,None,1603.350338460994,None,1603.350338460994,None,1603.350338460994,None,1604.3340420936001,None,,,,,,,,,,,,,,,,,,,,,,,,,,,,,,23780,2019_Dec_30_1128,Mmi_3levels,3.1.5,59.97702768786066,
,,,2,0,12.3,,,,,,,,,0,1,1,1,0,13,13,17,,,,,,,,,,,,,,,,,,,,,,,,,,,,,,,,,,,,,,,,,,,,,,,,,,,,,,,,,,,,False,True,False,0.83,0.83,12.399999999999999,-24.019999999999996,12.3,-11.719999999999995,0.2900000000000027,certain,certain,0.2900000000000027,82.46083333333333,1606.3514942362672,None,1606.3514942362672,None,1606.3514942362672,None,1606.3514942362672,None,1606.3514942362672,None,1606.3514942362672,None,1606.3514942362672,None,3,0.6838093865662813,1606.3514942362672,None,1607.0684147287393,None,1607.0684147287393,None,1607.0684147287393,None,1607.0684147287393,None,1607.0684147287393,None,1607.0684147287393,None,1607.0684147287393,None,1611.0532517378451,None,1611.0532517378451,None,1611.0532517378451,None,1611.0532517378451,None,1611.0532517378451,None,1611.0532517378451,None,1611.0532517378451,None,1620.556844656705,None,1612.0536318765953,None,1613.0540110553848,None,0.88,7.502771524828859,1616.0551533914404,None,None,1616.0551533914404,None,,,,,,,,,,,,,,,,,,,23780,2019_Dec_30_1128,Mmi_3levels,3.1.5,59.97702768786066,
,,,2,0,12.5,,,,,,,,,0,1,1,1,0,14,14,24,,,,,,,,,,,,,,,,,,,,,,,,,,,,,,,,,,,,,,,,,,,,,,,,,,,,,,,,,,,,False,False,False,0.88,0.88,13.28,4.1866666666666665,3.125,-1.0616666666666665,1.0316666666666667,certain,certain,1.0316666666666667,83.49249999999999,1622.574274720624,None,1622.574274720624,None,1622.574274720624,None,1622.574274720624,None,1622.574274720624,None,1622.574274720624,None,1622.574274720624,None,3,0.733927860041149,1622.574274720624,None,1623.3412874479545,None,1623.3412874479545,None,1623.3412874479545,None,1623.3412874479545,None,1623.3412874479545,None,1623.3412874479545,None,1623.3412874479545,None,1627.3260796595132,None,1627.3260796595132,None,1627.3260796595132,None,1627.3260796595132,None,1627.3260796595132,None,1627.3260796595132,None,1627.3260796595132,None,1628.3264549984597,None,,,,,,,,,,,,,,,,,,,,,,,,,,,,,,23780,2019_Dec_30_1128,Mmi_3levels,3.1.5,59.97702768786066,
,,,2,0,7.5,,,,,,,,,0,1,1,1,0,15,15,20,,,,,,,,,,,,,,,,,,,,,,,,,,,,,,,,,,,,,,,,,,,,,,,,,,,,,,,,,,,,False,True,False,0.88,0.88,14.16,-26.48,7.5,-18.98,-5.74,certain,certain,-5.74,77.7525,1630.3438895421568,None,1630.3438895421568,None,1630.3438895421568,None,1630.3438895421568,None,1630.3438895421568,None,1630.3438895421568,None,1630.3438895421568,None,3,1.7842939994297922,1630.3438895421568,None,1632.1613042469835,None,1632.1613042469835,None,1632.1613042469835,None,1632.1613042469835,None,1632.1613042469835,None,1632.1613042469835,None,1632.1613042469835,None,1636.1628667194163,None,1636.1628667194163,None,1636.1628667194163,None,1636.1628667194163,None,1636.1628667194163,None,1636.1628667194163,None,1636.1628667194163,None,1645.6496810578974,None,1637.146477557253,None,1638.1468423368642,None,0.86,7.502760645467788,1641.1479907524772,None,None,1641.1479907524772,None,,,,,,,,,,,,,,,,,,,23780,2019_Dec_30_1128,Mmi_3levels,3.1.5,59.97702768786066,
,,,2,0,8.9,,,,,,,,,0,1,1,1,0,16,16,23,,,,,,,,,,,,,,,,,,,,,,,,,,,,,,,,,,,,,,,,,,,,,,,,,,,,,,,,,,,,False,False,True,0.86,0.86,15.02,4.261666666666667,2.225,-2.0366666666666666,0.09416666666666673,certain,certain,0.09416666666666673,77.84666666666666,1647.6671127217123,None,1647.6671127217123,None,1647.6671127217123,None,1647.6671127217123,None,1647.6671127217123,None,1647.6671127217123,None,1647.6671127217123,None,3,1.600861391867511,1647.6671127217123,None,1649.3010660202708,None,1649.3010660202708,None,1649.3010660202708,None,1649.3010660202708,None,1649.3010660202708,None,1649.3010660202708,None,1649.3010660202708,None,1653.2859267081367,None,1653.2859267081367,None,1653.2859267081367,None,1653.2859267081367,None,1653.2859267081367,None,1653.2859267081367,None,1653.2859267081367,None,1654.2863084466662,None,,,,,,,,,,,,,,,,,,,,,,,,,,,,,,23780,2019_Dec_30_1128,Mmi_3levels,3.1.5,59.97702768786066,
,,,2,0,10.3,,,,,,,,,0,1,1,1,0,17,17,3,,,,,,,,,,,,,,,,,,,,,,,,,,,,,,,,,,,,,,,,,,,,,,,,,,,,,,,,,,,,False,True,False,0.86,0.86,15.879999999999999,-27.919999999999998,10.3,-17.619999999999997,-3.6599999999999984,certain,certain,-3.6599999999999984,74.18666666666667,1656.3037727486808,None,1656.3037727486808,None,1656.3037727486808,None,1656.3037727486808,None,1656.3037727486808,None,1656.3037727486808,None,1656.3037727486808,None,3,1.1339710575994104,1656.3037727486808,None,1657.4708491524216,None,1657.4708491524216,None,1657.4708491524216,None,1657.4708491524216,None,1657.4708491524216,None,1657.4708491524216,None,1657.4708491524216,None,1661.4723405889235,None,1661.4723405889235,None,1661.4723405889235,None,1661.4723405889235,None,1661.4723405889235,None,1661.4723405889235,None,1661.4723405889235,None,1662.4560458214255,None,,,,,,,,,,,,,,,,,,,,,,,,,,,,,,23780,2019_Dec_30_1128,Mmi_3levels,3.1.5,59.97702768786066,
,,,2,0,13.7,,,,,,,,,0,1,1,1,0,18,18,2,,,,,,,,,,,,,,,,,,,,,,,,,,,,,,,,,,,,,,,,,,,,,,,,,,,,,,,,,,,,False,False,False,0.86,0.86,16.74,4.404999999999999,3.425,-0.9799999999999995,1.2225000000000001,certain,certain,1.2225000000000001,75.40916666666666,1664.4734758853447,None,1664.4734758853447,None,1664.4734758853447,None,1664.4734758853447,None,1664.4734758853447,None,1664.4734758853447,None,1664.4734758853447,None,3,1.1840341740753502,1664.4734758853447,None,1665.690658283187,None,1665.690658283187,None,1665.690658283187,None,1665.690658283187,None,1665.690658283187,None,1665.690658283187,None,1665.690658283187,None,1669.675442495267,None,1669.675442495267,None,1669.675442495267,None,1669.675442495267,None,1669.675442495267,None,1669.675442495267,None,1669.675442495267,None,1679.179077651701,None,1670.675869351253,None,1671.6762536497554,None,0.88,7.5027059285202995,1674.6773796667112,None,None,1674.6773796667112,None,,,,,,,,,,,,,,,,,,,23780,2019_Dec_30_1128,Mmi_3levels,3.1.5,59.97702768786066,
,,,2,0,8.5,,,,,,,,,0,1,1,1,0,19,19,21,,,,,,,,,,,,,,,,,,,,,,,,,,,,,,,,,,,,,,,,,,,,,,,,,,,,,,,,,,,,False,True,True,0.88,0.88,17.619999999999997,-29.939999999999998,8.5,-21.439999999999998,-6.469999999999999,certain,certain,-6.469999999999999,68.93916666666667,1681.196500995895,None,1681.196500995895,None,1681.196500995895,None,1681.196500995895,None,1681.196500995895,None,1681.196500995895,None,1681.196500995895,None,3,1.1673874262487516,1681.196500995895,None,1682.3969899285585,None,1682.3969899285585,None,1682.3969899285585,None,1682.3969899285585,None,1682.3969899285585,None,1682.3969899285585,None,1682.3969899285585,None,1686.3984397674212,None,1686.3984397674212,None,1686.3984397674212,None,1686.3984397674212,None,1686.3984397674212,None,1686.3984397674212,None,1686.3984397674212,None,1687.3821449999232,None,,,,,,,,,,,,,,,,,,,,,,,,,,,,,,23780,2019_Dec_30_1128,Mmi_3levels,3.1.5,59.97702768786066,
,,,2,0,7.7,,,,,,,,,0,1,1,1,0,20,20,19,,,,,,,,,,,,,,,,,,,,,,,,,,,,,,,,,,,,,,,,,,,,,,,,,,,,,,,,,,,,False,True,True,0.88,0.88,18.499999999999996,-30.819999999999997,7.7,-23.119999999999997,-7.709999999999999,gamble,lose,-23.119999999999997,45.81916666666667,1689.3996345804771,None,1689.3996345804771,None,1689.3996345804771,None,1689.3996345804771,None,1689.3996345804771,None,1689.3996345804771,None,1689.3996345804771,None,1,1.4174406232777983,1689.3996345804771,None,1690.8501767100533,None,1690.8501767100533,None,1690.8501767100533,None,1690.8501767100533,None,1690.8501767100533,None,1690.8501767100533,None,1690.8501767100533,None,1694.851642868016,None,1694.851642868016,None,1694.851642868016,None,1694.851642868016,None,1694.851642868016,None,1694.851642868016,None,1694.851642868016,None,1704.3385682401713,None,1695.8353989776224,None,1696.8357336788904,None,0.82,7.502414744812995,1699.8368507364066,None,None,1699.8368507364066,None,,,,,,,,,,,,,,,,,,,23780,2019_Dec_30_1128,Mmi_3levels,3.1.5,59.97702768786066,
,,,2,0,-1.1,,,,,,,,,0,1,1,1,0,21,21,5,,,,,,,,,,,,,,,,,,,,,,,,,,,,,,,,,,,,,,,,,,,,,,,,,,,,,,,,,,,,False,False,False,0.82,0.82,19.319999999999997,4.4799999999999995,-0.275,-4.755,-2.515,certain,certain,-2.515,43.30416666666667,1706.3560469413642,None,1706.3560469413642,None,1706.3560469413642,None,1706.3560469413642,None,1706.3560469413642,None,1706.3560469413642,None,1706.3560469413642,None,3,0.850398777751252,1706.3560469413642,None,1707.2397123361006,None,1707.2397123361006,None,1707.2397123361006,None,1707.2397123361006,None,1707.2397123361006,None,1707.2397123361006,None,1707.2397123361006,None,1711.241186493542,None,1711.241186493542,None,1711.241186493542,None,1711.241186493542,None,1711.241186493542,None,1711.241186493542,None,1711.241186493542,None,1712.2248834065394,None,,,,,,,,,,,,,,,,,,,,,,,,,,,,,,23780,2019_Dec_30_1128,Mmi_3levels,3.1.5,59.97702768786066,
,,,2,0,13.1,,,,,,,,,0,1,1,1,0,22,22,7,,,,,,,,,,,,,,,,,,,,,,,,,,,,,,,,,,,,,,,,,,,,,,,,,,,,,,,,,,,,False,False,True,0.82,0.82,20.139999999999997,4.548333333333333,3.275,-1.273333333333333,1.0008333333333335,certain,certain,1.0008333333333335,44.305,1714.242343868711,None,1714.242343868711,None,1714.242343868711,None,1714.242343868711,None,1714.242343868711,None,1714.242343868711,None,1714.242343868711,None,3,0.750551249133423,1714.242343868711,None,1715.025942227221,None,1715.025942227221,None,1715.025942227221,None,1715.025942227221,None,1715.025942227221,None,1715.025942227221,None,1715.025942227221,None,1719.0108377931174,None,1719.0108377931174,None,1719.0108377931174,None,1719.0108377931174,None,1719.0108377931174,None,1719.0108377931174,None,1719.0108377931174,None,1728.5143590358784,None,1720.0111702544382,None,1721.0115452734753,None,0.86,7.502748486120254,1724.0127151279012,None,None,1724.0127151279012,None,,,,,,,,,,,,,,,,,,,23780,2019_Dec_30_1128,Mmi_3levels,3.1.5,59.97702768786066,
,,,2,0,13.9,,,,,,,,,0,1,1,1,0,23,23,11,,,,,,,,,,,,,,,,,,,,,,,,,,,,,,,,,,,,,,,,,,,,,,,,,,,,,,,,,,,,False,True,True,0.86,0.86,20.999999999999996,-33.03999999999999,13.9,-19.139999999999993,-2.6199999999999966,certain,certain,-2.6199999999999966,41.685,1730.5318162982585,None,1730.5318162982585,None,1730.5318162982585,None,1730.5318162982585,None,1730.5318162982585,None,1730.5318162982585,None,1730.5318162982585,None,3,1.0840448933886364,1730.5318162982585,None,1731.6489108609967,None,1731.6489108609967,None,1731.6489108609967,None,1731.6489108609967,None,1731.6489108609967,None,1731.6489108609967,None,1731.6489108609967,None,1735.6504157367162,None,1735.6504157367162,None,1735.6504157367162,None,1735.6504157367162,None,1735.6504157367162,None,1735.6504157367162,None,1735.6504157367162,None,1736.6341254489962,None,,,,,,,,,,,,,,,,,,,,,,,,,,,,,,23780,2019_Dec_30_1128,Mmi_3levels,3.1.5,59.97702768786066,
,,,2,0,6.7,,,,,,,,,0,1,1,1,0,24,24,18,,,,,,,,,,,,,,,,,,,,,,,,,,,,,,,,,,,,,,,,,,,,,,,,,,,,,,,,,,,,False,False,True,0.86,0.86,21.859999999999996,4.831666666666666,1.675,-3.1566666666666663,-0.7408333333333331,certain,certain,-0.7408333333333331,40.94416666666667,1738.6515718320152,None,1738.6515718320152,None,1738.6515718320152,None,1738.6515718320152,None,1738.6515718320152,None,1738.6515718320152,None,1738.6515718320152,None,3,2.034180485876277,1738.6515718320152,None,1740.719042933546,None,1740.719042933546,None,1740.719042933546,None,1740.719042933546,None,1740.719042933546,None,1740.719042933546,None,1740.719042933546,None,1744.7205222107004,None,1744.7205222107004,None,1744.7205222107004,None,1744.7205222107004,None,1744.7205222107004,None,1744.7205222107004,None,1744.7205222107004,None,1745.704279920319,None,,,,,,,,,,,,,,,,,,,,,,,,,,,,,,23780,2019_Dec_30_1128,Mmi_3levels,3.1.5,59.97702768786066,
,,,2,0,-0.7,,,,,,,,,0,1,1,1,0,25,25,1,,,,,,,,,,,,,,,,,,,,,,,,,,,,,,,,,,,,,,,,,,,,,,,,,,,,,,,,,,,,False,True,True,0.86,0.86,22.719999999999995,-34.75999999999999,-0.7,-35.459999999999994,-18.08,gamble,lose,-35.459999999999994,5.484166666666674,1747.7217090242775,None,1747.7217090242775,None,1747.7217090242775,None,1747.7217090242775,None,1747.7217090242775,None,1747.7217090242775,None,1747.7217090242775,None,None,,1747.7217090242775,None,1750.7228283216245,None,1750.7228283216245,None,1750.7228283216245,None,1750.7228283216245,None,1750.7228283216245,None,1750.7228283216245,None,1750.7228283216245,None,1754.724308878649,None,1754.724308878649,None,1754.724308878649,None,1754.724308878649,None,1754.724308878649,None,1754.724308878649,None,1754.724308878649,None,1764.2112329709344,None,1755.708064348437,None,1756.7083932899404,None,0.83,7.502760005416349,1759.7095132272225,None,None,1759.7095132272225,None,,,,,,,,,,,,,,,,,,,23780,2019_Dec_30_1128,Mmi_3levels,3.1.5,59.97702768786066,
,,,2,0,5.9,,,,,,,,,0,1,1,1,0,26,26,9,,,,,,,,,,,,,,,,,,,,,,,,,,,,,,,,,,,,,,,,,,,,,,,,,,,,,,,,,,,,False,True,False,0.83,0.83,23.549999999999994,-35.169999999999995,5.9,-29.269999999999996,-11.684999999999999,certain,certain,-11.684999999999999,-6.200833333333325,1766.228659195127,None,1766.228659195127,None,1766.228659195127,None,1766.228659195127,None,1766.228659195127,None,1766.228659195127,None,1766.228659195127,None,3,0.4171110417228192,1766.228659195127,None,1766.6788845424308,None,1766.6788845424308,None,1766.6788845424308,None,1766.6788845424308,None,1766.6788845424308,None,1766.6788845424308,None,1766.6788845424308,None,1770.6803321413463,None,1770.6803321413463,None,1770.6803321413463,None,1770.6803321413463,None,1770.6803321413463,None,1770.6803321413463,None,1770.6803321413463,None,1771.664105850039,None,,,,,,,,,,,,,,,,,,,,,,,,,,,,,,23780,2019_Dec_30_1128,Mmi_3levels,3.1.5,59.97702768786066,
,,,3,1,4.3,,,,,,,,,0,2,2,2,0,0,0,1,,,,,,,,,,,,,,,,,,,,,,,,,,,,,,,,,,,,,,,,,,,,,,,,,1776.8326858496293,None,0.89,7.501856056158431,1779.8504678937607,None,None,1779.8504678937607,None,1784.335496412241,None,True,True,False,0.89,-0.10999999999999999,-0.10999999999999999,1.65,4.3,2.65,1.325,certain,certain,1.325,-4.875833333333325,1787.369998480077,None,1787.369998480077,None,1787.369998480077,None,1787.369998480077,None,1787.369998480077,None,1787.369998480077,None,1787.369998480077,None,3,0.6004809330916032,1787.369998480077,None,1788.0035738798324,None,1788.0035738798324,None,1788.0035738798324,None,1788.0035738798324,None,1788.0035738798324,None,1788.0035738798324,None,1788.0035738798324,None,1791.9884518466424,None,1791.9884518466424,None,1791.9884518466424,None,1791.9884518466424,None,1791.9884518466424,None,1791.9884518466424,None,1791.9884518466424,None,1801.4920066875638,None,1792.9887907076627,None,1793.9891935652122,None,0.9,7.5027945635374635,1796.9903432608116,None,None,1796.9903432608116,None,1773.6648616477614,None,4,3.1515457533532754,1773.6648616477614,None,,,,,,,,,,,,,23780,2019_Dec_30_1128,Mmi_3levels,3.1.5,59.97702768786066,
,,,3,1,3.1,,,,,,,,,0,2,2,2,0,1,1,5,,,,,,,,,,,,,,,,,,,,,,,,,,,,,,,,,,,,,,,,,,,,,,,,,,,,,,,,,,,,True,True,False,0.9,-0.09999999999999998,-0.20999999999999996,1.6099999999999997,3.1,1.4900000000000004,0.7450000000000002,certain,certain,0.7450000000000002,-4.1308333333333245,1803.509436111548,None,1803.509436111548,None,1803.509436111548,None,1803.509436111548,None,1803.509436111548,None,1803.509436111548,None,1803.509436111548,None,3,0.6342144040390849,1803.509436111548,None,1804.1764739574865,None,1804.1764739574865,None,1804.1764739574865,None,1804.1764739574865,None,1804.1764739574865,None,1804.1764739574865,None,1804.1764739574865,None,1808.1612012126716,None,1808.1612012126716,None,1808.1612012126716,None,1808.1612012126716,None,1808.1612012126716,None,1808.1612012126716,None,1808.1612012126716,None,1809.161631268682,None,,,,,,,,,,,,,,,,,,,,,,,,,,,,,,23780,2019_Dec_30_1128,Mmi_3levels,3.1.5,59.97702768786066,
,,,3,1,-0.5,,,,,,,,,0,2,2,2,0,2,2,18,,,,,,,,,,,,,,,,,,,,,,,,,,,,,,,,,,,,,,,,,,,,,,,,,,,,,,,,,,,,True,True,True,0.9,-0.09999999999999998,-0.30999999999999994,1.7099999999999995,-0.5,-2.2099999999999995,-1.3549999999999998,certain,certain,-1.3549999999999998,-5.485833333333324,1811.179125329014,None,1811.179125329014,None,1811.179125329014,None,1811.179125329014,None,1811.179125329014,None,1811.179125329014,None,1811.179125329014,None,3,1.867505339672789,1811.179125329014,None,1813.0797347348416,None,1813.0797347348416,None,1813.0797347348416,None,1813.0797347348416,None,1813.0797347348416,None,1813.0797347348416,None,1813.0797347348416,None,1817.0812392906519,None,1817.0812392906519,None,1817.0812392906519,None,1817.0812392906519,None,1817.0812392906519,None,1817.0812392906519,None,1817.0812392906519,None,1818.0650117193582,None,,,,,,,,,,,,,,,,,,,,,,,,,,,,,,23780,2019_Dec_30_1128,Mmi_3levels,3.1.5,59.97702768786066,
,,,3,1,8.7,,,,,,,,,0,2,2,2,0,3,3,8,,,,,,,,,,,,,,,,,,,,,,,,,,,,,,,,,,,,,,,,,,,,,,,,,,,,,,,,,,,,True,True,False,0.9,-0.09999999999999998,-0.4099999999999999,1.8099999999999996,8.7,6.89,3.445,gamble,win,8.7,3.2141666666666753,1820.0823941059643,None,1820.0823941059643,None,1820.0823941059643,None,1820.0823941059643,None,1820.0823941059643,None,1820.0823941059643,None,1820.0823941059643,None,1,1.1671733582625166,1820.0823941059643,None,1821.2828347212635,None,1821.2828347212635,None,1821.2828347212635,None,1821.2828347212635,None,1821.2828347212635,None,1821.2828347212635,None,1821.2828347212635,None,1825.2676730103558,None,1825.2676730103558,None,1825.2676730103558,None,1825.2676730103558,None,1825.2676730103558,None,1825.2676730103558,None,1825.2676730103558,None,1834.7712768084602,None,1826.2680569888325,None,1827.268436167622,None,0.92,7.502701448625885,1830.269556744839,None,None,1830.269556744839,None,,,,,,,,,,,,,,,,,,,23780,2019_Dec_30_1128,Mmi_3levels,3.1.5,59.97702768786066,
,,,3,1,13.9,,,,,,,,,0,2,2,2,0,4,4,0,,,,,,,,,,,,,,,,,,,,,,,,,,,,,,,,,,,,,,,,,,,,,,,,,,,,,,,,,,,,True,True,False,0.92,-0.07999999999999996,-0.4899999999999999,1.6099999999999994,13.9,12.290000000000001,6.1450000000000005,gamble,win,13.9,17.114166666666677,1836.7887619093526,None,1836.7887619093526,None,1836.7887619093526,None,1836.7887619093526,None,1836.7887619093526,None,1836.7887619093526,None,1836.7887619093526,None,1,1.0839818570530042,1836.7887619093526,None,1837.9058497523656,None,1837.9058497523656,None,1837.9058497523656,None,1837.9058497523656,None,1837.9058497523656,None,1837.9058497523656,None,1837.9058497523656,None,1841.9073063108372,None,1841.9073063108372,None,1841.9073063108372,None,1841.9073063108372,None,1841.9073063108372,None,1841.9073063108372,None,1841.9073063108372,None,1842.8910157030914,None,,,,,,,,,,,,,,,,,,,,,,,,,,,,,,23780,2019_Dec_30_1128,Mmi_3levels,3.1.5,59.97702768786066,
,,,3,1,5.1,,,,,,,,,0,2,2,2,0,5,5,12,,,,,,,,,,,,,,,,,,,,,,,,,,,,,,,,,,,,,,,,,,,,,,,,,,,,,,,,,,,,True,True,False,0.92,-0.07999999999999996,-0.5699999999999998,1.6899999999999993,5.1,3.41,1.705,gamble,win,5.1,22.214166666666678,1844.9084448070498,None,1844.9084448070498,None,1844.9084448070498,None,1844.9084448070498,None,1844.9084448070498,None,1844.9084448070498,None,1844.9084448070498,None,1,0.8839920964092016,1844.9084448070498,None,1845.8255128113087,None,1845.8255128113087,None,1845.8255128113087,None,1845.8255128113087,None,1845.8255128113087,None,1845.8255128113087,None,1845.8255128113087,None,1849.8103734990582,None,1849.8103734990582,None,1849.8103734990582,None,1849.8103734990582,None,1849.8103734990582,None,1849.8103734990582,None,1849.8103734990582,None,1859.3139069011668,None,1850.810744358343,None,1851.8110621004598,None,0.94,7.502741766395047,1854.8122021966847,None,None,1854.8122021966847,None,,,,,,,,,,,,,,,,,,,23780,2019_Dec_30_1128,Mmi_3levels,3.1.5,59.97702768786066,
,,,3,1,7.3,,,,,,,,,0,2,2,2,0,6,6,25,,,,,,,,,,,,,,,,,,,,,,,,,,,,,,,,,,,,,,,,,,,,,,,,,,,,,,,,,,,,True,False,True,0.94,-0.06000000000000005,-0.6299999999999999,-0.2625000000000002,7.3,7.0375,3.51875,gamble,lose,7.0375,29.25166666666668,1861.3313340853201,None,1861.3313340853201,None,1861.3313340853201,None,1861.3313340853201,None,1861.3313340853201,None,1861.3313340853201,None,1861.3313340853201,None,1,0.7171831978484988,1861.3313340853201,None,1862.0816130297026,None,1862.0816130297026,None,1862.0816130297026,None,1862.0816130297026,None,1862.0816130297026,None,1862.0816130297026,None,1862.0816130297026,None,1866.0665044357302,None,1866.0665044357302,None,1866.0665044357302,None,1866.0665044357302,None,1866.0665044357302,None,1866.0665044357302,None,1866.0665044357302,None,1867.0668874542462,None,,,,,,,,,,,,,,,,,,,,,,,,,,,,,,23780,2019_Dec_30_1128,Mmi_3levels,3.1.5,59.97702768786066,
,,,3,1,9.1,,,,,,,,,0,2,2,2,0,7,7,3,,,,,,,,,,,,,,,,,,,,,,,,,,,,,,,,,,,,,,,,,,,,,,,,,,,,,,,,,,,,True,True,False,0.94,-0.06000000000000005,-0.69,1.5300000000000007,9.1,7.5699999999999985,3.7849999999999993,gamble,win,9.1,38.35166666666668,1869.0842624813085,None,1869.0842624813085,None,1869.0842624813085,None,1869.0842624813085,None,1869.0842624813085,None,1869.0842624813085,None,1869.0842624813085,None,1,0.6503846984123811,1869.0842624813085,None,1869.767916996614,None,1869.767916996614,None,1869.767916996614,None,1869.767916996614,None,1869.767916996614,None,1869.767916996614,None,1869.767916996614,None,1873.7526989688631,None,1873.7526989688631,None,1873.7526989688631,None,1873.7526989688631,None,1873.7526989688631,None,1873.7526989688631,None,1873.7526989688631,None,1883.2563213260146,None,1874.753098946414,None,1875.7534717256203,None,0.93,7.502813122468069,1878.75463134062,None,None,1878.75463134062,None,,,,,,,,,,,,,,,,,,,23780,2019_Dec_30_1128,Mmi_3levels,3.1.5,59.97702768786066,
,,,3,1,5.9,,,,,,,,,0,2,2,2,0,8,8,14,,,,,,,,,,,,,,,,,,,,,,,,,,,,,,,,,,,,,,,,,,,,,,,,,,,,,,,,,,,,True,False,False,0.93,-0.06999999999999995,-0.7599999999999999,-0.3083333333333331,5.9,5.591666666666667,2.7958333333333334,gamble,lose,5.591666666666667,43.94333333333335,1885.2737520298688,None,1885.2737520298688,None,1885.2737520298688,None,1885.2737520298688,None,1885.2737520298688,None,1885.2737520298688,None,1885.2737520298688,None,1,0.7338424248155206,1885.2737520298688,None,1886.0407017207472,None,1886.0407017207472,None,1886.0407017207472,None,1886.0407017207472,None,1886.0407017207472,None,1886.0407017207472,None,1886.0407017207472,None,1890.025524010649,None,1890.025524010649,None,1890.025524010649,None,1890.025524010649,None,1890.025524010649,None,1890.025524010649,None,1890.025524010649,None,1891.0259022294777,None,,,,,,,,,,,,,,,,,,,,,,,,,,,,,,23780,2019_Dec_30_1128,Mmi_3levels,3.1.5,59.97702768786066,
,,,3,1,3.7,,,,,,,,,0,2,2,2,0,9,9,24,,,,,,,,,,,,,,,,,,,,,,,,,,,,,,,,,,,,,,,,,,,,,,,,,,,,,,,,,,,,True,True,True,0.93,-0.06999999999999995,-0.8299999999999998,1.8099999999999992,3.7,1.890000000000001,0.9450000000000005,gamble,win,3.7,47.64333333333335,1893.0434046093142,None,1893.0434046093142,None,1893.0434046093142,None,1893.0434046093142,None,1893.0434046093142,None,1893.0434046093142,None,1893.0434046093142,None,1,0.8338624237803742,1893.0434046093142,None,1893.9103560600197,None,1893.9103560600197,None,1893.9103560600197,None,1893.9103560600197,None,1893.9103560600197,None,1893.9103560600197,None,1893.9103560600197,None,1897.8951687505469,None,1897.8951687505469,None,1897.8951687505469,None,1897.8951687505469,None,1897.8951687505469,None,1897.8951687505469,None,1897.8951687505469,None,1898.8955460094148,None,,,,,,,,,,,,,,,,,,,,,,,,,,,,,,23780,2019_Dec_30_1128,Mmi_3levels,3.1.5,59.97702768786066,
,,,3,1,5.7,,,,,,,,,0,2,2,2,0,10,10,15,,,,,,,,,,,,,,,,,,,,,,,,,,,,,,,,,,,,,,,,,,,,,,,,,,,,,,,,,,,,True,True,False,0.93,-0.06999999999999995,-0.8999999999999998,1.879999999999999,5.7,3.820000000000001,1.9100000000000006,gamble,win,5.7,53.343333333333355,1900.9129994320683,None,1900.9129994320683,None,1900.9129994320683,None,1900.9129994320683,None,1900.9129994320683,None,1900.9129994320683,None,1900.9129994320683,None,1,0.8838999415747821,1900.9129994320683,None,1901.830018159002,None,1901.830018159002,None,1901.830018159002,None,1901.830018159002,None,1901.830018159002,None,1901.830018159002,None,1901.830018159002,None,1905.8148884462425,None,1905.8148884462425,None,1905.8148884462425,None,1905.8148884462425,None,1905.8148884462425,None,1905.8148884462425,None,1905.8148884462425,None,1915.3184298479464,None,1906.8152228274848,None,1907.8155898469267,None,0.94,7.502764165168628,1910.8167129841167,None,None,1910.8167129841167,None,,,,,,,,,,,,,,,,,,,23780,2019_Dec_30_1128,Mmi_3levels,3.1.5,59.97702768786066,
,,,3,1,1.1,,,,,,,,,0,2,2,2,0,11,11,16,,,,,,,,,,,,,,,,,,,,,,,,,,,,,,,,,,,,,,,,,,,,,,,,,,,,,,,,,,,,True,False,False,0.94,-0.06000000000000005,-0.9599999999999999,-0.29000000000000015,1.1,0.8099999999999999,0.9550000000000001,gamble,lose,0.8099999999999999,54.15333333333336,1917.3359149487223,None,1917.3359149487223,None,1917.3359149487223,None,1917.3359149487223,None,1917.3359149487223,None,1917.3359149487223,None,1917.3359149487223,None,1,0.6337971473112702,1917.3359149487223,None,1918.0027992032701,None,1918.0027992032701,None,1918.0027992032701,None,1918.0027992032701,None,1918.0027992032701,None,1918.0027992032701,None,1918.0027992032701,None,1921.9876240530284,None,1921.9876240530284,None,1921.9876240530284,None,1921.9876240530284,None,1921.9876240530284,None,1921.9876240530284,None,1921.9876240530284,None,1922.9881133056479,None,,,,,,,,,,,,,,,,,,,,,,,,,,,,,,23780,2019_Dec_30_1128,Mmi_3levels,3.1.5,59.97702768786066,
,,,3,1,0.3,,,,,,,,,0,2,2,2,0,12,12,23,,,,,,,,,,,,,,,,,,,,,,,,,,,,,,,,,,,,,,,,,,,,,,,,,,,,,,,,,,,,True,True,True,0.94,-0.06000000000000005,-1.02,1.8600000000000008,0.3,-1.5600000000000007,-0.6300000000000003,certain,certain,-0.6300000000000003,53.523333333333355,1925.0054883325938,None,1925.0054883325938,None,1925.0054883325938,None,1925.0054883325938,None,1925.0054883325938,None,1925.0054883325938,None,1925.0054883325938,None,3,1.5507995552616194,1925.0054883325938,None,1926.589387794258,None,1926.589387794258,None,1926.589387794258,None,1926.589387794258,None,1926.589387794258,None,1926.589387794258,None,1926.589387794258,None,1930.5742068843683,None,1930.5742068843683,None,1930.5742068843683,None,1930.5742068843683,None,1930.5742068843683,None,1930.5742068843683,None,1930.5742068843683,None,1940.0778298815712,None,1931.5746171014616,None,1932.5750209188554,None,0.94,7.502685769577511,1935.5760979785118,None,None,1935.5760979785118,None,,,,,,,,,,,,,,,,,,,23780,2019_Dec_30_1128,Mmi_3levels,3.1.5,59.97702768786066,
,,,3,1,-1.1,,,,,,,,,0,2,2,2,0,13,13,4,,,,,,,,,,,,,,,,,,,,,,,,,,,,,,,,,,,,,,,,,,,,,,,,,,,,,,,,,,,,True,True,True,0.94,-0.06000000000000005,-1.08,1.9200000000000008,-1.1,-3.020000000000001,-2.0600000000000005,certain,certain,-2.0600000000000005,51.46333333333335,1942.0952397865476,None,1942.0952397865476,None,1942.0952397865476,None,1942.0952397865476,None,1942.0952397865476,None,1942.0952397865476,None,1942.0952397865476,None,3,1.100670842337422,1942.0952397865476,None,1943.2289974160958,None,1943.2289974160958,None,1943.2289974160958,None,1943.2289974160958,None,1943.2289974160958,None,1943.2289974160958,None,1943.2289974160958,None,1947.2305154111236,None,1947.2305154111236,None,1947.2305154111236,None,1947.2305154111236,None,1947.2305154111236,None,1947.2305154111236,None,1947.2305154111236,None,1948.2142392025562,None,,,,,,,,,,,,,,,,,,,,,,,,,,,,,,23780,2019_Dec_30_1128,Mmi_3levels,3.1.5,59.97702768786066,
,,,3,1,3.3,,,,,,,,,0,2,2,2,0,14,14,7,,,,,,,,,,,,,,,,,,,,,,,,,,,,,,,,,,,,,,,,,,,,,,,,,,,,,,,,,,,,True,False,False,0.94,-0.06000000000000005,-1.1400000000000001,-0.3050000000000002,3.3,2.9949999999999997,1.4974999999999998,gamble,lose,2.9949999999999997,54.45833333333335,1950.2317278232658,None,1950.2317278232658,None,1950.2317278232658,None,1950.2317278232658,None,1950.2317278232658,None,1950.2317278232658,None,1950.2317278232658,None,1,0.9338808227330446,1950.2317278232658,None,1951.1987347909017,None,1951.1987347909017,None,1951.1987347909017,None,1951.1987347909017,None,1951.1987347909017,None,1951.1987347909017,None,1951.1987347909017,None,1955.1835231627338,None,1955.1835231627338,None,1955.1835231627338,None,1955.1835231627338,None,1955.1835231627338,None,1955.1835231627338,None,1955.1835231627338,None,1956.1840332141146,None,,,,,,,,,,,,,,,,,,,,,,,,,,,,,,23780,2019_Dec_30_1128,Mmi_3levels,3.1.5,59.97702768786066,
,,,3,1,8.3,,,,,,,,,0,2,2,2,0,15,15,22,,,,,,,,,,,,,,,,,,,,,,,,,,,,,,,,,,,,,,,,,,,,,,,,,,,,,,,,,,,,True,False,True,0.94,-0.06000000000000005,-1.2000000000000002,-0.3100000000000002,8.3,7.99,3.995,gamble,lose,7.99,62.44833333333335,1958.2013708031736,None,1958.2013708031736,None,1958.2013708031736,None,1958.2013708031736,None,1958.2013708031736,None,1958.2013708031736,None,1958.2013708031736,None,1,0.8836941932095215,1958.2013708031736,None,1959.1017242234666,None,1959.1017242234666,None,1959.1017242234666,None,1959.1017242234666,None,1959.1017242234666,None,1959.1017242234666,None,1959.1017242234666,None,1963.1032258993946,None,1963.1032258993946,None,1963.1032258993946,None,1963.1032258993946,None,1963.1032258993946,None,1963.1032258993946,None,1963.1032258993946,None,1972.6067849000683,None,1964.1035919588758,None,1965.103943939088,None,0.93,7.502765125129372,1968.1051093138522,None,None,1968.1051093138522,None,,,,,,,,,,,,,,,,,,,23780,2019_Dec_30_1128,Mmi_3levels,3.1.5,59.97702768786066,
,,,3,1,3.5,,,,,,,,,0,2,2,2,0,16,16,26,,,,,,,,,,,,,,,,,,,,,,,,,,,,,,,,,,,,,,,,,,,,,,,,,,,,,,,,,,,,True,True,False,0.93,-0.06999999999999995,-1.27,2.249999999999999,3.5,1.2500000000000009,0.6250000000000004,gamble,win,3.5,65.94833333333335,1974.624217523844,None,1974.624217523844,None,1974.624217523844,None,1974.624217523844,None,1974.624217523844,None,1974.624217523844,None,1974.624217523844,None,1,0.9506814818596467,1974.624217523844,None,1975.6079854727723,None,1975.6079854727723,None,1975.6079854727723,None,1975.6079854727723,None,1975.6079854727723,None,1975.6079854727723,None,1975.6079854727723,None,1979.592762645334,None,1979.592762645334,None,1979.592762645334,None,1979.592762645334,None,1979.592762645334,None,1979.592762645334,None,1979.592762645334,None,1980.5931562233018,None,,,,,,,,,,,,,,,,,,,,,,,,,,,,,,23780,2019_Dec_30_1128,Mmi_3levels,3.1.5,59.97702768786066,
,,,3,1,7.9,,,,,,,,,0,2,2,2,0,17,17,2,,,,,,,,,,,,,,,,,,,,,,,,,,,,,,,,,,,,,,,,,,,,,,,,,,,,,,,,,,,,True,False,True,0.93,-0.06999999999999995,-1.3399999999999999,-0.35666666666666647,7.9,7.543333333333334,3.771666666666667,gamble,lose,7.543333333333334,73.49166666666669,1982.6105674082646,None,1982.6105674082646,None,1982.6105674082646,None,1982.6105674082646,None,1982.6105674082646,None,1982.6105674082646,None,1982.6105674082646,None,1,0.6171945570968091,1982.6105674082646,None,1983.2608628317248,None,1983.2608628317248,None,1983.2608628317248,None,1983.2608628317248,None,1983.2608628317248,None,1983.2608628317248,None,1983.2608628317248,None,1987.24565760314,None,1987.24565760314,None,1987.24565760314,None,1987.24565760314,None,1987.24565760314,None,1987.24565760314,None,1987.24565760314,None,1996.7492578815436,None,1988.2460419016425,None,1989.2464434792055,None,0.93,7.502734086941928,1992.2475384578574,None,None,1992.2475384578574,None,,,,,,,,,,,,,,,,,,,23780,2019_Dec_30_1128,Mmi_3levels,3.1.5,59.97702768786066,
,,,3,1,13.3,,,,,,,,,0,2,2,2,0,18,18,21,,,,,,,,,,,,,,,,,,,,,,,,,,,,,,,,,,,,,,,,,,,,,,,,,,,,,,,,,,,,True,True,True,0.93,-0.06999999999999995,-1.4099999999999997,2.389999999999999,13.3,10.910000000000002,5.455000000000001,gamble,win,13.3,86.79166666666669,1998.766686345567,None,1998.766686345567,None,1998.766686345567,None,1998.766686345567,None,1998.766686345567,None,1998.766686345567,None,1998.766686345567,None,1,0.6004959722049534,1998.766686345567,None,1999.4002860640176,None,1999.4002860640176,None,1999.4002860640176,None,1999.4002860640176,None,1999.4002860640176,None,1999.4002860640176,None,1999.4002860640176,None,2003.3851022742456,None,2003.3851022742456,None,2003.3851022742456,None,2003.3851022742456,None,2003.3851022742456,None,2003.3851022742456,None,2003.3851022742456,None,2004.3854750533355,None,,,,,,,,,,,,,,,,,,,,,,,,,,,,,,23780,2019_Dec_30_1128,Mmi_3levels,3.1.5,59.97702768786066,
,,,3,1,8.9,,,,,,,,,0,2,2,2,0,19,19,9,,,,,,,,,,,,,,,,,,,,,,,,,,,,,,,,,,,,,,,,,,,,,,,,,,,,,,,,,,,,True,True,False,0.93,-0.06999999999999995,-1.4799999999999995,2.459999999999999,8.9,6.440000000000001,3.2200000000000006,gamble,win,8.9,95.69166666666669,2006.4029185565887,None,2006.4029185565887,None,2006.4029185565887,None,2006.4029185565887,None,2006.4029185565887,None,2006.4029185565887,None,2006.4029185565887,None,1,1.3007489180890843,2006.4029185565887,None,2007.7368003391894,None,2007.7368003391894,None,2007.7368003391894,None,2007.7368003391894,None,2007.7368003391894,None,2007.7368003391894,None,2007.7368003391894,None,2011.7215896709822,None,2011.7215896709822,None,2011.7215896709822,None,2011.7215896709822,None,2011.7215896709822,None,2011.7215896709822,None,2011.7215896709822,None,2021.2419173326343,None,2012.7219733294332,None,2013.722365627531,None,0.93,7.519362275721505,2016.723475325387,None,None,2016.723475325387,None,,,,,,,,,,,,,,,,,,,23780,2019_Dec_30_1128,Mmi_3levels,3.1.5,59.97702768786066,
,,,3,1,2.7,,,,,,,,,0,2,2,2,0,20,20,13,,,,,,,,,,,,,,,,,,,,,,,,,,,,,,,,,,,,,,,,,,,,,,,,,,,,,,,,,,,,True,True,True,0.93,-0.06999999999999995,-1.5499999999999994,2.5299999999999985,2.7,0.1700000000000017,1.435000000000001,gamble,win,2.7,98.3916666666667,2023.2592942795018,None,2023.2592942795018,None,2023.2592942795018,None,2023.2592942795018,None,2023.2592942795018,None,2023.2592942795018,None,2023.2592942795018,None,1,0.6838423449080437,2023.2592942795018,None,2023.9762614893261,None,2023.9762614893261,None,2023.9762614893261,None,2023.9762614893261,None,2023.9762614893261,None,2023.9762614893261,None,2023.9762614893261,None,2027.9777490861015,None,2027.9777490861015,None,2027.9777490861015,None,2027.9777490861015,None,2027.9777490861015,None,2027.9777490861015,None,2027.9777490861015,None,2028.9614549585385,None,,,,,,,,,,,,,,,,,,,,,,,,,,,,,,23780,2019_Dec_30_1128,Mmi_3levels,3.1.5,59.97702768786066,
,,,3,1,1.3,,,,,,,,,0,2,2,2,0,21,21,11,,,,,,,,,,,,,,,,,,,,,,,,,,,,,,,,,,,,,,,,,,,,,,,,,,,,,,,,,,,,True,True,True,0.93,-0.06999999999999995,-1.6199999999999992,2.5999999999999988,1.3,-1.2999999999999987,6.661338147750939e-16,certain,certain,6.661338147750939e-16,98.3916666666667,2030.9788959018188,None,2030.9788959018188,None,2030.9788959018188,None,2030.9788959018188,None,2030.9788959018188,None,2030.9788959018188,None,2030.9788959018188,None,3,1.2841024902882054,2030.9788959018188,None,2032.279425952118,None,2032.279425952118,None,2032.279425952118,None,2032.279425952118,None,2032.279425952118,None,2032.279425952118,None,2032.279425952118,None,2036.2808866703417,None,2036.2808866703417,None,2036.2808866703417,None,2036.2808866703417,None,2036.2808866703417,None,2036.2808866703417,None,2036.2808866703417,None,2037.2813244058052,None,,,,,,,,,,,,,,,,,,,,,,,,,,,,,,23780,2019_Dec_30_1128,Mmi_3levels,3.1.5,59.97702768786066,
,,,3,1,7.7,,,,,,,,,0,2,2,2,0,22,22,17,,,,,,,,,,,,,,,,,,,,,,,,,,,,,,,,,,,,,,,,,,,,,,,,,,,,,,,,,,,,True,True,True,0.93,-0.06999999999999995,-1.689999999999999,2.669999999999998,7.7,5.030000000000002,2.515000000000001,gamble,win,7.7,106.0916666666667,2039.298740070546,None,2039.298740070546,None,2039.298740070546,None,2039.298740070546,None,2039.298740070546,None,2039.298740070546,None,2039.298740070546,None,1,0.9839445791440085,2039.298740070546,None,2040.3157496780623,None,2040.3157496780623,None,2040.3157496780623,None,2040.3157496780623,None,2040.3157496780623,None,2040.3157496780623,None,2040.3157496780623,None,2044.3173223899212,None,2044.3173223899212,None,2044.3173223899212,None,2044.3173223899212,None,2044.3173223899212,None,2044.3173223899212,None,2044.3173223899212,None,2053.8041837656638,None,2045.3009709856706,None,2046.30135144433,None,0.93,7.502761285402812,2049.3024745814037,None,None,2049.3024745814037,None,,,,,,,,,,,,,,,,,,,23780,2019_Dec_30_1128,Mmi_3levels,3.1.5,59.97702768786066,
,,,3,1,9.5,,,,,,,,,0,2,2,2,0,23,23,19,,,,,,,,,,,,,,,,,,,,,,,,,,,,,,,,,,,,,,,,,,,,,,,,,,,,,,,,,,,,True,True,False,0.93,-0.06999999999999995,-1.759999999999999,2.7399999999999984,9.5,6.760000000000002,3.380000000000001,gamble,win,9.5,115.5916666666667,2055.821624069009,None,2055.821624069009,None,2055.821624069009,None,2055.821624069009,None,2055.821624069009,None,2055.821624069009,None,2055.821624069009,None,1,1.0673175101401284,2055.821624069009,None,2056.9220594046637,None,2056.9220594046637,None,2056.9220594046637,None,2056.9220594046637,None,2056.9220594046637,None,2056.9220594046637,None,2056.9220594046637,None,2060.9069226522697,None,2060.9069226522697,None,2060.9069226522697,None,2060.9069226522697,None,2060.9069226522697,None,2060.9069226522697,None,2060.9069226522697,None,2061.9072576735634,None,,,,,,,,,,,,,,,,,,,,,,,,,,,,,,23780,2019_Dec_30_1128,Mmi_3levels,3.1.5,59.97702768786066,
,,,3,1,9.3,,,,,,,,,0,2,2,2,0,24,24,10,,,,,,,,,,,,,,,,,,,,,,,,,,,,,,,,,,,,,,,,,,,,,,,,,,,,,,,,,,,,True,True,True,0.93,-0.06999999999999995,-1.8299999999999987,2.809999999999998,9.3,6.490000000000003,3.2450000000000014,gamble,win,9.3,124.8916666666667,2063.924686137587,None,2063.924686137587,None,2063.924686137587,None,2063.924686137587,None,2063.924686137587,None,2063.924686137587,None,2063.924686137587,None,1,0.6004774132743478,2063.924686137587,None,2064.5582576976158,None,2064.5582576976158,None,2064.5582576976158,None,2064.5582576976158,None,2064.5582576976158,None,2064.5582576976158,None,2064.5582576976158,None,2068.543104626122,None,2068.543104626122,None,2068.543104626122,None,2068.543104626122,None,2068.543104626122,None,2068.543104626122,None,2068.543104626122,None,2078.046699464787,None,2069.5434764453676,None,2070.5438645835966,None,0.92,7.5027462461730465,2073.5449838809436,None,None,2073.5449838809436,None,,,,,,,,,,,,,,,,,,,23780,2019_Dec_30_1128,Mmi_3levels,3.1.5,59.97702768786066,
,,,3,1,2.5,,,,,,,,,0,2,2,2,0,25,25,20,,,,,,,,,,,,,,,,,,,,,,,,,,,,,,,,,,,,,,,,,,,,,,,,,,,,,,,,,,,,True,False,True,0.92,-0.07999999999999996,-1.9099999999999988,-0.4391666666666664,2.5,2.0608333333333335,1.0304166666666668,gamble,lose,2.0608333333333335,126.95250000000003,2080.064183925744,None,2080.064183925744,None,2080.064183925744,None,2080.064183925744,None,2080.064183925744,None,2080.064183925744,None,2080.064183925744,None,1,0.8005442895228043,2080.064183925744,None,2080.8978191621136,None,2080.8978191621136,None,2080.8978191621136,None,2080.8978191621136,None,2080.8978191621136,None,2080.8978191621136,None,2080.8978191621136,None,2084.882620013319,None,2084.882620013319,None,2084.882620013319,None,2084.882620013319,None,2084.882620013319,None,2084.882620013319,None,2084.882620013319,None,2085.883049749187,None,,,,,,,,,,,,,,,,,,,,,,,,,,,,,,23780,2019_Dec_30_1128,Mmi_3levels,3.1.5,59.97702768786066,
,,,3,1,2.1,,,,,,,,,0,2,2,2,0,26,26,6,,,,,,,,,,,,,,,,,,,,,,,,,,,,,,,,,,,,,,,,,,,,,,,,,,,,,,,,,,,,True,True,False,0.92,-0.07999999999999996,-1.9899999999999989,3.1099999999999985,2.1,-1.0099999999999985,0.5450000000000008,certain,certain,0.5450000000000008,127.49750000000003,2087.9004305358976,None,2087.9004305358976,None,2087.9004305358976,None,2087.9004305358976,None,2087.9004305358976,None,2087.9004305358976,None,2087.9004305358976,None,3,2.4845290263183415,2087.9004305358976,None,2090.4180508292047,None,2090.4180508292047,None,2090.4180508292047,None,2090.4180508292047,None,2090.4180508292047,None,2090.4180508292047,None,2090.4180508292047,None,2094.402892637998,None,2094.402892637998,None,2094.402892637998,None,2094.402892637998,None,2094.402892637998,None,2094.402892637998,None,2094.402892637998,None,2103.9064666779013,None,2095.4032711768523,None,2096.403710192186,None,0.92,7.502622413099743,2099.4047725327546,None,None,2099.4047725327546,None,,,,,,,,,,,,,,,,,,,23780,2019_Dec_30_1128,Mmi_3levels,3.1.5,59.97702768786066,
,,,,,,,,,,,,,,,,,,,,,,,,,,,,,,0,0,0,0,,,,,,,,,,,,,,,,,,,,,,,,,,,,,,,,,,,,,,,,,,,,,,,,,,,,,,,,,,,,,,,,,,,,,,,,,,,,,,,,,,,,,,,,,,,,,,,,,,,,,,,,,,,,,,,,,,,,,,,,,2105.907239754568,None,4,2.1177649251185358,2105.907239754568,None,127.49750000000003,4,2108.0581573832314,None,2108.0581573832314,None,2108.0581573832314,None,4,3.3682235394371673,2108.0581573832314,None,23780,2019_Dec_30_1128,Mmi_3levels,3.1.5,59.97702768786066,
