currSlide,currImage,currText,blockNum,targetHappiness,highAmount,instructionLoop1.thisRepN,instructionLoop1.thisTrialN,instructionLoop1.thisN,instructionLoop1.thisIndex,instructionLoop2.thisRepN,instructionLoop2.thisTrialN,instructionLoop2.thisN,instructionLoop2.thisIndex,blockLoop.thisRepN,blockLoop.thisTrialN,blockLoop.thisN,blockLoop.thisIndex,trialLoop.thisRepN,trialLoop.thisTrialN,trialLoop.thisN,trialLoop.thisIndex,doRatingLoop.thisRepN,doRatingLoop.thisTrialN,doRatingLoop.thisN,doRatingLoop.thisIndex,trialHappyLoop.thisRepN,trialHappyLoop.thisTrialN,trialHappyLoop.thisN,trialHappyLoop.thisIndex,logWinningsLoop.thisRepN,logWinningsLoop.thisTrialN,logWinningsLoop.thisN,logWinningsLoop.thisIndex,instrImage.started,instrImage.stopped,instrText.started,instrText.stopped,instrContinueText.started,instrContinueText.stopped,instrKeyResp.keys,instrKeyResp.rt,instrKeyResp.started,instrKeyResp.stopped,lifeHappyText.started,lifeHappyText.stopped,lifeHappySlider.response,lifeHappySlider.rt,lifeHappySlider.started,lifeHappySlider.stopped,lifeHappyResp.keys,lifeHappyResp.rt,lifeHappyResp.started,lifeHappyResp.stopped,instrImage_2.started,instrImage_2.stopped,instrText_2.started,instrText_2.stopped,instrContinueText_2.started,instrContinueText_2.stopped,instrKeyResp_2.keys,instrKeyResp_2.rt,instrKeyResp_2.started,instrKeyResp_2.stopped,localizing.started,localizing.stopped,start_exp.keys,start_exp.rt,start_exp.started,start_exp.stopped,blockHappyText.started,blockHappyText.stopped,blockHappySlider.response,blockHappySlider.rt,blockHappySlider.started,blockHappySlider.stopped,blockHappyResp.keys,blockHappyResp.rt,blockHappyResp.started,blockHappyResp.stopped,blankText.started,blankText.stopped,isHappyBlock,isCongruent,isWinOnTop,lastHappyRating,diff,sumDiff,RPE,winAmount,loseAmount,certainAmount,choice,outcome,outcomeAmount,currentWinnings,fixCross.started,fixCross.stopped,certainBox.started,certainBox.stopped,outcome1Box.started,outcome1Box.stopped,outcome2Box.started,outcome2Box.stopped,certainText.started,certainText.stopped,outcome1Text.started,outcome1Text.stopped,outcome2Text.started,outcome2Text.stopped,choiceKey.keys,choiceKey.rt,choiceKey.started,choiceKey.stopped,fixCross_2.started,fixCross_2.stopped,certainBox_2.started,certainBox_2.stopped,outcome1Box_2.started,outcome1Box_2.stopped,outcome2Box_2.started,outcome2Box_2.stopped,certainText_2.started,certainText_2.stopped,outcome1Text_2.started,outcome1Text_2.stopped,outcome2Text_2.started,outcome2Text_2.stopped,fixCross_3.started,fixCross_3.stopped,certainBox_3.started,certainBox_3.stopped,outcome1Box_3.started,outcome1Box_3.stopped,outcome2Box_3.started,outcome2Box_3.stopped,certainText_3.started,certainText_3.stopped,outcome1Text_3.started,outcome1Text_3.stopped,outcome2Text_3.started,outcome2Text_3.stopped,fixCross_ITI.started,fixCross_ITI.stopped,fixCross_ISI.started,fixCross_ISI.stopped,happyText.started,happyText.stopped,happySlider.response,happySlider.rt,happySlider.started,happySlider.stopped,happyResp.keys,happyResp.started,happyResp.stopped,endOfBlockText.started,endOfBlockText.stopped,restKeyResp.keys,restKeyResp.rt,restKeyResp.started,restKeyResp.stopped,finalWinnings,cashBonus,goodbyeText.started,goodbyeText.stopped,finalWinningsText.started,finalWinningsText.stopped,spaceToContinue.started,spaceToContinue.stopped,goodbyeKeyResp_2.keys,goodbyeKeyResp_2.rt,goodbyeKeyResp_2.started,goodbyeKeyResp_2.stopped,participant,date,expName,psychopyVersion,frameRate
1,black.png,"Welcome! You are about to play our gambling task.
This task has 3 blocks and takes about 15 minutes.",,,,0,0,0,0,,,,,,,,,,,,,,,,,,,,,,,,,12.13640331,None,12.13640331,None,12.13640331,None,4,2.001062984,12.13640331,None,,,,,,,,,,,,,,,,,,,,,,,,,,,,,,,,,,,,,,,,,,,,,,,,,,,,,,,,,,,,,,,,,,,,,,,,,,,,,,,,,,,,,,,,,,,,,,,,,,,,,,,,,,,,,,,,,,,,,,,,,,,,,,,,,,24201,2019_Sep_24_1347,Mmi_3levels,3.1.5,60.06908058
2,black.png,"In this game, you may win or lose points. Your goal is to get as many points as possible. These points will be converted to a cash bonus at the end.
Sometimes we will ask you to rate your mood.",,,,0,1,1,1,,,,,,,,,,,,,,,,,,,,,,,,,14.18728893,None,14.18728893,None,14.18728893,None,4,0.800562274,14.18728893,None,,,,,,,,,,,,,,,,,,,,,,,,,,,,,,,,,,,,,,,,,,,,,,,,,,,,,,,,,,,,,,,,,,,,,,,,,,,,,,,,,,,,,,,,,,,,,,,,,,,,,,,,,,,,,,,,,,,,,,,,,,,,,,,,,,24201,2019_Sep_24_1347,Mmi_3levels,3.1.5,60.06908058
3,black.png,"On the next screen, please rate how you feel about your life these days. Use the LEFT (green) and RIGHT (blue) buttons to move the slider (you can press and hold them to slide gradually) and the TOP (red) button to lock in your response.
Make your rating as accurately and quickly as you can!",,,,0,2,2,2,,,,,,,,,,,,,,,,,,,,,,,,,15.03755577,None,15.03755577,None,15.03755577,None,4,0.400330414,15.03755577,None,,,,,,,,,,,,,,,,,,,,,,,,,,,,,,,,,,,,,,,,,,,,,,,,,,,,,,,,,,,,,,,,,,,,,,,,,,,,,,,,,,,,,,,,,,,,,,,,,,,,,,,,,,,,,,,,,,,,,,,,,,,,,,,,,,24201,2019_Sep_24_1347,Mmi_3levels,3.1.5,60.06908058
,,,,,,,,,,,,,,,,,,,,,,,,,,,,,,,,,,,,,,,,,,,,15.45438642,None,0.93,6.401773218,19.45591306,None,4,2.384567732,19.45591306,None,,,,,,,,,,,,,,,,,,,,,,,,,,,,,,,,,,,,,,,,,,,,,,,,,,,,,,,,,,,,,,,,,,,,,,,,,,,,,,,,,,,,,,,,,,,,,,,,,,,,,,,,,,,,,,,,,,,,,,,,24201,2019_Sep_24_1347,Mmi_3levels,3.1.5,60.06908058
4,black.png,"In this game you can win money by earning points according to your choices. You will decide whether to gamble a number of points or stick with a guaranteed number of points. 
Make your choice by pressing the left or right arrow key once. An example of one trial is shown on the next screen.",,,,,,,,0,0,0,0,,,,,,,,,,,,,,,,,,,,,,,,,,,,,,,,,,,,,,,,,21.89021127,None,21.89021127,None,21.89021127,None,4,0.700403115,21.89021127,None,,,,,,,,,,,,,,,,,,,,,,,,,,,,,,,,,,,,,,,,,,,,,,,,,,,,,,,,,,,,,,,,,,,,,,,,,,,,,,,,,,,,,,,,,,,,,,,,,,,,,,,,,,,,,,24201,2019_Sep_24_1347,Mmi_3levels,3.1.5,60.06908058
5,example_start.png,"The GAMBLING OPTION will be shown on the RIGHT SIDE. 
Select this option using the RIGHT (blue) button on your keypad.",,,,,,,,0,1,1,1,,,,,,,,,,,,,,,,,,,,,,,,,,,,,,,,,,,,,,,,,22.65708318,None,22.65708318,None,22.65708318,None,4,0.583914902,22.65708318,None,,,,,,,,,,,,,,,,,,,,,,,,,,,,,,,,,,,,,,,,,,,,,,,,,,,,,,,,,,,,,,,,,,,,,,,,,,,,,,,,,,,,,,,,,,,,,,,,,,,,,,,,,,,,,,24201,2019_Sep_24_1347,Mmi_3levels,3.1.5,60.06908058
6,example_gamble.png,"Once you select the gambling choice, the choice you made will remain on the screen.",,,,,,,,0,2,2,2,,,,,,,,,,,,,,,,,,,,,,,,,,,,,,,,,,,,,,,,,23.27404464,None,23.27404464,None,23.27404464,None,4,0.316964603,23.27404464,None,,,,,,,,,,,,,,,,,,,,,,,,,,,,,,,,,,,,,,,,,,,,,,,,,,,,,,,,,,,,,,,,,,,,,,,,,,,,,,,,,,,,,,,,,,,,,,,,,,,,,,,,,,,,,,24201,2019_Sep_24_1347,Mmi_3levels,3.1.5,60.06908058
7,example_win.png,"The outcome you received will then be shown on the screen. In this example , you WON 10 points.",,,,,,,,0,3,3,3,,,,,,,,,,,,,,,,,,,,,,,,,,,,,,,,,,,,,,,,,23.62416844,None,23.62416844,None,23.62416844,None,4,0.450513029,23.62416844,None,,,,,,,,,,,,,,,,,,,,,,,,,,,,,,,,,,,,,,,,,,,,,,,,,,,,,,,,,,,,,,,,,,,,,,,,,,,,,,,,,,,,,,,,,,,,,,,,,,,,,,,,,,,,,,24201,2019_Sep_24_1347,Mmi_3levels,3.1.5,60.06908058
8,example_start.png,"The GUARANTEED OPTION will be shown on the LEFT SIDE. You are 100% guaranteed to gain or lose this amount. In this example, you have a 100% chance of winning 1 point. Select this option using the LEFT (green) button on your keyboard.",,,,,,,,0,4,4,4,,,,,,,,,,,,,,,,,,,,,,,,,,,,,,,,,,,,,,,,,24.12435819,None,24.12435819,None,24.12435819,None,4,0.350408266,24.12435819,None,,,,,,,,,,,,,,,,,,,,,,,,,,,,,,,,,,,,,,,,,,,,,,,,,,,,,,,,,,,,,,,,,,,,,,,,,,,,,,,,,,,,,,,,,,,,,,,,,,,,,,,,,,,,,,24201,2019_Sep_24_1347,Mmi_3levels,3.1.5,60.06908058
9,example_certain.png,"Once you select the guaranteed choice, your selection will remain on the screen.",,,,,,,,0,5,5,5,,,,,,,,,,,,,,,,,,,,,,,,,,,,,,,,,,,,,,,,,24.50784246,None,24.50784246,None,24.50784246,None,4,0.383746975,24.50784246,None,,,,,,,,,,,,,,,,,,,,,,,,,,,,,,,,,,,,,,,,,,,,,,,,,,,,,,,,,,,,,,,,,,,,,,,,,,,,,,,,,,,,,,,,,,,,,,,,,,,,,,,,,,,,,,24201,2019_Sep_24_1347,Mmi_3levels,3.1.5,60.06908058
10,black.png,"Please make your choices as fast as possible.
You will be given a break at the end of each block.
Let's play!",,,,,,,,0,6,6,6,,,,,,,,,,,,,,,,,,,,,,,,,,,,,,,,,,,,,,,,,24.92463376,None,24.92463376,None,24.92463376,None,4,1.300972172,24.92463376,None,,,,,,,,,,,,,,,,,,,,,,,,,,,,,,,,,,,,,,,,,,,,,,,,,,,,,,,,,,,,,,,,,,,,,,,,,,,,,,,,,,,,,,,,,,,,,,,,,,,,,,,,,,,,,,24201,2019_Sep_24_1347,Mmi_3levels,3.1.5,60.06908058
,,,,,,,,,,,,,,,,,,,,,,,,,,,,,,,,,,,,,,,,,,,,,,,,,,,,,,,,,,,,,,,,26.24184731,None,space,15.08943237,26.24184731,None,,,,,,,,,,,,,,,,,,,,,,,,,,,,,,,,,,,,,,,,,,,,,,,,,,,,,,,,,,,,,,,,,,,,,,,,,,,,,,,,,,,,,,,,,,,,,,,,,,,,,,,,24201,2019_Sep_24_1347,Mmi_3levels,3.1.5,60.06908058
,,,1,1,6.3,,,,,,,,,0,0,0,0,0,0,0,6,,,,,,,,,,,,,,,,,,,,,,,,,,,,,,,,,,,,,,,,,,,,,,,,,41.34765481,None,0.95,6.145604745,44.36547979,None,4,3.118063808,44.36547979,None,47.50000864,None,TRUE,TRUE,TRUE,0.95,-0.05,-0.05,0.75,6.3,5.55,2.775,gamble,win,6.3,6.3,50.53449705,None,50.53449705,None,50.53449705,None,50.53449705,None,50.53449705,None,50.53449705,None,50.53449705,None,1,0.900563682,50.53449705,None,51.46814921,None,51.46814921,None,51.46814921,None,51.46814921,None,51.46814921,None,51.46814921,None,51.46814921,None,55.45300634,None,55.45300634,None,55.45300634,None,55.45300634,None,55.45300634,None,55.45300634,None,55.45300634,None,56.45343639,None,,,,,,,,,,,,,,,,,,,,,,,,,,,,,,24201,2019_Sep_24_1347,Mmi_3levels,3.1.5,60.06908058
,,,1,1,9.1,,,,,,,,,0,0,0,0,0,1,1,16,,,,,,,,,,,,,,,,,,,,,,,,,,,,,,,,,,,,,,,,,,,,,,,,,,,,,,,,,,,,,TRUE,FALSE,FALSE,0.95,-0.05,-0.1,-0.183333333,9.1,8.916666667,4.458333333,gamble,lose,8.916666667,15.21666667,58.47082299,None,58.47082299,None,58.47082299,None,58.47082299,None,58.47082299,None,58.47082299,None,58.47082299,None,1,0.733923574,58.47082299,None,59.23783281,None,59.23783281,None,59.23783281,None,59.23783281,None,59.23783281,None,59.23783281,None,59.23783281,None,63.23935721,None,63.23935721,None,63.23935721,None,63.23935721,None,63.23935721,None,63.23935721,None,63.23935721,None,64.22303167,None,,,,,,,,,,,,,,,,,,,,,,,,,,,,,,24201,2019_Sep_24_1347,Mmi_3levels,3.1.5,60.06908058
,,,1,1,10.3,,,,,,,,,0,0,0,0,0,2,2,11,,,,,,,,,,,,,,,,,,,,,,,,,,,,,,,,,,,,,,,,,,,,,,,,,,,,,,,,,,,,,TRUE,TRUE,FALSE,0.95,-0.05,-0.15,0.85,10.3,9.45,4.725,gamble,win,10.3,25.51666667,66.24046211,None,66.24046211,None,66.24046211,None,66.24046211,None,66.24046211,None,66.24046211,None,66.24046211,None,1,0.950605504,66.24046211,None,67.22420793,None,67.22420793,None,67.22420793,None,67.22420793,None,67.22420793,None,67.22420793,None,67.22420793,None,71.20902794,None,71.20902794,None,71.20902794,None,71.20902794,None,71.20902794,None,71.20902794,None,71.20902794,None,80.71266646,None,72.20941064,None,73.20984453,None,0.96,7.502770093,76.21098239,None,None,76.21098239,None,,,,,,,,,,,,,,,,,,,24201,2019_Sep_24_1347,Mmi_3levels,3.1.5,60.06908058
,,,1,1,-1.5,,,,,,,,,0,0,0,0,0,3,3,15,,,,,,,,,,,,,,,,,,,,,,,,,,,,,,,,,,,,,,,,,,,,,,,,,,,,,,,,,,,,,TRUE,TRUE,FALSE,0.96,-0.04,-0.19,0.75,-1.5,-2.25,-1.875,gamble,win,-1.5,24.01666667,82.73009786,None,82.73009786,None,82.73009786,None,82.73009786,None,82.73009786,None,82.73009786,None,82.73009786,None,1,2.101111749,82.73009786,None,84.86429809,None,84.86429809,None,84.86429809,None,84.86429809,None,84.86429809,None,84.86429809,None,84.86429809,None,88.86577257,None,88.86577257,None,88.86577257,None,88.86577257,None,88.86577257,None,88.86577257,None,88.86577257,None,89.84952863,None,,,,,,,,,,,,,,,,,,,,,,,,,,,,,,24201,2019_Sep_24_1347,Mmi_3levels,3.1.5,60.06908058
,,,1,1,2.5,,,,,,,,,0,0,0,0,0,4,4,5,,,,,,,,,,,,,,,,,,,,,,,,,,,,,,,,,,,,,,,,,,,,,,,,,,,,,,,,,,,,,TRUE,TRUE,TRUE,0.96,-0.04,-0.23,0.79,2.5,1.71,0.855,gamble,win,2.5,26.51666667,91.86692483,None,91.86692483,None,91.86692483,None,91.86692483,None,91.86692483,None,91.86692483,None,91.86692483,None,1,1.084050895,91.86692483,None,92.98406901,None,92.98406901,None,92.98406901,None,92.98406901,None,92.98406901,None,92.98406901,None,92.98406901,None,96.96887397,None,96.96887397,None,96.96887397,None,96.96887397,None,96.96887397,None,96.96887397,None,96.96887397,None,106.4725608,None,97.96925731,None,98.96968737,None,0.93,7.502805931,101.9708358,None,None,101.9708358,None,,,,,,,,,,,,,,,,,,,24201,2019_Sep_24_1347,Mmi_3levels,3.1.5,60.06908058
,,,1,1,4.3,,,,,,,,,0,0,0,0,0,5,5,0,,,,,,,,,,,,,,,,,,,,,,,,,,,,,,,,,,,,,,,,,,,,,,,,,,,,,,,,,,,,,TRUE,TRUE,FALSE,0.93,-0.07,-0.3,1.28,4.3,3.02,1.51,gamble,win,4.3,30.81666667,108.4899836,None,108.4899836,None,108.4899836,None,108.4899836,None,108.4899836,None,108.4899836,None,108.4899836,None,1,0.983925014,108.4899836,None,109.5070003,None,109.5070003,None,109.5070003,None,109.5070003,None,109.5070003,None,109.5070003,None,109.5070003,None,113.4918606,None,113.4918606,None,113.4918606,None,113.4918606,None,113.4918606,None,113.4918606,None,113.4918606,None,114.4922459,None,,,,,,,,,,,,,,,,,,,,,,,,,,,,,,24201,2019_Sep_24_1347,Mmi_3levels,3.1.5,60.06908058
,,,1,1,12.1,,,,,,,,,0,0,0,0,0,6,6,20,,,,,,,,,,,,,,,,,,,,,,,,,,,,,,,,,,,,,,,,,,,,,,,,,,,,,,,,,,,,,TRUE,TRUE,TRUE,0.93,-0.07,-0.37,1.35,12.1,10.75,5.375,gamble,win,12.1,42.91666667,116.5097233,None,116.5097233,None,116.5097233,None,116.5097233,None,116.5097233,None,116.5097233,None,116.5097233,None,1,0.967300937,116.5097233,None,117.5100203,None,117.5100203,None,117.5100203,None,117.5100203,None,117.5100203,None,117.5100203,None,117.5100203,None,121.5115802,None,121.5115802,None,121.5115802,None,121.5115802,None,121.5115802,None,121.5115802,None,121.5115802,None,122.4953465,None,,,,,,,,,,,,,,,,,,,,,,,,,,,,,,24201,2019_Sep_24_1347,Mmi_3levels,3.1.5,60.06908058
,,,1,1,11.1,,,,,,,,,0,0,0,0,0,7,7,25,,,,,,,,,,,,,,,,,,,,,,,,,,,,,,,,,,,,,,,,,,,,,,,,,,,,,,,,,,,,,TRUE,TRUE,FALSE,0.93,-0.07,-0.44,1.42,11.1,9.68,4.84,gamble,win,11.1,54.01666667,124.5127891,None,124.5127891,None,124.5127891,None,124.5127891,None,124.5127891,None,124.5127891,None,124.5127891,None,1,1.317421859,124.5127891,None,125.86331,None,125.86331,None,125.86331,None,125.86331,None,125.86331,None,125.86331,None,125.86331,None,129.8481092,None,129.8481092,None,129.8481092,None,129.8481092,None,129.8481092,None,129.8481092,None,129.8481092,None,139.3517932,None,130.848545,None,131.8488765,None,0.96,7.502859368,134.8500796,None,None,134.8500796,None,,,,,,,,,,,,,,,,,,,24201,2019_Sep_24_1347,Mmi_3levels,3.1.5,60.06908058
,,,1,1,0.9,,,,,,,,,0,0,0,0,0,8,8,19,,,,,,,,,,,,,,,,,,,,,,,,,,,,,,,,,,,,,,,,,,,,,,,,,,,,,,,,,,,,,TRUE,FALSE,FALSE,0.96,-0.04,-0.48,-0.18,0.9,0.72,0.81,gamble,lose,0.72,54.73666667,141.3691836,None,141.3691836,None,141.3691836,None,141.3691836,None,141.3691836,None,141.3691836,None,141.3691836,None,1,1.484213639,141.3691836,None,142.8864816,None,142.8864816,None,142.8864816,None,142.8864816,None,142.8864816,None,142.8864816,None,142.8864816,None,146.8713323,None,146.8713323,None,146.8713323,None,146.8713323,None,146.8713323,None,146.8713323,None,146.8713323,None,147.8716731,None,,,,,,,,,,,,,,,,,,,,,,,,,,,,,,24201,2019_Sep_24_1347,Mmi_3levels,3.1.5,60.06908058
,,,1,1,11.9,,,,,,,,,0,0,0,0,0,9,9,23,,,,,,,,,,,,,,,,,,,,,,,,,,,,,,,,,,,,,,,,,,,,,,,,,,,,,,,,,,,,,TRUE,TRUE,FALSE,0.96,-0.04,-0.52,1.08,11.9,10.82,5.41,gamble,win,11.9,66.63666667,149.8891486,None,149.8891486,None,149.8891486,None,149.8891486,None,149.8891486,None,149.8891486,None,149.8891486,None,1,0.933959668,149.8891486,None,150.8561923,None,150.8561923,None,150.8561923,None,150.8561923,None,150.8561923,None,150.8561923,None,150.8561923,None,154.857717,None,154.857717,None,154.857717,None,154.857717,None,154.857717,None,154.857717,None,154.857717,None,164.3446847,None,155.8413889,None,156.8418106,None,0.98,7.502782252,159.8429133,None,None,159.8429133,None,,,,,,,,,,,,,,,,,,,24201,2019_Sep_24_1347,Mmi_3levels,3.1.5,60.06908058
,,,1,1,2.7,,,,,,,,,0,0,0,0,0,10,10,17,,,,,,,,,,,,,,,,,,,,,,,,,,,,,,,,,,,,,,,,,,,,,,,,,,,,,,,,,,,,,TRUE,TRUE,TRUE,0.98,-0.02,-0.54,0.82,2.7,1.88,0.94,gamble,win,2.7,69.33666667,166.3621238,None,166.3621238,None,166.3621238,None,166.3621238,None,166.3621238,None,166.3621238,None,166.3621238,None,1,1.033986035,166.3621238,None,167.4291762,None,167.4291762,None,167.4291762,None,167.4291762,None,167.4291762,None,167.4291762,None,167.4291762,None,171.4140052,None,171.4140052,None,171.4140052,None,171.4140052,None,171.4140052,None,171.4140052,None,171.4140052,None,172.4143905,None,,,,,,,,,,,,,,,,,,,,,,,,,,,,,,24201,2019_Sep_24_1347,Mmi_3levels,3.1.5,60.06908058
,,,1,1,13.1,,,,,,,,,0,0,0,0,0,11,11,12,,,,,,,,,,,,,,,,,,,,,,,,,,,,,,,,,,,,,,,,,,,,,,,,,,,,,,,,,,,,,TRUE,FALSE,TRUE,0.98,-0.02,-0.56,-0.116666667,13.1,12.98333333,6.491666667,gamble,lose,12.98333333,82.32,174.4318126,None,174.4318126,None,174.4318126,None,174.4318126,None,174.4318126,None,174.4318126,None,174.4318126,None,1,1.200690459,174.4318126,None,175.6656357,None,175.6656357,None,175.6656357,None,175.6656357,None,175.6656357,None,175.6656357,None,175.6656357,None,179.6505062,None,179.6505062,None,179.6505062,None,179.6505062,None,179.6505062,None,179.6505062,None,179.6505062,None,189.1541419,None,180.6509197,None,181.6512988,None,0.93,7.502950243,184.6524799,None,None,184.6524799,None,,,,,,,,,,,,,,,,,,,24201,2019_Sep_24_1347,Mmi_3levels,3.1.5,60.06908058
,,,1,1,-1.3,,,,,,,,,0,0,0,0,0,12,12,21,,,,,,,,,,,,,,,,,,,,,,,,,,,,,,,,,,,,,,,,,,,,,,,,,,,,,,,,,,,,,TRUE,TRUE,FALSE,0.93,-0.07,-0.63,1.61,-1.3,-2.91,-2.105,gamble,win,-1.3,81.02,191.1715637,None,191.1715637,None,191.1715637,None,191.1715637,None,191.1715637,None,191.1715637,None,191.1715637,None,1,1.817618008,191.1715637,None,193.0222651,None,193.0222651,None,193.0222651,None,193.0222651,None,193.0222651,None,193.0222651,None,193.0222651,None,197.0238189,None,197.0238189,None,197.0238189,None,197.0238189,None,197.0238189,None,197.0238189,None,197.0238189,None,198.0074758,None,,,,,,,,,,,,,,,,,,,,,,,,,,,,,,24201,2019_Sep_24_1347,Mmi_3levels,3.1.5,60.06908058
,,,1,1,5.9,,,,,,,,,0,0,0,0,0,13,13,2,,,,,,,,,,,,,,,,,,,,,,,,,,,,,,,,,,,,,,,,,,,,,,,,,,,,,,,,,,,,,TRUE,FALSE,FALSE,0.93,-0.07,-0.7,-0.303333333,5.9,5.596666667,2.798333333,gamble,lose,5.596666667,86.61666667,200.024911,None,200.024911,None,200.024911,None,200.024911,None,200.024911,None,200.024911,None,200.024911,None,1,1.26750003,200.024911,None,201.325463,None,201.325463,None,201.325463,None,201.325463,None,201.325463,None,201.325463,None,201.325463,None,205.3102683,None,205.3102683,None,205.3102683,None,205.3102683,None,205.3102683,None,205.3102683,None,205.3102683,None,206.3106571,None,,,,,,,,,,,,,,,,,,,,,,,,,,,,,,24201,2019_Sep_24_1347,Mmi_3levels,3.1.5,60.06908058
,,,1,1,3.7,,,,,,,,,0,0,0,0,0,14,14,1,,,,,,,,,,,,,,,,,,,,,,,,,,,,,,,,,,,,,,,,,,,,,,,,,,,,,,,,,,,,,TRUE,FALSE,TRUE,0.93,-0.07,-0.77,-0.309166667,3.7,3.390833333,1.695416667,gamble,lose,3.390833333,90.0075,208.3493712,None,208.3493712,None,208.3493712,None,208.3493712,None,208.3493712,None,208.3493712,None,208.3493712,None,1,1.646333987,208.3493712,None,210.0287841,None,210.0287841,None,210.0287841,None,210.0287841,None,210.0287841,None,210.0287841,None,210.0287841,None,214.013639,None,214.013639,None,214.013639,None,214.013639,None,214.013639,None,214.013639,None,214.013639,None,223.5172772,None,215.0139817,None,216.014413,None,0.97,7.502804331,219.0155093,None,None,219.0155093,None,,,,,,,,,,,,,,,,,,,24201,2019_Sep_24_1347,Mmi_3levels,3.1.5,60.06908058
,,,1,1,1.1,,,,,,,,,0,0,0,0,0,15,15,14,,,,,,,,,,,,,,,,,,,,,,,,,,,,,,,,,,,,,,,,,,,,,,,,,,,,,,,,,,,,,TRUE,TRUE,FALSE,0.97,-0.03,-0.8,1.22,1.1,-0.12,0.49,gamble,win,1.1,91.1075,225.5346705,None,225.5346705,None,225.5346705,None,225.5346705,None,225.5346705,None,225.5346705,None,225.5346705,None,1,1.250734841,225.5346705,None,226.8184909,None,226.8184909,None,226.8184909,None,226.8184909,None,226.8184909,None,226.8184909,None,226.8184909,None,230.8200233,None,230.8200233,None,230.8200233,None,230.8200233,None,230.8200233,None,230.8200233,None,230.8200233,None,231.8037362,None,,,,,,,,,,,,,,,,,,,,,,,,,,,,,,24201,2019_Sep_24_1347,Mmi_3levels,3.1.5,60.06908058
,,,1,1,13.5,,,,,,,,,0,0,0,0,0,16,16,10,,,,,,,,,,,,,,,,,,,,,,,,,,,,,,,,,,,,,,,,,,,,,,,,,,,,,,,,,,,,,TRUE,TRUE,FALSE,0.97,-0.03,-0.83,1.25,13.5,12.25,6.125,gamble,win,13.5,104.6075,233.821174,None,233.821174,None,233.821174,None,233.821174,None,233.821174,None,233.821174,None,233.821174,None,1,1.000511013,233.821174,None,234.8549127,None,234.8549127,None,234.8549127,None,234.8549127,None,234.8549127,None,234.8549127,None,234.8549127,None,238.8397586,None,238.8397586,None,238.8397586,None,238.8397586,None,238.8397586,None,238.8397586,None,238.8397586,None,248.3434026,None,239.8401682,None,240.8405208,None,0.97,7.502862888,243.8416926,None,None,243.8416926,None,,,,,,,,,,,,,,,,,,,24201,2019_Sep_24_1347,Mmi_3levels,3.1.5,60.06908058
,,,1,1,9.5,,,,,,,,,0,0,0,0,0,17,17,24,,,,,,,,,,,,,,,,,,,,,,,,,,,,,,,,,,,,,,,,,,,,,,,,,,,,,,,,,,,,,TRUE,FALSE,FALSE,0.97,-0.03,-0.86,-0.176666667,9.5,9.323333333,4.661666667,gamble,lose,9.323333333,113.9308333,250.3608743,None,250.3608743,None,250.3608743,None,250.3608743,None,250.3608743,None,250.3608743,None,250.3608743,None,1,1.017282922,250.3608743,None,251.4112796,None,251.4112796,None,251.4112796,None,251.4112796,None,251.4112796,None,251.4112796,None,251.4112796,None,255.3961297,None,255.3961297,None,255.3961297,None,255.3961297,None,255.3961297,None,255.3961297,None,255.3961297,None,256.39649,None,,,,,,,,,,,,,,,,,,,,,,,,,,,,,,24201,2019_Sep_24_1347,Mmi_3levels,3.1.5,60.06908058
,,,1,1,8.1,,,,,,,,,0,0,0,0,0,18,18,9,,,,,,,,,,,,,,,,,,,,,,,,,,,,,,,,,,,,,,,,,,,,,,,,,,,,,,,,,,,,,TRUE,FALSE,TRUE,0.97,-0.03,-0.89,-0.179166667,8.1,7.920833333,3.960416667,gamble,lose,7.920833333,121.8516667,258.4139079,None,258.4139079,None,258.4139079,None,258.4139079,None,258.4139079,None,258.4139079,None,258.4139079,None,1,0.800611552,258.4139079,None,259.2475545,None,259.2475545,None,259.2475545,None,259.2475545,None,259.2475545,None,259.2475545,None,259.2475545,None,263.2491343,None,263.2491343,None,263.2491343,None,263.2491343,None,263.2491343,None,263.2491343,None,263.2491343,None,264.2328363,None,,,,,,,,,,,,,,,,,,,,,,,,,,,,,,24201,2019_Sep_24_1347,Mmi_3levels,3.1.5,60.06908058
,,,1,1,2.1,,,,,,,,,0,0,0,0,0,19,19,13,,,,,,,,,,,,,,,,,,,,,,,,,,,,,,,,,,,,,,,,,,,,,,,,,,,,,,,,,,,,,TRUE,TRUE,TRUE,0.97,-0.03,-0.92,1.34,2.1,0.76,1.43,gamble,win,2.1,123.9516667,266.2502427,None,266.2502427,None,266.2502427,None,266.2502427,None,266.2502427,None,266.2502427,None,266.2502427,None,1,1.20537821,266.2502427,None,267.4887123,None,267.4887123,None,267.4887123,None,267.4887123,None,267.4887123,None,267.4887123,None,267.4887123,None,271.4689405,None,271.4689405,None,271.4689405,None,271.4689405,None,271.4689405,None,271.4689405,None,271.4689405,None,280.9725819,None,272.4693331,None,273.4697114,None,0.97,7.50283185,276.4708166,None,None,276.4708166,None,,,,,,,,,,,,,,,,,,,24201,2019_Sep_24_1347,Mmi_3levels,3.1.5,60.06908058
,,,1,1,10.5,,,,,,,,,0,0,0,0,0,20,20,8,,,,,,,,,,,,,,,,,,,,,,,,,,,,,,,,,,,,,,,,,,,,,,,,,,,,,,,,,,,,,TRUE,TRUE,TRUE,0.97,-0.03,-0.95,1.37,10.5,9.13,4.565,gamble,win,10.5,134.4516667,282.989966,None,282.989966,None,282.989966,None,282.989966,None,282.989966,None,282.989966,None,282.989966,None,1,1.6509811,282.989966,None,284.673994,None,284.673994,None,284.673994,None,284.673994,None,284.673994,None,284.673994,None,284.673994,None,288.6755545,None,288.6755545,None,288.6755545,None,288.6755545,None,288.6755545,None,288.6755545,None,288.6755545,None,289.6592859,None,,,,,,,,,,,,,,,,,,,,,,,,,,,,,,24201,2019_Sep_24_1347,Mmi_3levels,3.1.5,60.06908058
,,,1,1,5.7,,,,,,,,,0,0,0,0,0,21,21,18,,,,,,,,,,,,,,,,,,,,,,,,,,,,,,,,,,,,,,,,,,,,,,,,,,,,,,,,,,,,,TRUE,FALSE,TRUE,0.97,-0.03,-0.98,-0.186666667,5.7,5.513333333,2.756666667,gamble,lose,5.513333333,139.965,291.6766297,None,291.6766297,None,291.6766297,None,291.6766297,None,291.6766297,None,291.6766297,None,291.6766297,None,1,1.484251717,291.6766297,None,293.1939135,None,293.1939135,None,293.1939135,None,293.1939135,None,293.1939135,None,293.1939135,None,293.1939135,None,297.1787787,None,297.1787787,None,297.1787787,None,297.1787787,None,297.1787787,None,297.1787787,None,297.1787787,None,306.6824118,None,298.1791694,None,299.1794989,None,0.97,7.502972962,302.1807296,None,None,302.1807296,None,,,,,,,,,,,,,,,,,,,24201,2019_Sep_24_1347,Mmi_3levels,3.1.5,60.06908058
,,,1,1,10.7,,,,,,,,,0,0,0,0,0,22,22,3,,,,,,,,,,,,,,,,,,,,,,,,,,,,,,,,,,,,,,,,,,,,,,,,,,,,,,,,,,,,,TRUE,TRUE,TRUE,0.97,-0.03,-1.01,1.43,10.7,9.27,4.635,gamble,win,10.7,150.665,308.6998025,None,308.6998025,None,308.6998025,None,308.6998025,None,308.6998025,None,308.6998025,None,308.6998025,None,1,1.184094541,308.6998025,None,309.9169519,None,309.9169519,None,309.9169519,None,309.9169519,None,309.9169519,None,309.9169519,None,309.9169519,None,313.9017902,None,313.9017902,None,313.9017902,None,313.9017902,None,313.9017902,None,313.9017902,None,313.9017902,None,314.9021738,None,,,,,,,,,,,,,,,,,,,,,,,,,,,,,,24201,2019_Sep_24_1347,Mmi_3levels,3.1.5,60.06908058
,,,1,1,-0.5,,,,,,,,,0,0,0,0,0,23,23,22,,,,,,,,,,,,,,,,,,,,,,,,,,,,,,,,,,,,,,,,,,,,,,,,,,,,,,,,,,,,,TRUE,FALSE,TRUE,0.97,-0.03,-1.04,-0.191666667,-0.5,-0.691666667,-0.595833333,certain,certain,-0.595833333,150.0691667,316.9196555,None,316.9196555,None,316.9196555,None,316.9196555,None,316.9196555,None,316.9196555,None,316.9196555,None,3,2.901387318,316.9196555,None,319.8541156,None,319.8541156,None,319.8541156,None,319.8541156,None,319.8541156,None,319.8541156,None,319.8541156,None,323.8556259,None,323.8556259,None,323.8556259,None,323.8556259,None,323.8556259,None,323.8556259,None,323.8556259,None,333.3425514,None,324.8393529,None,325.839686,None,0.98,7.502796971,328.8408325,None,None,328.8408325,None,,,,,,,,,,,,,,,,,,,24201,2019_Sep_24_1347,Mmi_3levels,3.1.5,60.06908058
,,,1,1,-0.9,,,,,,,,,0,0,0,0,0,24,24,4,,,,,,,,,,,,,,,,,,,,,,,,,,,,,,,,,,,,,,,,,,,,,,,,,,,,,,,,,,,,,TRUE,TRUE,TRUE,0.98,-0.02,-1.06,1.34,-0.9,-2.24,-1.57,gamble,win,-0.9,149.1691667,335.3812597,None,335.3812597,None,335.3812597,None,335.3812597,None,335.3812597,None,335.3812597,None,335.3812597,None,1,1.813048011,335.3812597,None,337.2273822,None,337.2273822,None,337.2273822,None,337.2273822,None,337.2273822,None,337.2273822,None,337.2273822,None,341.2289459,None,341.2289459,None,341.2289459,None,341.2289459,None,341.2289459,None,341.2289459,None,341.2289459,None,342.2126127,None,,,,,,,,,,,,,,,,,,,,,,,,,,,,,,24201,2019_Sep_24_1347,Mmi_3levels,3.1.5,60.06908058
,,,1,1,10.1,,,,,,,,,0,0,0,0,0,25,25,26,,,,,,,,,,,,,,,,,,,,,,,,,,,,,,,,,,,,,,,,,,,,,,,,,,,,,,,,,,,,,TRUE,TRUE,FALSE,0.98,-0.02,-1.08,1.36,10.1,8.74,4.37,gamble,win,10.1,159.2691667,344.2300511,None,344.2300511,None,344.2300511,None,344.2300511,None,344.2300511,None,344.2300511,None,344.2300511,None,1,1.317482015,344.2300511,None,345.5805682,None,345.5805682,None,345.5805682,None,345.5805682,None,345.5805682,None,345.5805682,None,345.5805682,None,349.5820977,None,349.5820977,None,349.5820977,None,349.5820977,None,349.5820977,None,349.5820977,None,349.5820977,None,350.5658074,None,,,,,,,,,,,,,,,,,,,,,,,,,,,,,,24201,2019_Sep_24_1347,Mmi_3levels,3.1.5,60.06908058
,,,1,1,4.7,,,,,,,,,0,0,0,0,0,26,26,7,,,,,,,,,,,,,,,,,,,,,,,,,,,,,,,,,,,,,,,,,,,,,,,,,,,,,,,,,,,,,TRUE,FALSE,FALSE,0.98,-0.02,-1.1,-0.161666667,4.7,4.538333333,2.269166667,gamble,lose,4.538333333,163.8075,352.5832932,None,352.5832932,None,352.5832932,None,352.5832932,None,352.5832932,None,352.5832932,None,352.5832932,None,1,0.883930646,352.5832932,None,353.5002656,None,353.5002656,None,353.5002656,None,353.5002656,None,353.5002656,None,353.5002656,None,353.5002656,None,357.4851198,None,357.4851198,None,357.4851198,None,357.4851198,None,357.4851198,None,357.4851198,None,357.4851198,None,366.9887542,None,358.485554,None,359.4859959,None,0.99,7.502760173,362.4870775,None,None,362.4870775,None,,,,,,,,,,,,,,,,,,,24201,2019_Sep_24_1347,Mmi_3levels,3.1.5,60.06908058
,,,2,0,13.1,,,,,,,,,0,1,1,1,0,0,0,16,,,,,,,,,,,,,,,,,,,,,,,,,,,,,,,,,,,,,,,,,,,,,,,,,372.0407089,None,0.98,5.317404579,375.0585534,None,4,2.284235461,375.0585534,None,377.3593764,None,FALSE,FALSE,TRUE,0.98,0.98,0.98,3.511666667,3.275,-0.236666667,1.519166667,gamble,win,3.275,167.0825,380.3818613,None,380.3818613,None,380.3818613,None,380.3818613,None,380.3818613,None,380.3818613,None,380.3818613,None,1,1.99642451,380.3818613,None,382.4113378,None,382.4113378,None,382.4113378,None,382.4113378,None,382.4113378,None,382.4113378,None,382.4113378,None,386.3962193,None,386.3962193,None,386.3962193,None,386.3962193,None,386.3962193,None,386.3962193,None,386.3962193,None,387.3965367,None,,,,,,,,,,,,368.9895142,None,4,3.034734795,368.9895142,None,,,,,,,,,,,,,24201,2019_Sep_24_1347,Mmi_3levels,3.1.5,60.06908058
,,,2,0,3.9,,,,,,,,,0,1,1,1,0,1,1,8,,,,,,,,,,,,,,,,,,,,,,,,,,,,,,,,,,,,,,,,,,,,,,,,,,,,,,,,,,,,,FALSE,TRUE,TRUE,0.98,0.98,1.96,-15.68,0.975,-14.705,-6.865,gamble,lose,-14.705,152.3775,389.4140161,None,389.4140161,None,389.4140161,None,389.4140161,None,389.4140161,None,389.4140161,None,389.4140161,None,1,1.66754278,389.4140161,None,391.1146381,None,391.1146381,None,391.1146381,None,391.1146381,None,391.1146381,None,391.1146381,None,391.1146381,None,395.1162229,None,395.1162229,None,395.1162229,None,395.1162229,None,395.1162229,None,395.1162229,None,395.1162229,None,404.6031852,None,396.0998817,None,397.100266,None,0.83,7.502806251,400.1014471,None,None,400.1014471,None,,,,,,,,,,,,,,,,,,,24201,2019_Sep_24_1347,Mmi_3levels,3.1.5,60.06908058
,,,2,0,6.7,,,,,,,,,0,1,1,1,0,2,2,6,,,,,,,,,,,,,,,,,,,,,,,,,,,,,,,,,,,,,,,,,,,,,,,,,,,,,,,,,,,,,FALSE,FALSE,FALSE,0.83,0.83,2.79,3.1375,1.675,-1.4625,0.10625,gamble,win,1.675,154.0525,406.6206186,None,406.6206186,None,406.6206186,None,406.6206186,None,406.6206186,None,406.6206186,None,406.6206186,None,1,1.417457505,406.6206186,None,408.0711553,None,408.0711553,None,408.0711553,None,408.0711553,None,408.0711553,None,408.0711553,None,408.0711553,None,412.0726573,None,412.0726573,None,412.0726573,None,412.0726573,None,412.0726573,None,412.0726573,None,412.0726573,None,413.0564098,None,,,,,,,,,,,,,,,,,,,,,,,,,,,,,,24201,2019_Sep_24_1347,Mmi_3levels,3.1.5,60.06908058
,,,2,0,11.5,,,,,,,,,0,1,1,1,0,3,3,1,,,,,,,,,,,,,,,,,,,,,,,,,,,,,,,,,,,,,,,,,,,,,,,,,,,,,,,,,,,,,FALSE,TRUE,TRUE,0.83,0.83,3.62,-15.24,2.875,-12.365,-4.745,gamble,lose,-12.365,141.6875,415.073799,None,415.073799,None,415.073799,None,415.073799,None,415.073799,None,415.073799,None,415.073799,None,None,,415.073799,None,418.1250593,None,418.1250593,None,418.1250593,None,418.1250593,None,418.1250593,None,418.1250593,None,418.1250593,None,422.0765262,None,422.0765262,None,422.0765262,None,422.0765262,None,422.0765262,None,422.0765262,None,422.0765262,None,431.5634869,None,423.0601898,None,424.0606182,None,0.74,7.502757294,427.0617692,None,None,427.0617692,None,,,,,,,,,,,,,,,,,,,24201,2019_Sep_24_1347,Mmi_3levels,3.1.5,60.06908058
,,,2,0,7.3,,,,,,,,,0,1,1,1,0,4,4,12,,,,,,,,,,,,,,,,,,,,,,,,,,,,,,,,,,,,,,,,,,,,,,,,,,,,,,,,,,,,,FALSE,TRUE,FALSE,0.74,0.74,4.36,-14.72,1.825,-12.895,-5.535,certain,certain,-5.535,136.1525,433.6021597,None,433.6021597,None,433.6021597,None,433.6021597,None,433.6021597,None,433.6021597,None,433.6021597,None,3,1.779689783,433.6021597,None,435.4149613,None,435.4149613,None,435.4149613,None,435.4149613,None,435.4149613,None,435.4149613,None,435.4149613,None,439.4164432,None,439.4164432,None,439.4164432,None,439.4164432,None,439.4164432,None,439.4164432,None,439.4164432,None,440.4001525,None,,,,,,,,,,,,,,,,,,,,,,,,,,,,,,24201,2019_Sep_24_1347,Mmi_3levels,3.1.5,60.06908058
,,,2,0,-0.5,,,,,,,,,0,1,1,1,0,5,5,20,,,,,,,,,,,,,,,,,,,,,,,,,,,,,,,,,,,,,,,,,,,,,,,,,,,,,,,,,,,,,FALSE,TRUE,TRUE,0.74,0.74,5.1,-15.46,-0.125,-15.585,-7.855,gamble,lose,-15.585,120.5675,442.4175903,None,442.4175903,None,442.4175903,None,442.4175903,None,442.4175903,None,442.4175903,None,442.4175903,None,1,2.834696141,442.4175903,None,445.2853797,None,445.2853797,None,445.2853797,None,445.2853797,None,445.2853797,None,445.2853797,None,445.2853797,None,449.2868833,None,449.2868833,None,449.2868833,None,449.2868833,None,449.2868833,None,449.2868833,None,449.2868833,None,450.2706387,None,,,,,,,,,,,,,,,,,,,,,,,,,,,,,,24201,2019_Sep_24_1347,Mmi_3levels,3.1.5,60.06908058
,,,2,0,5.1,,,,,,,,,0,1,1,1,0,6,6,18,,,,,,,,,,,,,,,,,,,,,,,,,,,,,,,,,,,,,,,,,,,,,,,,,,,,,,,,,,,,,FALSE,TRUE,FALSE,0.74,0.74,5.84,-16.2,1.275,-14.925,-6.825,certain,certain,-6.825,113.7425,452.2880826,None,452.2880826,None,452.2880826,None,452.2880826,None,452.2880826,None,452.2880826,None,452.2880826,None,3,2.367935975,452.2880826,None,454.6889951,None,454.6889951,None,454.6889951,None,454.6889951,None,454.6889951,None,454.6889951,None,454.6889951,None,458.690482,None,458.690482,None,458.690482,None,458.690482,None,458.690482,None,458.690482,None,458.690482,None,468.1774703,None,459.6741901,None,460.6745472,None,0.75,7.502841129,463.6757667,None,None,463.6757667,None,,,,,,,,,,,,,,,,,,,24201,2019_Sep_24_1347,Mmi_3levels,3.1.5,60.06908058
,,,2,0,10.7,,,,,,,,,0,1,1,1,0,7,7,3,,,,,,,,,,,,,,,,,,,,,,,,,,,,,,,,,,,,,,,,,,,,,,,,,,,,,,,,,,,,,FALSE,TRUE,FALSE,0.75,0.75,6.59,-17.09,2.675,-14.415,-5.87,gamble,lose,-14.415,99.3275,470.1949247,None,470.1949247,None,470.1949247,None,470.1949247,None,470.1949247,None,470.1949247,None,470.1949247,None,1,2.551236638,470.1949247,None,472.7792008,None,472.7792008,None,472.7792008,None,472.7792008,None,472.7792008,None,472.7792008,None,472.7792008,None,476.7641357,None,476.7641357,None,476.7641357,None,476.7641357,None,476.7641357,None,476.7641357,None,476.7641357,None,477.7644861,None,,,,,,,,,,,,,,,,,,,,,,,,,,,,,,24201,2019_Sep_24_1347,Mmi_3levels,3.1.5,60.06908058
,,,2,0,-1.1,,,,,,,,,0,1,1,1,0,8,8,9,,,,,,,,,,,,,,,,,,,,,,,,,,,,,,,,,,,,,,,,,,,,,,,,,,,,,,,,,,,,,FALSE,TRUE,FALSE,0.75,0.75,7.34,-17.84,-0.275,-18.115,-9.195,certain,certain,-9.195,90.1325,479.781874,None,479.781874,None,479.781874,None,479.781874,None,479.781874,None,479.781874,None,479.781874,None,3,1.984442106,479.781874,None,481.7993166,None,481.7993166,None,481.7993166,None,481.7993166,None,481.7993166,None,481.7993166,None,481.7993166,None,485.80084,None,485.80084,None,485.80084,None,485.80084,None,485.80084,None,485.80084,None,485.80084,None,495.2878039,None,486.7845545,None,487.7849369,None,0.74,7.502811371,490.7861266,None,None,490.7861266,None,,,,,,,,,,,,,,,,,,,24201,2019_Sep_24_1347,Mmi_3levels,3.1.5,60.06908058
,,,2,0,-0.9,,,,,,,,,0,1,1,1,0,9,9,4,,,,,,,,,,,,,,,,,,,,,,,,,,,,,,,,,,,,,,,,,,,,,,,,,,,,,,,,,,,,,FALSE,TRUE,TRUE,0.74,0.74,8.08,-18.44,-0.225,-18.665,-9.445,gamble,lose,-18.665,71.4675,497.3265823,None,497.3265823,None,497.3265823,None,497.3265823,None,497.3265823,None,497.3265823,None,497.3265823,None,None,,497.3265823,None,500.3230654,None,500.3230654,None,500.3230654,None,500.3230654,None,500.3230654,None,500.3230654,None,500.3230654,None,504.3079638,None,504.3079638,None,504.3079638,None,504.3079638,None,504.3079638,None,504.3079638,None,504.3079638,None,505.3083494,None,,,,,,,,,,,,,,,,,,,,,,,,,,,,,,24201,2019_Sep_24_1347,Mmi_3levels,3.1.5,60.06908058
,,,2,0,8.5,,,,,,,,,0,1,1,1,0,10,10,13,,,,,,,,,,,,,,,,,,,,,,,,,,,,,,,,,,,,,,,,,,,,,,,,,,,,,,,,,,,,,FALSE,TRUE,FALSE,0.74,0.74,8.82,-19.18,2.125,-17.055,-7.465,certain,certain,-7.465,64.0025,507.3257821,None,507.3257821,None,507.3257821,None,507.3257821,None,507.3257821,None,507.3257821,None,507.3257821,None,3,2.918085951,507.3257821,None,510.2769123,None,510.2769123,None,510.2769123,None,510.2769123,None,510.2769123,None,510.2769123,None,510.2769123,None,514.2784211,None,514.2784211,None,514.2784211,None,514.2784211,None,514.2784211,None,514.2784211,None,514.2784211,None,515.2621128,None,,,,,,,,,,,,,,,,,,,,,,,,,,,,,,24201,2019_Sep_24_1347,Mmi_3levels,3.1.5,60.06908058
,,,2,0,2.1,,,,,,,,,0,1,1,1,0,11,11,17,,,,,,,,,,,,,,,,,,,,,,,,,,,,,,,,,,,,,,,,,,,,,,,,,,,,,,,,,,,,,FALSE,FALSE,FALSE,0.74,0.74,9.56,3.386666667,0.525,-2.861666667,-1.168333333,gamble,win,0.525,64.5275,517.2796245,None,517.2796245,None,517.2796245,None,517.2796245,None,517.2796245,None,517.2796245,None,517.2796245,None,1,2.434501079,517.2796245,None,519.7472592,None,519.7472592,None,519.7472592,None,519.7472592,None,519.7472592,None,519.7472592,None,519.7472592,None,523.7487922,None,523.7487922,None,523.7487922,None,523.7487922,None,523.7487922,None,523.7487922,None,523.7487922,None,533.235704,None,524.7324433,None,525.7328289,None,0.74,7.502793132,528.7339281,None,None,528.7339281,None,,,,,,,,,,,,,,,,,,,24201,2019_Sep_24_1347,Mmi_3levels,3.1.5,60.06908058
,,,2,0,10.5,,,,,,,,,0,1,1,1,0,12,12,5,,,,,,,,,,,,,,,,,,,,,,,,,,,,,,,,,,,,,,,,,,,,,,,,,,,,,,,,,,,,,FALSE,TRUE,FALSE,0.74,0.74,10.3,-20.66,2.625,-18.035,-7.705,gamble,lose,-18.035,46.4925,535.253119,None,535.253119,None,535.253119,None,535.253119,None,535.253119,None,535.253119,None,535.253119,None,1,2.201114437,535.253119,None,537.4872714,None,537.4872714,None,537.4872714,None,537.4872714,None,537.4872714,None,537.4872714,None,537.4872714,None,541.472132,None,541.472132,None,541.472132,None,541.472132,None,541.472132,None,541.472132,None,541.472132,None,542.4725135,None,,,,,,,,,,,,,,,,,,,,,,,,,,,,,,24201,2019_Sep_24_1347,Mmi_3levels,3.1.5,60.06908058
,,,2,0,7.7,,,,,,,,,0,1,1,1,0,13,13,26,,,,,,,,,,,,,,,,,,,,,,,,,,,,,,,,,,,,,,,,,,,,,,,,,,,,,,,,,,,,,FALSE,TRUE,FALSE,0.74,0.74,11.04,-21.4,1.925,-19.475,-8.775,certain,certain,-8.775,37.7175,544.4899932,None,544.4899932,None,544.4899932,None,544.4899932,None,544.4899932,None,544.4899932,None,544.4899932,None,3,2.117713107,544.4899932,None,546.6407704,None,546.6407704,None,546.6407704,None,546.6407704,None,546.6407704,None,546.6407704,None,546.6407704,None,550.6423569,None,550.6423569,None,550.6423569,None,550.6423569,None,550.6423569,None,550.6423569,None,550.6423569,None,560.1293119,None,551.6260627,None,552.6264419,None,0.77,7.502745454,555.6275907,None,None,555.6275907,None,,,,,,,,,,,,,,,,,,,24201,2019_Sep_24_1347,Mmi_3levels,3.1.5,60.06908058
,,,2,0,3.5,,,,,,,,,0,1,1,1,0,14,14,7,,,,,,,,,,,,,,,,,,,,,,,,,,,,,,,,,,,,,,,,,,,,,,,,,,,,,,,,,,,,,FALSE,FALSE,FALSE,0.77,0.77,11.81,3.679166667,0.875,-2.804166667,-0.964583333,certain,certain,-0.964583333,36.75291667,562.1680439,None,562.1680439,None,562.1680439,None,562.1680439,None,562.1680439,None,562.1680439,None,562.1680439,None,3,2.313193923,562.1680439,None,564.5142773,None,564.5142773,None,564.5142773,None,564.5142773,None,564.5142773,None,564.5142773,None,564.5142773,None,568.5158456,None,568.5158456,None,568.5158456,None,568.5158456,None,568.5158456,None,568.5158456,None,568.5158456,None,569.4995575,None,,,,,,,,,,,,,,,,,,,,,,,,,,,,,,24201,2019_Sep_24_1347,Mmi_3levels,3.1.5,60.06908058
,,,2,0,-0.1,,,,,,,,,0,1,1,1,0,15,15,11,,,,,,,,,,,,,,,,,,,,,,,,,,,,,,,,,,,,,,,,,,,,,,,,,,,,,,,,,,,,,FALSE,TRUE,FALSE,0.77,0.77,12.58,-23.36,-0.025,-23.385,-11.705,gamble,lose,-23.385,13.36791667,571.5169751,None,571.5169751,None,571.5169751,None,571.5169751,None,571.5169751,None,571.5169751,None,571.5169751,None,1,2.617952774,571.5169751,None,574.1680138,None,574.1680138,None,574.1680138,None,574.1680138,None,574.1680138,None,574.1680138,None,574.1680138,None,578.1695968,None,578.1695968,None,578.1695968,None,578.1695968,None,578.1695968,None,578.1695968,None,578.1695968,None,587.6565587,None,579.1532731,None,580.1535918,None,0.74,7.502798891,583.1547847,None,None,583.1547847,None,,,,,,,,,,,,,,,,,,,24201,2019_Sep_24_1347,Mmi_3levels,3.1.5,60.06908058
,,,2,0,-1.3,,,,,,,,,0,1,1,1,0,16,16,25,,,,,,,,,,,,,,,,,,,,,,,,,,,,,,,,,,,,,,,,,,,,,,,,,,,,,,,,,,,,,FALSE,FALSE,FALSE,0.74,0.74,13.32,3.7,-0.325,-4.025,-2.175,certain,certain,-2.175,11.19291667,589.6739428,None,589.6739428,None,589.6739428,None,589.6739428,None,589.6739428,None,589.6739428,None,589.6739428,None,3,1.867684149,589.6739428,None,591.5747058,None,591.5747058,None,591.5747058,None,591.5747058,None,591.5747058,None,591.5747058,None,591.5747058,None,595.5761473,None,595.5761473,None,595.5761473,None,595.5761473,None,595.5761473,None,595.5761473,None,595.5761473,None,596.5598608,None,,,,,,,,,,,,,,,,,,,,,,,,,,,,,,24201,2019_Sep_24_1347,Mmi_3levels,3.1.5,60.06908058
,,,2,0,3.3,,,,,,,,,0,1,1,1,0,17,17,22,,,,,,,,,,,,,,,,,,,,,,,,,,,,,,,,,,,,,,,,,,,,,,,,,,,,,,,,,,,,,FALSE,FALSE,TRUE,0.74,0.74,14.06,3.761666667,0.825,-2.936666667,-1.055833333,certain,certain,-1.055833333,10.13708333,598.5773002,None,598.5773002,None,598.5773002,None,598.5773002,None,598.5773002,None,598.5773002,None,598.5773002,None,3,1.86746304,598.5773002,None,600.4780268,None,600.4780268,None,600.4780268,None,600.4780268,None,600.4780268,None,600.4780268,None,600.4780268,None,604.4795803,None,604.4795803,None,604.4795803,None,604.4795803,None,604.4795803,None,604.4795803,None,604.4795803,None,605.4633146,None,,,,,,,,,,,,,,,,,,,,,,,,,,,,,,24201,2019_Sep_24_1347,Mmi_3levels,3.1.5,60.06908058
,,,2,0,9.3,,,,,,,,,0,1,1,1,0,18,18,10,,,,,,,,,,,,,,,,,,,,,,,,,,,,,,,,,,,,,,,,,,,,,,,,,,,,,,,,,,,,,FALSE,FALSE,FALSE,0.74,0.74,14.8,3.823333333,2.325,-1.498333333,0.413333333,gamble,win,2.325,12.46208333,607.4807373,None,607.4807373,None,607.4807373,None,607.4807373,None,607.4807373,None,607.4807373,None,607.4807373,None,1,1.550843379,607.4807373,None,609.0646398,None,609.0646398,None,609.0646398,None,609.0646398,None,609.0646398,None,609.0646398,None,609.0646398,None,613.0495023,None,613.0495023,None,613.0495023,None,613.0495023,None,613.0495023,None,613.0495023,None,613.0495023,None,622.5531857,None,614.0499343,None,615.050309,None,0.83,7.50281425,618.0514568,None,None,618.0514568,None,,,,,,,,,,,,,,,,,,,24201,2019_Sep_24_1347,Mmi_3levels,3.1.5,60.06908058
,,,2,0,3.7,,,,,,,,,0,1,1,1,0,19,19,14,,,,,,,,,,,,,,,,,,,,,,,,,,,,,,,,,,,,,,,,,,,,,,,,,,,,,,,,,,,,,FALSE,TRUE,TRUE,0.83,0.83,15.63,-27.25,0.925,-26.325,-12.7,gamble,lose,-26.325,-13.86291667,624.5918457,None,624.5918457,None,624.5918457,None,624.5918457,None,624.5918457,None,624.5918457,None,624.5918457,None,1,2.213224193,624.5918457,None,626.8381046,None,626.8381046,None,626.8381046,None,626.8381046,None,626.8381046,None,626.8381046,None,626.8381046,None,630.8396789,None,630.8396789,None,630.8396789,None,630.8396789,None,630.8396789,None,630.8396789,None,630.8396789,None,631.8233531,None,,,,,,,,,,,,,,,,,,,,,,,,,,,,,,24201,2019_Sep_24_1347,Mmi_3levels,3.1.5,60.06908058
,,,2,0,6.3,,,,,,,,,0,1,1,1,0,20,20,23,,,,,,,,,,,,,,,,,,,,,,,,,,,,,,,,,,,,,,,,,,,,,,,,,,,,,,,,,,,,,FALSE,TRUE,FALSE,0.83,0.83,16.46,-28.08,1.575,-26.505,-12.465,certain,certain,-12.465,-26.32791667,633.8408254,None,633.8408254,None,633.8408254,None,633.8408254,None,633.8408254,None,633.8408254,None,633.8408254,None,3,2.601260221,633.8408254,None,636.4751696,None,636.4751696,None,636.4751696,None,636.4751696,None,636.4751696,None,636.4751696,None,636.4751696,None,640.476656,None,640.476656,None,640.476656,None,640.476656,None,640.476656,None,640.476656,None,640.476656,None,649.9636647,None,641.4603669,None,642.4607634,None,0.7,7.502986081,645.4619438,None,None,645.4619438,None,,,,,,,,,,,,,,,,,,,24201,2019_Sep_24_1347,Mmi_3levels,3.1.5,60.06908058
,,,2,0,9.9,,,,,,,,,0,1,1,1,0,21,21,15,,,,,,,,,,,,,,,,,,,,,,,,,,,,,,,,,,,,,,,,,,,,,,,,,,,,,,,,,,,,,FALSE,FALSE,FALSE,0.7,0.7,17.16,3.88,2.475,-1.405,0.535,gamble,win,2.475,-23.85291667,651.9810541,None,651.9810541,None,651.9810541,None,651.9810541,None,651.9810541,None,651.9810541,None,651.9810541,None,1,2.167789807,651.9810541,None,654.1819039,None,654.1819039,None,654.1819039,None,654.1819039,None,654.1819039,None,654.1819039,None,654.1819039,None,658.1667447,None,658.1667447,None,658.1667447,None,658.1667447,None,658.1667447,None,658.1667447,None,658.1667447,None,659.1671367,None,,,,,,,,,,,,,,,,,,,,,,,,,,,,,,24201,2019_Sep_24_1347,Mmi_3levels,3.1.5,60.06908058
,,,2,0,-0.7,,,,,,,,,0,1,1,1,0,22,22,2,,,,,,,,,,,,,,,,,,,,,,,,,,,,,,,,,,,,,,,,,,,,,,,,,,,,,,,,,,,,,FALSE,FALSE,FALSE,0.7,0.7,17.86,3.938333333,-0.175,-4.113333333,-2.144166667,certain,certain,-2.144166667,-25.99708333,661.184618,None,661.184618,None,661.184618,None,661.184618,None,661.184618,None,661.184618,None,661.184618,None,3,2.851305499,661.184618,None,664.0690091,None,664.0690091,None,664.0690091,None,664.0690091,None,664.0690091,None,664.0690091,None,664.0690091,None,668.070539,None,668.070539,None,668.070539,None,668.070539,None,668.070539,None,668.070539,None,668.070539,None,677.5575499,None,669.0542611,None,670.0546329,None,0.7,7.502876327,673.0557772,None,None,673.0557772,None,,,,,,,,,,,,,,,,,,,24201,2019_Sep_24_1347,Mmi_3levels,3.1.5,60.06908058
,,,2,0,11.3,,,,,,,,,0,1,1,1,0,23,23,21,,,,,,,,,,,,,,,,,,,,,,,,,,,,,,,,,,,,,,,,,,,,,,,,,,,,,,,,,,,,,FALSE,TRUE,FALSE,0.7,0.7,18.56,-28.36,2.825,-25.535,-11.355,certain,certain,-11.355,-37.35208333,679.5962304,None,679.5962304,None,679.5962304,None,679.5962304,None,679.5962304,None,679.5962304,None,679.5962304,None,3,1.879746548,679.5962304,None,681.5090139,None,681.5090139,None,681.5090139,None,681.5090139,None,681.5090139,None,681.5090139,None,681.5090139,None,685.5105646,None,685.5105646,None,685.5105646,None,685.5105646,None,685.5105646,None,685.5105646,None,685.5105646,None,686.4942989,None,,,,,,,,,,,,,,,,,,,,,,,,,,,,,,24201,2019_Sep_24_1347,Mmi_3levels,3.1.5,60.06908058
,,,2,0,13.7,,,,,,,,,0,1,1,1,0,24,24,0,,,,,,,,,,,,,,,,,,,,,,,,,,,,,,,,,,,,,,,,,,,,,,,,,,,,,,,,,,,,,FALSE,TRUE,TRUE,0.7,0.7,19.26,-29.06,3.425,-25.635,-11.105,certain,certain,-11.105,-48.45708333,688.5116903,None,688.5116903,None,688.5116903,None,688.5116903,None,688.5116903,None,688.5116903,None,688.5116903,None,3,1.634258148,688.5116903,None,690.1790414,None,690.1790414,None,690.1790414,None,690.1790414,None,690.1790414,None,690.1790414,None,690.1790414,None,694.1805517,None,694.1805517,None,694.1805517,None,694.1805517,None,694.1805517,None,694.1805517,None,694.1805517,None,695.1642799,None,,,,,,,,,,,,,,,,,,,,,,,,,,,,,,24201,2019_Sep_24_1347,Mmi_3levels,3.1.5,60.06908058
,,,2,0,5.9,,,,,,,,,0,1,1,1,0,25,25,19,,,,,,,,,,,,,,,,,,,,,,,,,,,,,,,,,,,,,,,,,,,,,,,,,,,,,,,,,,,,,FALSE,TRUE,FALSE,0.7,0.7,19.96,-29.76,1.475,-28.285,-13.405,gamble,lose,-28.285,-76.74208333,697.1816694,None,697.1816694,None,697.1816694,None,697.1816694,None,697.1816694,None,697.1816694,None,697.1816694,None,None,,697.1816694,None,700.182822,None,700.182822,None,700.182822,None,700.182822,None,700.182822,None,700.182822,None,700.182822,None,704.1844011,None,704.1844011,None,704.1844011,None,704.1844011,None,704.1844011,None,704.1844011,None,704.1844011,None,713.6713602,None,705.1680618,None,706.168488,None,0.71,7.502748014,709.1696681,None,None,709.1696681,None,,,,,,,,,,,,,,,,,,,24201,2019_Sep_24_1347,Mmi_3levels,3.1.5,60.06908058
,,,2,0,4.3,,,,,,,,,0,1,1,1,0,26,26,24,,,,,,,,,,,,,,,,,,,,,,,,,,,,,,,,,,,,,,,,,,,,,,,,,,,,,,,,,,,,,FALSE,TRUE,TRUE,0.71,0.71,20.67,-30.61,1.075,-29.535,-14.23,certain,certain,-14.23,-90.97208333,715.6887465,None,715.6887465,None,715.6887465,None,715.6887465,None,715.6887465,None,715.6887465,None,715.6887465,None,3,1.25056013,715.6887465,None,716.972572,None,716.972572,None,716.972572,None,716.972572,None,716.972572,None,716.972572,None,716.972572,None,720.9741047,None,720.9741047,None,720.9741047,None,720.9741047,None,720.9741047,None,720.9741047,None,720.9741047,None,721.9578586,None,,,,,,,,,,,,,,,,,,,,,,,,,,,,,,24201,2019_Sep_24_1347,Mmi_3levels,3.1.5,60.06908058
,,,3,1,10.1,,,,,,,,,0,2,2,2,0,0,0,13,,,,,,,,,,,,,,,,,,,,,,,,,,,,,,,,,,,,,,,,,,,,,,,,,806.5401911,None,0.73,7.501997334,809.5579796,None,None,,809.5579796,None,814.0430252,None,TRUE,TRUE,TRUE,0.73,-0.27,-0.27,4.05,10.1,6.05,3.025,gamble,win,10.1,-80.87208333,817.077561,None,817.077561,None,817.077561,None,817.077561,None,817.077561,None,817.077561,None,817.077561,None,1,1.117180655,817.077561,None,818.2280068,None,818.2280068,None,818.2280068,None,818.2280068,None,818.2280068,None,818.2280068,None,818.2280068,None,822.2341242,None,822.2341242,None,822.2341242,None,822.2341242,None,822.2341242,None,822.2341242,None,822.2341242,None,831.7164451,None,823.213196,None,824.2135797,None,0.73,7.502754734,827.2147275,None,None,827.2147275,None,723.9585705,None,4,82.56520998,723.9585705,None,,,,,,,,,,,,,24201,2019_Sep_24_1347,Mmi_3levels,3.1.5,60.06908058
,,,3,1,9.7,,,,,,,,,0,2,2,2,0,1,1,6,,,,,,,,,,,,,,,,,,,,,,,,,,,,,,,,,,,,,,,,,,,,,,,,,,,,,,,,,,,,,TRUE,TRUE,TRUE,0.73,-0.27,-0.54,4.32,9.7,5.38,2.69,gamble,win,9.7,-71.17208333,833.7339789,None,833.7339789,None,833.7339789,None,833.7339789,None,833.7339789,None,833.7339789,None,833.7339789,None,1,0.933905591,833.7339789,None,834.7009532,None,834.7009532,None,834.7009532,None,834.7009532,None,834.7009532,None,834.7009532,None,834.7009532,None,838.6857764,None,838.6857764,None,838.6857764,None,838.6857764,None,838.6857764,None,838.6857764,None,838.6857764,None,839.6861607,None,,,,,,,,,,,,,,,,,,,,,,,,,,,,,,24201,2019_Sep_24_1347,Mmi_3levels,3.1.5,60.06908058
,,,3,1,7.9,,,,,,,,,0,2,2,2,0,2,2,26,,,,,,,,,,,,,,,,,,,,,,,,,,,,,,,,,,,,,,,,,,,,,,,,,,,,,,,,,,,,,TRUE,TRUE,TRUE,0.73,-0.27,-0.81,4.59,7.9,3.31,1.655,gamble,win,7.9,-63.27208333,841.7036033,None,841.7036033,None,841.7036033,None,841.7036033,None,841.7036033,None,841.7036033,None,841.7036033,None,1,0.750542851,841.7036033,None,842.487234,None,842.487234,None,842.487234,None,842.487234,None,842.487234,None,842.487234,None,842.487234,None,846.4720895,None,846.4720895,None,846.4720895,None,846.4720895,None,846.4720895,None,846.4720895,None,846.4720895,None,847.4725186,None,,,,,,,,,,,,,,,,,,,,,,,,,,,,,,24201,2019_Sep_24_1347,Mmi_3levels,3.1.5,60.06908058
,,,3,1,10.5,,,,,,,,,0,2,2,2,0,3,3,23,,,,,,,,,,,,,,,,,,,,,,,,,,,,,,,,,,,,,,,,,,,,,,,,,,,,,,,,,,,,,TRUE,TRUE,FALSE,0.73,-0.27,-1.08,4.86,10.5,5.64,2.82,gamble,win,10.5,-52.77208333,849.489909,None,849.489909,None,849.489909,None,849.489909,None,849.489909,None,849.489909,None,849.489909,None,1,0.750593089,849.489909,None,850.2735931,None,850.2735931,None,850.2735931,None,850.2735931,None,850.2735931,None,850.2735931,None,850.2735931,None,854.2584637,None,854.2584637,None,854.2584637,None,854.2584637,None,854.2584637,None,854.2584637,None,854.2584637,None,863.7620322,None,855.2587824,None,856.2591667,None,0.74,7.50282417,859.2603132,None,None,859.2603132,None,,,,,,,,,,,,,,,,,,,24201,2019_Sep_24_1347,Mmi_3levels,3.1.5,60.06908058
,,,3,1,6.7,,,,,,,,,0,2,2,2,0,4,4,7,,,,,,,,,,,,,,,,,,,,,,,,,,,,,,,,,,,,,,,,,,,,,,,,,,,,,,,,,,,,,TRUE,TRUE,TRUE,0.74,-0.26,-1.34,4.98,6.7,1.72,0.86,gamble,win,6.7,-46.07208333,865.7794664,None,865.7794664,None,865.7794664,None,865.7794664,None,865.7794664,None,865.7794664,None,865.7794664,None,1,1.400805589,865.7794664,None,867.2133551,None,867.2133551,None,867.2133551,None,867.2133551,None,867.2133551,None,867.2133551,None,867.2133551,None,871.1982381,None,871.1982381,None,871.1982381,None,871.1982381,None,871.1982381,None,871.1982381,None,871.1982381,None,872.1985962,None,,,,,,,,,,,,,,,,,,,,,,,,,,,,,,24201,2019_Sep_24_1347,Mmi_3levels,3.1.5,60.06908058
,,,3,1,10.3,,,,,,,,,0,2,2,2,0,5,5,14,,,,,,,,,,,,,,,,,,,,,,,,,,,,,,,,,,,,,,,,,,,,,,,,,,,,,,,,,,,,,TRUE,FALSE,TRUE,0.74,-0.26,-1.6,-1.043333333,10.3,9.256666667,4.628333333,gamble,lose,9.256666667,-36.81541667,874.2160864,None,874.2160864,None,874.2160864,None,874.2160864,None,874.2160864,None,874.2160864,None,874.2160864,None,1,1.31739466,874.2160864,None,875.5665494,None,875.5665494,None,875.5665494,None,875.5665494,None,875.5665494,None,875.5665494,None,875.5665494,None,879.5513995,None,879.5513995,None,879.5513995,None,879.5513995,None,879.5513995,None,879.5513995,None,879.5513995,None,889.0550524,None,880.5517886,None,881.5521691,None,0.83,7.502848169,884.5533648,None,None,884.5533648,None,,,,,,,,,,,,,,,,,,,24201,2019_Sep_24_1347,Mmi_3levels,3.1.5,60.06908058
,,,3,1,12.5,,,,,,,,,0,2,2,2,0,6,6,17,,,,,,,,,,,,,,,,,,,,,,,,,,,,,,,,,,,,,,,,,,,,,,,,,,,,,,,,,,,,,TRUE,TRUE,FALSE,0.83,-0.17,-1.77,4.15,12.5,8.35,4.175,gamble,win,12.5,-24.31541667,891.093763,None,891.093763,None,891.093763,None,891.093763,None,891.093763,None,891.093763,None,891.093763,None,1,1.329486178,891.093763,None,892.4563361,None,892.4563361,None,892.4563361,None,892.4563361,None,892.4563361,None,892.4563361,None,892.4563361,None,896.4578685,None,896.4578685,None,896.4578685,None,896.4578685,None,896.4578685,None,896.4578685,None,896.4578685,None,897.4415775,None,,,,,,,,,,,,,,,,,,,,,,,,,,,,,,24201,2019_Sep_24_1347,Mmi_3levels,3.1.5,60.06908058
,,,3,1,2.7,,,,,,,,,0,2,2,2,0,7,7,18,,,,,,,,,,,,,,,,,,,,,,,,,,,,,,,,,,,,,,,,,,,,,,,,,,,,,,,,,,,,,TRUE,TRUE,TRUE,0.83,-0.17,-1.94,4.32,2.7,-1.62,0.54,gamble,win,2.7,-21.61541667,899.4590089,None,899.4590089,None,899.4590089,None,899.4590089,None,899.4590089,None,899.4590089,None,899.4590089,None,1,2.084450234,899.4590089,None,901.5765412,None,901.5765412,None,901.5765412,None,901.5765412,None,901.5765412,None,901.5765412,None,901.5765412,None,905.5613935,None,905.5613935,None,905.5613935,None,905.5613935,None,905.5613935,None,905.5613935,None,905.5613935,None,915.065026,None,906.561733,None,907.5621161,None,0.81,7.502807211,910.5633096,None,None,910.5633096,None,,,,,,,,,,,,,,,,,,,24201,2019_Sep_24_1347,Mmi_3levels,3.1.5,60.06908058
,,,3,1,6.5,,,,,,,,,0,2,2,2,0,8,8,10,,,,,,,,,,,,,,,,,,,,,,,,,,,,,,,,,,,,,,,,,,,,,,,,,,,,,,,,,,,,,TRUE,TRUE,FALSE,0.81,-0.19,-2.13,4.79,6.5,1.71,0.855,gamble,win,6.5,-15.11541667,917.0824708,None,917.0824708,None,917.0824708,None,917.0824708,None,917.0824708,None,917.0824708,None,917.0824708,None,1,1.55082802,917.0824708,None,918.6663572,None,918.6663572,None,918.6663572,None,918.6663572,None,918.6663572,None,918.6663572,None,918.6663572,None,922.6512128,None,922.6512128,None,922.6512128,None,922.6512128,None,922.6512128,None,922.6512128,None,922.6512128,None,923.6517017,None,,,,,,,,,,,,,,,,,,,,,,,,,,,,,,24201,2019_Sep_24_1347,Mmi_3levels,3.1.5,60.06908058
,,,3,1,6.1,,,,,,,,,0,2,2,2,0,9,9,11,,,,,,,,,,,,,,,,,,,,,,,,,,,,,,,,,,,,,,,,,,,,,,,,,,,,,,,,,,,,,TRUE,TRUE,FALSE,0.81,-0.19,-2.32,4.98,6.1,1.12,0.56,gamble,win,6.1,-9.015416667,925.6690854,None,925.6690854,None,925.6690854,None,925.6690854,None,925.6690854,None,925.6690854,None,925.6690854,None,1,1.617556635,925.6690854,None,927.3196928,None,927.3196928,None,927.3196928,None,927.3196928,None,927.3196928,None,927.3196928,None,927.3196928,None,931.3045653,None,931.3045653,None,931.3045653,None,931.3045653,None,931.3045653,None,931.3045653,None,931.3045653,None,932.3049531,None,,,,,,,,,,,,,,,,,,,,,,,,,,,,,,24201,2019_Sep_24_1347,Mmi_3levels,3.1.5,60.06908058
,,,3,1,8.1,,,,,,,,,0,2,2,2,0,10,10,12,,,,,,,,,,,,,,,,,,,,,,,,,,,,,,,,,,,,,,,,,,,,,,,,,,,,,,,,,,,,,TRUE,TRUE,TRUE,0.81,-0.19,-2.51,5.17,8.1,2.93,1.465,gamble,win,8.1,-0.915416667,934.322397,None,934.322397,None,934.322397,None,934.322397,None,934.322397,None,934.322397,None,934.322397,None,1,1.467466368,934.322397,None,935.8229716,None,935.8229716,None,935.8229716,None,935.8229716,None,935.8229716,None,935.8229716,None,935.8229716,None,939.8078569,None,939.8078569,None,939.8078569,None,939.8078569,None,939.8078569,None,939.8078569,None,939.8078569,None,949.3114574,None,940.8082038,None,941.8085897,None,0.84,7.502833449,944.809717,None,None,944.809717,None,,,,,,,,,,,,,,,,,,,24201,2019_Sep_24_1347,Mmi_3levels,3.1.5,60.06908058
,,,3,1,6.3,,,,,,,,,0,2,2,2,0,11,11,16,,,,,,,,,,,,,,,,,,,,,,,,,,,,,,,,,,,,,,,,,,,,,,,,,,,,,,,,,,,,,TRUE,TRUE,TRUE,0.84,-0.16,-2.67,4.91,6.3,1.39,0.695,gamble,win,6.3,5.384583333,951.3501856,None,951.3501856,None,951.3501856,None,951.3501856,None,951.3501856,None,951.3501856,None,951.3501856,None,1,0.929329514,951.3501856,None,952.3125952,None,952.3125952,None,952.3125952,None,952.3125952,None,952.3125952,None,952.3125952,None,952.3125952,None,956.2974514,None,956.2974514,None,956.2974514,None,956.2974514,None,956.2974514,None,956.2974514,None,956.2974514,None,957.2978469,None,,,,,,,,,,,,,,,,,,,,,,,,,,,,,,24201,2019_Sep_24_1347,Mmi_3levels,3.1.5,60.06908058
,,,3,1,-1.3,,,,,,,,,0,2,2,2,0,12,12,19,,,,,,,,,,,,,,,,,,,,,,,,,,,,,,,,,,,,,,,,,,,,,,,,,,,,,,,,,,,,,TRUE,TRUE,FALSE,0.84,-0.16,-2.83,5.07,-1.3,-6.37,-3.835,certain,certain,-3.835,1.549583333,959.3152389,None,959.3152389,None,959.3152389,None,959.3152389,None,959.3152389,None,959.3152389,None,959.3152389,None,3,2.501301051,959.3152389,None,961.8495837,None,961.8495837,None,961.8495837,None,961.8495837,None,961.8495837,None,961.8495837,None,961.8495837,None,965.851069,None,965.851069,None,965.851069,None,965.851069,None,965.851069,None,965.851069,None,965.851069,None,975.3380288,None,966.8347742,None,967.835227,None,0.83,7.502754094,970.8363066,None,None,970.8363066,None,,,,,,,,,,,,,,,,,,,24201,2019_Sep_24_1347,Mmi_3levels,3.1.5,60.06908058
,,,3,1,6.9,,,,,,,,,0,2,2,2,0,13,13,0,,,,,,,,,,,,,,,,,,,,,,,,,,,,,,,,,,,,,,,,,,,,,,,,,,,,,,,,,,,,,TRUE,FALSE,TRUE,0.83,-0.17,-3,-0.845,6.9,6.055,3.0275,gamble,lose,6.055,7.604583333,977.3554672,None,977.3554672,None,977.3554672,None,977.3554672,None,977.3554672,None,977.3554672,None,977.3554672,None,1,2.717986821,977.3554672,None,980.1065703,None,980.1065703,None,980.1065703,None,980.1065703,None,980.1065703,None,980.1065703,None,980.1065703,None,984.0914179,None,984.0914179,None,984.0914179,None,984.0914179,None,984.0914179,None,984.0914179,None,984.0914179,None,985.0918041,None,,,,,,,,,,,,,,,,,,,,,,,,,,,,,,24201,2019_Sep_24_1347,Mmi_3levels,3.1.5,60.06908058
,,,3,1,8.9,,,,,,,,,0,2,2,2,0,14,14,9,,,,,,,,,,,,,,,,,,,,,,,,,,,,,,,,,,,,,,,,,,,,,,,,,,,,,,,,,,,,,TRUE,FALSE,TRUE,0.83,-0.17,-3.17,-0.859166667,8.9,8.040833333,4.020416667,gamble,lose,8.040833333,15.64541667,987.1091942,None,987.1091942,None,987.1091942,None,987.1091942,None,987.1091942,None,987.1091942,None,987.1091942,None,1,1.117409763,987.1091942,None,988.259688,None,988.259688,None,988.259688,None,988.259688,None,988.259688,None,988.259688,None,988.259688,None,992.2444913,None,992.2444913,None,992.2444913,None,992.2444913,None,992.2444913,None,992.2444913,None,992.2444913,None,993.2448734,None,,,,,,,,,,,,,,,,,,,,,,,,,,,,,,24201,2019_Sep_24_1347,Mmi_3levels,3.1.5,60.06908058
,,,3,1,4.1,,,,,,,,,0,2,2,2,0,15,15,2,,,,,,,,,,,,,,,,,,,,,,,,,,,,,,,,,,,,,,,,,,,,,,,,,,,,,,,,,,,,,TRUE,TRUE,FALSE,0.83,-0.17,-3.34,5.72,4.1,-1.62,1.24,gamble,win,4.1,19.74541667,995.2623608,None,995.2623608,None,995.2623608,None,995.2623608,None,995.2623608,None,995.2623608,None,995.2623608,None,1,1.767639543,995.2623608,None,997.063053,None,997.063053,None,997.063053,None,997.063053,None,997.063053,None,997.063053,None,997.063053,None,1001.047861,None,1001.047861,None,1001.047861,None,1001.047861,None,1001.047861,None,1001.047861,None,1001.047861,None,1010.551541,None,1002.048241,None,1003.048625,None,0.91,7.502804011,1006.04977,None,None,1006.04977,None,,,,,,,,,,,,,,,,,,,24201,2019_Sep_24_1347,Mmi_3levels,3.1.5,60.06908058
,,,3,1,0.9,,,,,,,,,0,2,2,2,0,16,16,21,,,,,,,,,,,,,,,,,,,,,,,,,,,,,,,,,,,,,,,,,,,,,,,,,,,,,,,,,,,,,TRUE,TRUE,TRUE,0.91,-0.09,-3.43,4.69,0.9,-3.79,-1.445,gamble,win,0.9,20.64541667,1012.568978,None,1012.568978,None,1012.568978,None,1012.568978,None,1012.568978,None,1012.568978,None,1012.568978,None,1,2.584633584,1012.568978,None,1015.186648,None,1015.186648,None,1015.186648,None,1015.186648,None,1015.186648,None,1015.186648,None,1015.186648,None,1019.18818,None,1019.18818,None,1019.18818,None,1019.18818,None,1019.18818,None,1019.18818,None,1019.18818,None,1020.17189,None,,,,,,,,,,,,,,,,,,,,,,,,,,,,,,24201,2019_Sep_24_1347,Mmi_3levels,3.1.5,60.06908058
,,,3,1,8.7,,,,,,,,,0,2,2,2,0,17,17,1,,,,,,,,,,,,,,,,,,,,,,,,,,,,,,,,,,,,,,,,,,,,,,,,,,,,,,,,,,,,,TRUE,TRUE,TRUE,0.91,-0.09,-3.52,4.78,8.7,3.92,1.96,gamble,win,8.7,29.34541667,1022.189278,None,1022.189278,None,1022.189278,None,1022.189278,None,1022.189278,None,1022.189278,None,1022.189278,None,1,0.883951764,1022.189278,None,1023.106318,None,1023.106318,None,1023.106318,None,1023.106318,None,1023.106318,None,1023.106318,None,1023.106318,None,1027.107825,None,1027.107825,None,1027.107825,None,1027.107825,None,1027.107825,None,1027.107825,None,1027.107825,None,1036.594829,None,1028.091549,None,1029.091966,None,0.86,7.502798891,1032.093065,None,None,1032.093065,None,,,,,,,,,,,,,,,,,,,24201,2019_Sep_24_1347,Mmi_3levels,3.1.5,60.06908058
,,,3,1,0.5,,,,,,,,,0,2,2,2,0,18,18,8,,,,,,,,,,,,,,,,,,,,,,,,,,,,,,,,,,,,,,,,,,,,,,,,,,,,,,,,,,,,,TRUE,TRUE,FALSE,0.86,-0.14,-3.66,5.62,0.5,-5.12,-2.31,gamble,win,0.5,29.84541667,1038.612223,None,1038.612223,None,1038.612223,None,1038.612223,None,1038.612223,None,1038.612223,None,1038.612223,None,1,1.951089638,1038.612223,None,1040.596372,None,1040.596372,None,1040.596372,None,1040.596372,None,1040.596372,None,1040.596372,None,1040.596372,None,1044.597845,None,1044.597845,None,1044.597845,None,1044.597845,None,1044.597845,None,1044.597845,None,1044.597845,None,1045.581601,None,,,,,,,,,,,,,,,,,,,,,,,,,,,,,,24201,2019_Sep_24_1347,Mmi_3levels,3.1.5,60.06908058
,,,3,1,5.5,,,,,,,,,0,2,2,2,0,19,19,15,,,,,,,,,,,,,,,,,,,,,,,,,,,,,,,,,,,,,,,,,,,,,,,,,,,,,,,,,,,,,TRUE,FALSE,TRUE,0.86,-0.14,-3.8,-0.806666667,5.5,4.693333333,2.346666667,gamble,lose,4.693333333,34.53875,1047.599041,None,1047.599041,None,1047.599041,None,1047.599041,None,1047.599041,None,1047.599041,None,1047.599041,None,1,1.950800053,1047.599041,None,1049.583111,None,1049.583111,None,1049.583111,None,1049.583111,None,1049.583111,None,1049.583111,None,1049.583111,None,1053.567941,None,1053.567941,None,1053.567941,None,1053.567941,None,1053.567941,None,1053.567941,None,1053.567941,None,1063.071578,None,1054.568324,None,1055.568707,None,0.87,7.50282097,1058.569851,None,None,1058.569851,None,,,,,,,,,,,,,,,,,,,24201,2019_Sep_24_1347,Mmi_3levels,3.1.5,60.06908058
,,,3,1,13.1,,,,,,,,,0,2,2,2,0,20,20,5,,,,,,,,,,,,,,,,,,,,,,,,,,,,,,,,,,,,,,,,,,,,,,,,,,,,,,,,,,,,,TRUE,FALSE,FALSE,0.87,-0.13,-3.93,-0.7825,13.1,12.3175,6.15875,gamble,lose,12.3175,46.85625,1065.110298,None,1065.110298,None,1065.110298,None,1065.110298,None,1065.110298,None,1065.110298,None,1065.110298,None,1,1.279527232,1065.110298,None,1066.422861,None,1066.422861,None,1066.422861,None,1066.422861,None,1066.422861,None,1066.422861,None,1066.422861,None,1070.424448,None,1070.424448,None,1070.424448,None,1070.424448,None,1070.424448,None,1070.424448,None,1070.424448,None,1071.408098,None,,,,,,,,,,,,,,,,,,,,,,,,,,,,,,24201,2019_Sep_24_1347,Mmi_3levels,3.1.5,60.06908058
,,,3,1,13.7,,,,,,,,,0,2,2,2,0,21,21,22,,,,,,,,,,,,,,,,,,,,,,,,,,,,,,,,,,,,,,,,,,,,,,,,,,,,,,,,,,,,,TRUE,FALSE,TRUE,0.87,-0.13,-4.06,-0.793333333,13.7,12.90666667,6.453333333,gamble,lose,12.90666667,59.76291667,1073.425535,None,1073.425535,None,1073.425535,None,1073.425535,None,1073.425535,None,1073.425535,None,1073.425535,None,1,0.933970867,1073.425535,None,1074.392593,None,1074.392593,None,1074.392593,None,1074.392593,None,1074.392593,None,1074.392593,None,1074.392593,None,1078.394149,None,1078.394149,None,1078.394149,None,1078.394149,None,1078.394149,None,1078.394149,None,1078.394149,None,1079.377858,None,,,,,,,,,,,,,,,,,,,,,,,,,,,,,,24201,2019_Sep_24_1347,Mmi_3levels,3.1.5,60.06908058
,,,3,1,4.5,,,,,,,,,0,2,2,2,0,22,22,25,,,,,,,,,,,,,,,,,,,,,,,,,,,,,,,,,,,,,,,,,,,,,,,,,,,,,,,,,,,,,TRUE,TRUE,FALSE,0.87,-0.13,-4.19,6.01,4.5,-1.51,1.495,gamble,win,4.5,64.26291667,1081.395297,None,1081.395297,None,1081.395297,None,1081.395297,None,1081.395297,None,1081.395297,None,1081.395297,None,1,1.917659734,1081.395297,None,1083.346045,None,1083.346045,None,1083.346045,None,1083.346045,None,1083.346045,None,1083.346045,None,1083.346045,None,1087.330845,None,1087.330845,None,1087.330845,None,1087.330845,None,1087.330845,None,1087.330845,None,1087.330845,None,1096.834537,None,1088.331235,None,1089.331612,None,0.86,7.502866728,1092.332762,None,None,1092.332762,None,,,,,,,,,,,,,,,,,,,24201,2019_Sep_24_1347,Mmi_3levels,3.1.5,60.06908058
,,,3,1,11.5,,,,,,,,,0,2,2,2,0,23,23,24,,,,,,,,,,,,,,,,,,,,,,,,,,,,,,,,,,,,,,,,,,,,,,,,,,,,,,,,,,,,,TRUE,TRUE,TRUE,0.86,-0.14,-4.33,6.29,11.5,5.21,2.605,gamble,win,11.5,75.76291667,1098.851923,None,1098.851923,None,1098.851923,None,1098.851923,None,1098.851923,None,1098.851923,None,1098.851923,None,1,1.100509861,1098.851923,None,1099.985695,None,1099.985695,None,1099.985695,None,1099.985695,None,1099.985695,None,1099.985695,None,1099.985695,None,1103.970595,None,1103.970595,None,1103.970595,None,1103.970595,None,1103.970595,None,1103.970595,None,1103.970595,None,1104.970933,None,,,,,,,,,,,,,,,,,,,,,,,,,,,,,,24201,2019_Sep_24_1347,Mmi_3levels,3.1.5,60.06908058
,,,3,1,2.9,,,,,,,,,0,2,2,2,0,24,24,3,,,,,,,,,,,,,,,,,,,,,,,,,,,,,,,,,,,,,,,,,,,,,,,,,,,,,,,,,,,,,TRUE,TRUE,TRUE,0.86,-0.14,-4.47,6.43,2.9,-3.53,-0.315,gamble,win,2.9,78.66291667,1106.988368,None,1106.988368,None,1106.988368,None,1106.988368,None,1106.988368,None,1106.988368,None,1106.988368,None,1,1.901011338,1106.988368,None,1108.922439,None,1108.922439,None,1108.922439,None,1108.922439,None,1108.922439,None,1108.922439,None,1108.922439,None,1112.907341,None,1112.907341,None,1112.907341,None,1112.907341,None,1112.907341,None,1112.907341,None,1112.907341,None,1122.410959,None,1113.907729,None,1114.90806,None,0.91,7.502838569,1117.90926,None,None,1117.90926,None,,,,,,,,,,,,,,,,,,,24201,2019_Sep_24_1347,Mmi_3levels,3.1.5,60.06908058
,,,3,1,5.7,,,,,,,,,0,2,2,2,0,25,25,20,,,,,,,,,,,,,,,,,,,,,,,,,,,,,,,,,,,,,,,,,,,,,,,,,,,,,,,,,,,,,TRUE,TRUE,FALSE,0.91,-0.09,-4.56,5.82,5.7,-0.12,-0.06,gamble,win,5.7,84.36291667,1124.449663,None,1124.449663,None,1124.449663,None,1124.449663,None,1124.449663,None,1124.449663,None,1124.449663,None,1,1.746358753,1124.449663,None,1126.229058,None,1126.229058,None,1126.229058,None,1126.229058,None,1126.229058,None,1126.229058,None,1126.229058,None,1130.23059,None,1130.23059,None,1130.23059,None,1130.23059,None,1130.23059,None,1130.23059,None,1130.23059,None,1131.214347,None,,,,,,,,,,,,,,,,,,,,,,,,,,,,,,24201,2019_Sep_24_1347,Mmi_3levels,3.1.5,60.06908058
,,,3,1,9.5,,,,,,,,,0,2,2,2,0,26,26,4,,,,,,,,,,,,,,,,,,,,,,,,,,,,,,,,,,,,,,,,,,,,,,,,,,,,,,,,,,,,,TRUE,TRUE,FALSE,0.91,-0.09,-4.65,5.91,9.5,3.59,1.795,gamble,win,9.5,93.86291667,1133.231736,None,1133.231736,None,1133.231736,None,1133.231736,None,1133.231736,None,1133.231736,None,1133.231736,None,1,2.167777008,1133.231736,None,1135.43262,None,1135.43262,None,1135.43262,None,1135.43262,None,1135.43262,None,1135.43262,None,1135.43262,None,1139.417426,None,1139.417426,None,1139.417426,None,1139.417426,None,1139.417426,None,1139.417426,None,1139.417426,None,1148.921067,None,1140.417822,None,1141.4182,None,0.9,7.50281937,1144.419344,None,None,1144.419344,None,,,,,,,,,,,,,,,,,,,24201,2019_Sep_24_1347,Mmi_3levels,3.1.5,60.06908058
,,,,,,,,,,,,,,,,,,,,,,,,,,,,,,0,0,0,0,,,,,,,,,,,,,,,,,,,,,,,,,,,,,,,,,,,,,,,,,,,,,,,,,,,,,,,,,,,,,,,,,,,,,,,,,,,,,,,,,,,,,,,,,,,,,,,,,,,,,,,,,,,,,,,,,,,,,,,,,,1150.921826,None,4,6.869575888,1150.921826,None,93.86291667,3,1157.82452,None,1157.82452,None,1157.82452,None,4,6.385960618,1157.82452,None,24201,2019_Sep_24_1347,Mmi_3levels,3.1.5,60.06908058
