currSlide,currImage,currText,blockNum,targetHappiness,highAmount,instructionLoop1.thisRepN,instructionLoop1.thisTrialN,instructionLoop1.thisN,instructionLoop1.thisIndex,instructionLoop2.thisRepN,instructionLoop2.thisTrialN,instructionLoop2.thisN,instructionLoop2.thisIndex,blockLoop.thisRepN,blockLoop.thisTrialN,blockLoop.thisN,blockLoop.thisIndex,trialLoop.thisRepN,trialLoop.thisTrialN,trialLoop.thisN,trialLoop.thisIndex,doRatingLoop.thisRepN,doRatingLoop.thisTrialN,doRatingLoop.thisN,doRatingLoop.thisIndex,trialHappyLoop.thisRepN,trialHappyLoop.thisTrialN,trialHappyLoop.thisN,trialHappyLoop.thisIndex,logWinningsLoop.thisRepN,logWinningsLoop.thisTrialN,logWinningsLoop.thisN,logWinningsLoop.thisIndex,instrImage.started,instrImage.stopped,instrText.started,instrText.stopped,instrContinueText.started,instrContinueText.stopped,instrKeyResp.keys,instrKeyResp.rt,instrKeyResp.started,instrKeyResp.stopped,lifeHappyText.started,lifeHappyText.stopped,lifeHappySlider.response,lifeHappySlider.rt,lifeHappySlider.started,lifeHappySlider.stopped,lifeHappyResp.keys,lifeHappyResp.rt,lifeHappyResp.started,lifeHappyResp.stopped,instrImage_2.started,instrImage_2.stopped,instrText_2.started,instrText_2.stopped,instrContinueText_2.started,instrContinueText_2.stopped,instrKeyResp_2.keys,instrKeyResp_2.rt,instrKeyResp_2.started,instrKeyResp_2.stopped,localizing.started,localizing.stopped,start_exp.keys,start_exp.rt,start_exp.started,start_exp.stopped,blockHappyText.started,blockHappyText.stopped,blockHappySlider.response,blockHappySlider.rt,blockHappySlider.started,blockHappySlider.stopped,blockHappyResp.keys,blockHappyResp.rt,blockHappyResp.started,blockHappyResp.stopped,blankText.started,blankText.stopped,isHappyBlock,isCongruent,isWinOnTop,lastHappyRating,diff,sumDiff,RPE,winAmount,loseAmount,certainAmount,choice,outcome,outcomeAmount,currentWinnings,fixCross.started,fixCross.stopped,certainBox.started,certainBox.stopped,outcome1Box.started,outcome1Box.stopped,outcome2Box.started,outcome2Box.stopped,certainText.started,certainText.stopped,outcome1Text.started,outcome1Text.stopped,outcome2Text.started,outcome2Text.stopped,choiceKey.keys,choiceKey.rt,choiceKey.started,choiceKey.stopped,fixCross_2.started,fixCross_2.stopped,certainBox_2.started,certainBox_2.stopped,outcome1Box_2.started,outcome1Box_2.stopped,outcome2Box_2.started,outcome2Box_2.stopped,certainText_2.started,certainText_2.stopped,outcome1Text_2.started,outcome1Text_2.stopped,outcome2Text_2.started,outcome2Text_2.stopped,fixCross_3.started,fixCross_3.stopped,certainBox_3.started,certainBox_3.stopped,outcome1Box_3.started,outcome1Box_3.stopped,outcome2Box_3.started,outcome2Box_3.stopped,certainText_3.started,certainText_3.stopped,outcome1Text_3.started,outcome1Text_3.stopped,outcome2Text_3.started,outcome2Text_3.stopped,fixCross_ITI.started,fixCross_ITI.stopped,fixCross_ISI.started,fixCross_ISI.stopped,happyText.started,happyText.stopped,happySlider.response,happySlider.rt,happySlider.started,happySlider.stopped,happyResp.keys,happyResp.started,happyResp.stopped,endOfBlockText.started,endOfBlockText.stopped,restKeyResp.keys,restKeyResp.rt,restKeyResp.started,restKeyResp.stopped,finalWinnings,cashBonus,goodbyeText.started,goodbyeText.stopped,finalWinningsText.started,finalWinningsText.stopped,spaceToContinue.started,spaceToContinue.stopped,goodbyeKeyResp_2.keys,goodbyeKeyResp_2.rt,goodbyeKeyResp_2.started,goodbyeKeyResp_2.stopped,participant,date,expName,psychopyVersion,frameRate,
1,black.png,"Welcome! You are about to play our gambling task.
This task has 3 blocks and takes about 15 minutes.",,,,0,0,0,0,,,,,,,,,,,,,,,,,,,,,,,,,13.87622801476391,None,13.87622801476391,None,13.87622801476391,None,4,8.904837695023161,13.87622801476391,None,,,,,,,,,,,,,,,,,,,,,,,,,,,,,,,,,,,,,,,,,,,,,,,,,,,,,,,,,,,,,,,,,,,,,,,,,,,,,,,,,,,,,,,,,,,,,,,,,,,,,,,,,,,,,,,,,,,,,,,,,,,,,,,,,,24295,2020_Mar_10_1543,Mmi_3levels,3.1.5,59.97328692137069,
2,black.png,"In this game, you may win or lose points. Your goal is to get as many points as possible. These points will be converted to a cash bonus at the end.
Sometimes we will ask you to rate your mood.",,,,0,1,1,1,,,,,,,,,,,,,,,,,,,,,,,,,22.830823706637602,None,22.830823706637602,None,22.830823706637602,None,4,17.240161002642708,22.830823706637602,None,,,,,,,,,,,,,,,,,,,,,,,,,,,,,,,,,,,,,,,,,,,,,,,,,,,,,,,,,,,,,,,,,,,,,,,,,,,,,,,,,,,,,,,,,,,,,,,,,,,,,,,,,,,,,,,,,,,,,,,,,,,,,,,,,,24295,2020_Mar_10_1543,Mmi_3levels,3.1.5,59.97328692137069,
3,black.png,"On the next screen, please rate how you feel about your life these days. Use the LEFT (green) and RIGHT (blue) buttons to move the slider (you can press and hold them to slide gradually) and the TOP (red) button to lock in your response.
Make your rating as accurately and quickly as you can!",,,,0,2,2,2,,,,,,,,,,,,,,,,,,,,,,,,,40.12072126727435,None,40.12072126727435,None,40.12072126727435,None,4,11.988078713256982,40.12072126727435,None,,,,,,,,,,,,,,,,,,,,,,,,,,,,,,,,,,,,,,,,,,,,,,,,,,,,,,,,,,,,,,,,,,,,,,,,,,,,,,,,,,,,,,,,,,,,,,,,,,,,,,,,,,,,,,,,,,,,,,,,,,,,,,,,,,24295,2020_Mar_10_1543,Mmi_3levels,3.1.5,59.97328692137069,
,,,,,,,,,,,,,,,,,,,,,,,,,,,,,,,,,,,,,,,,,,,,52.125329342496116,None,0.61,8.902500859156135,56.12686814075278,None,4,4.885277134075295,56.12686814075278,None,,,,,,,,,,,,,,,,,,,,,,,,,,,,,,,,,,,,,,,,,,,,,,,,,,,,,,,,,,,,,,,,,,,,,,,,,,,,,,,,,,,,,,,,,,,,,,,,,,,,,,,,,,,,,,,,,,,,,,,,24295,2020_Mar_10_1543,Mmi_3levels,3.1.5,59.97328692137069,
4,black.png,"In this game you can win money by earning points according to your choices. You will decide whether to gamble a number of points or stick with a guaranteed number of points. 
Make your choice by pressing the left or right arrow key once. An example of one trial is shown on the next screen.",,,,,,,,0,0,0,0,,,,,,,,,,,,,,,,,,,,,,,,,,,,,,,,,,,,,,,,,61.06202678513364,None,61.06202678513364,None,61.06202678513364,None,4,7.686559369962197,61.06202678513364,None,,,,,,,,,,,,,,,,,,,,,,,,,,,,,,,,,,,,,,,,,,,,,,,,,,,,,,,,,,,,,,,,,,,,,,,,,,,,,,,,,,,,,,,,,,,,,,,,,,,,,,,,,,,,,,24295,2020_Mar_10_1543,Mmi_3levels,3.1.5,59.97328692137069,
5,example_start.png,"The GAMBLING OPTION will be shown on the RIGHT SIDE. 
Select this option using the RIGHT (blue) button on your keypad.",,,,,,,,0,1,1,1,,,,,,,,,,,,,,,,,,,,,,,,,,,,,,,,,,,,,,,,,68.8150415049895,None,68.8150415049895,None,68.8150415049895,None,4,2.7179010650870623,68.8150415049895,None,,,,,,,,,,,,,,,,,,,,,,,,,,,,,,,,,,,,,,,,,,,,,,,,,,,,,,,,,,,,,,,,,,,,,,,,,,,,,,,,,,,,,,,,,,,,,,,,,,,,,,,,,,,,,,24295,2020_Mar_10_1543,Mmi_3levels,3.1.5,59.97328692137069,
6,example_gamble.png,"Once you select the gambling choice, the choice you made will remain on the screen.",,,,,,,,0,2,2,2,,,,,,,,,,,,,,,,,,,,,,,,,,,,,,,,,,,,,,,,,71.56606113082671,None,71.56606113082671,None,71.56606113082671,None,4,2.251099301603972,71.56606113082671,None,,,,,,,,,,,,,,,,,,,,,,,,,,,,,,,,,,,,,,,,,,,,,,,,,,,,,,,,,,,,,,,,,,,,,,,,,,,,,,,,,,,,,,,,,,,,,,,,,,,,,,,,,,,,,,24295,2020_Mar_10_1543,Mmi_3levels,3.1.5,59.97328692137069,
7,example_win.png,"The outcome you received will then be shown on the screen. In this example , you WON 10 points.",,,,,,,,0,3,3,3,,,,,,,,,,,,,,,,,,,,,,,,,,,,,,,,,,,,,,,,,73.85029947209114,None,73.85029947209114,None,73.85029947209114,None,4,3.7849659826169955,73.85029947209114,None,,,,,,,,,,,,,,,,,,,,,,,,,,,,,,,,,,,,,,,,,,,,,,,,,,,,,,,,,,,,,,,,,,,,,,,,,,,,,,,,,,,,,,,,,,,,,,,,,,,,,,,,,,,,,,24295,2020_Mar_10_1543,Mmi_3levels,3.1.5,59.97328692137069,
8,example_start.png,"The GUARANTEED OPTION will be shown on the LEFT SIDE. You are 100% guaranteed to gain or lose this amount. In this example, you have a 100% chance of winning 1 point. Select this option using the LEFT (green) button on your keyboard.",,,,,,,,0,4,4,4,,,,,,,,,,,,,,,,,,,,,,,,,,,,,,,,,,,,,,,,,77.7016859264404,None,77.7016859264404,None,77.7016859264404,None,4,1.6008685618580785,77.7016859264404,None,,,,,,,,,,,,,,,,,,,,,,,,,,,,,,,,,,,,,,,,,,,,,,,,,,,,,,,,,,,,,,,,,,,,,,,,,,,,,,,,,,,,,,,,,,,,,,,,,,,,,,,,,,,,,,24295,2020_Mar_10_1543,Mmi_3levels,3.1.5,59.97328692137069,
9,example_certain.png,"Once you select the guaranteed choice, your selection will remain on the screen.",,,,,,,,0,5,5,5,,,,,,,,,,,,,,,,,,,,,,,,,,,,,,,,,,,,,,,,,79.33569512786926,None,79.33569512786926,None,79.33569512786926,None,4,1.5340631505678175,79.33569512786926,None,,,,,,,,,,,,,,,,,,,,,,,,,,,,,,,,,,,,,,,,,,,,,,,,,,,,,,,,,,,,,,,,,,,,,,,,,,,,,,,,,,,,,,,,,,,,,,,,,,,,,,,,,,,,,,24295,2020_Mar_10_1543,Mmi_3levels,3.1.5,59.97328692137069,
10,black.png,"Please make your choices as fast as possible.
You will be given a break at the end of each block.
Let's play!",,,,,,,,0,6,6,6,,,,,,,,,,,,,,,,,,,,,,,,,,,,,,,,,,,,,,,,,80.90290243781055,None,80.90290243781055,None,80.90290243781055,None,4,1.6509241429157555,80.90290243781055,None,,,,,,,,,,,,,,,,,,,,,,,,,,,,,,,,,,,,,,,,,,,,,,,,,,,,,,,,,,,,,,,,,,,,,,,,,,,,,,,,,,,,,,,,,,,,,,,,,,,,,,,,,,,,,,24295,2020_Mar_10_1543,Mmi_3levels,3.1.5,59.97328692137069,
,,,,,,,,,,,,,,,,,,,,,,,,,,,,,,,,,,,,,,,,,,,,,,,,,,,,,,,,,,,,,,,,82.5703037854546,None,space,56.25491445894295,82.5703037854546,None,,,,,,,,,,,,,,,,,,,,,,,,,,,,,,,,,,,,,,,,,,,,,,,,,,,,,,,,,,,,,,,,,,,,,,,,,,,,,,,,,,,,,,,,,,,,,,,,,,,,,,,,24295,2020_Mar_10_1543,Mmi_3levels,3.1.5,59.97328692137069,
,,,1,1,-1.3,,,,,,,,,0,0,0,0,0,0,0,4,,,,,,,,,,,,,,,,,,,,,,,,,,,,,,,,,,,,,,,,,,,,,,,,,138.8416948091617,None,0.56,6.462348240063875,141.85957897915796,None,4,3.434809862897964,141.85957897915796,None,145.3108330885443,None,True,True,True,0.56,-0.43999999999999995,-0.43999999999999995,6.6,-1.3,-7.8999999999999995,-4.6,gamble,win,-1.3,-1.3,148.34539989235054,None,148.34539989235054,None,148.34539989235054,None,148.34539989235054,None,148.34539989235054,None,148.34539989235054,None,148.34539989235054,None,1,2.2177314740984,148.34539989235054,None,150.59619936988747,None,150.59619936988747,None,150.59619936988747,None,150.59619936988747,None,150.59619936988747,None,150.59619936988747,None,150.59619936988747,None,154.59775736712618,None,154.59775736712618,None,154.59775736712618,None,154.59775736712618,None,154.59775736712618,None,154.59775736712618,None,154.59775736712618,None,155.58140175593144,None,,,,,,,,,,,,,,,,,,,,,,,,,,,,,,24295,2020_Mar_10_1543,Mmi_3levels,3.1.5,59.97328692137069,
,,,1,1,3.7,,,,,,,,,0,0,0,0,0,1,1,6,,,,,,,,,,,,,,,,,,,,,,,,,,,,,,,,,,,,,,,,,,,,,,,,,,,,,,,,,,,,,True,True,False,0.56,-0.43999999999999995,-0.8799999999999999,7.039999999999999,3.7,-3.339999999999999,0.1800000000000006,certain,certain,0.1800000000000006,-1.1199999999999994,157.59889650660625,None,157.59889650660625,None,157.59889650660625,None,157.59889650660625,None,157.59889650660625,None,157.59889650660625,None,157.59889650660625,None,3,1.7840485913329758,157.59889650660625,None,159.4162063711119,None,159.4162063711119,None,159.4162063711119,None,159.4162063711119,None,159.4162063711119,None,159.4162063711119,None,159.4162063711119,None,163.41778292736853,None,163.41778292736853,None,163.41778292736853,None,163.41778292736853,None,163.41778292736853,None,163.41778292736853,None,163.41778292736853,None,164.4014977124316,None,,,,,,,,,,,,,,,,,,,,,,,,,,,,,,24295,2020_Mar_10_1543,Mmi_3levels,3.1.5,59.97328692137069,
,,,1,1,12.9,,,,,,,,,0,0,0,0,0,2,2,25,,,,,,,,,,,,,,,,,,,,,,,,,,,,,,,,,,,,,,,,,,,,,,,,,,,,,,,,,,,,,True,False,True,0.56,-0.43999999999999995,-1.3199999999999998,-1.65,12.9,11.25,5.625,gamble,lose,11.25,10.13,166.41888078904594,None,166.41888078904594,None,166.41888078904594,None,166.41888078904594,None,166.41888078904594,None,166.41888078904594,None,166.41888078904594,None,1,1.9010471763758687,166.41888078904594,None,168.35303180693882,None,168.35303180693882,None,168.35303180693882,None,168.35303180693882,None,168.35303180693882,None,168.35303180693882,None,168.35303180693882,None,172.35453092731768,None,172.35453092731768,None,172.35453092731768,None,172.35453092731768,None,172.35453092731768,None,172.35453092731768,None,172.35453092731768,None,181.84148682020896,None,173.33823515294353,None,174.33859705372015,None,0.57,7.502720175500144,177.33975475221814,None,None,177.33975475221814,None,,,,,,,,,,,,,,,,,,,24295,2020_Mar_10_1543,Mmi_3levels,3.1.5,59.97328692137069,
,,,1,1,11.3,,,,,,,,,0,0,0,0,0,3,3,10,,,,,,,,,,,,,,,,,,,,,,,,,,,,,,,,,,,,,,,,,,,,,,,,,,,,,,,,,,,,,True,True,False,0.57,-0.43000000000000005,-1.75,7.7700000000000005,11.3,3.5300000000000002,1.7650000000000001,gamble,win,11.3,21.43,183.85888749589503,None,183.85888749589503,None,183.85888749589503,None,183.85888749589503,None,183.85888749589503,None,183.85888749589503,None,183.85888749589503,None,1,1.1174052834394388,183.85888749589503,None,185.00936238266877,None,185.00936238266877,None,185.00936238266877,None,185.00936238266877,None,185.00936238266877,None,185.00936238266877,None,185.00936238266877,None,189.01087846212613,None,189.01087846212613,None,189.01087846212613,None,189.01087846212613,None,189.01087846212613,None,189.01087846212613,None,189.01087846212613,None,189.99452925060177,None,,,,,,,,,,,,,,,,,,,,,,,,,,,,,,24295,2020_Mar_10_1543,Mmi_3levels,3.1.5,59.97328692137069,
,,,1,1,7.3,,,,,,,,,0,0,0,0,0,4,4,12,,,,,,,,,,,,,,,,,,,,,,,,,,,,,,,,,,,,,,,,,,,,,,,,,,,,,,,,,,,,,True,False,True,0.57,-0.43000000000000005,-2.18,-1.6866666666666668,7.3,5.613333333333333,2.8066666666666666,gamble,lose,5.613333333333333,27.043333333333333,192.01202432125865,None,192.01202432125865,None,192.01202432125865,None,192.01202432125865,None,192.01202432125865,None,192.01202432125865,None,192.01202432125865,None,1,0.917310312477639,192.01202432125865,None,192.9624240760313,None,192.9624240760313,None,192.9624240760313,None,192.9624240760313,None,192.9624240760313,None,192.9624240760313,None,192.9624240760313,None,196.963915516797,None,196.963915516797,None,196.963915516797,None,196.963915516797,None,196.963915516797,None,196.963915516797,None,196.963915516797,None,206.45089732832275,None,197.94765334065596,None,198.94800820179807,None,0.63,7.502807850847603,201.94916750022094,None,None,201.94916750022094,None,,,,,,,,,,,,,,,,,,,24295,2020_Mar_10_1543,Mmi_3levels,3.1.5,59.97328692137069,
,,,1,1,4.9,,,,,,,,,0,0,0,0,0,5,5,0,,,,,,,,,,,,,,,,,,,,,,,,,,,,,,,,,,,,,,,,,,,,,,,,,,,,,,,,,,,,,True,True,False,0.63,-0.37,-2.5500000000000003,7.73,4.9,-2.83,1.0350000000000001,certain,certain,1.0350000000000001,28.078333333333333,208.4682826448261,None,208.4682826448261,None,208.4682826448261,None,208.4682826448261,None,208.4682826448261,None,208.4682826448261,None,208.4682826448261,None,3,1.3672921694378601,208.4682826448261,None,209.8688386472786,None,209.8688386472786,None,209.8688386472786,None,209.8688386472786,None,209.8688386472786,None,209.8688386472786,None,209.8688386472786,None,213.87034352734918,None,213.87034352734918,None,213.87034352734918,None,213.87034352734918,None,213.87034352734918,None,213.87034352734918,None,213.87034352734918,None,214.8540755915019,None,,,,,,,,,,,,,,,,,,,,,,,,,,,,,,24295,2020_Mar_10_1543,Mmi_3levels,3.1.5,59.97328692137069,
,,,1,1,6.1,,,,,,,,,0,0,0,0,0,6,6,9,,,,,,,,,,,,,,,,,,,,,,,,,,,,,,,,,,,,,,,,,,,,,,,,,,,,,,,,,,,,,True,True,True,0.63,-0.37,-2.9200000000000004,8.1,6.1,-2.0,-1.0,gamble,win,6.1,34.178333333333335,216.8715351440478,None,216.8715351440478,None,216.8715351440478,None,216.8715351440478,None,216.8715351440478,None,216.8715351440478,None,216.8715351440478,None,1,2.067675445068744,216.8715351440478,None,218.97231251075573,None,218.97231251075573,None,218.97231251075573,None,218.97231251075573,None,218.97231251075573,None,218.97231251075573,None,218.97231251075573,None,222.9738404295931,None,222.9738404295931,None,222.9738404295931,None,222.9738404295931,None,222.9738404295931,None,222.9738404295931,None,222.9738404295931,None,223.95757633354515,None,,,,,,,,,,,,,,,,,,,,,,,,,,,,,,24295,2020_Mar_10_1543,Mmi_3levels,3.1.5,59.97328692137069,
,,,1,1,3.1,,,,,,,,,0,0,0,0,0,7,7,5,,,,,,,,,,,,,,,,,,,,,,,,,,,,,,,,,,,,,,,,,,,,,,,,,,,,,,,,,,,,,True,False,True,0.63,-0.37,-3.2900000000000005,-1.5691666666666666,3.1,1.5308333333333335,0.7654166666666667,gamble,lose,1.5308333333333335,35.70916666666667,225.97498020905186,None,225.97498020905186,None,225.97498020905186,None,225.97498020905186,None,225.97498020905186,None,225.97498020905186,None,225.97498020905186,None,1,1.0007238015532494,225.97498020905186,None,227.0087403357029,None,227.0087403357029,None,227.0087403357029,None,227.0087403357029,None,227.0087403357029,None,227.0087403357029,None,227.0087403357029,None,230.99353474342206,None,230.99353474342206,None,230.99353474342206,None,230.99353474342206,None,230.99353474342206,None,230.99353474342206,None,230.99353474342206,None,240.49722382746404,None,231.9939788798365,None,232.99427006437327,None,0.71,7.502828649739968,235.9954616810719,None,None,235.9954616810719,None,,,,,,,,,,,,,,,,,,,24295,2020_Mar_10_1543,Mmi_3levels,3.1.5,59.97328692137069,
,,,1,1,1.5,,,,,,,,,0,0,0,0,0,8,8,1,,,,,,,,,,,,,,,,,,,,,,,,,,,,,,,,,,,,,,,,,,,,,,,,,,,,,,,,,,,,,True,True,False,0.71,-0.29000000000000004,-3.5800000000000005,7.640000000000001,1.5,-6.140000000000001,-2.3200000000000003,certain,certain,-2.3200000000000003,33.38916666666667,242.5145969846053,None,242.5145969846053,None,242.5145969846053,None,242.5145969846053,None,242.5145969846053,None,242.5145969846053,None,242.5145969846053,None,3,1.317380900727585,242.5145969846053,None,243.86514284361328,None,243.86514284361328,None,243.86514284361328,None,243.86514284361328,None,243.86514284361328,None,243.86514284361328,None,243.86514284361328,None,247.86671875989123,None,247.86671875989123,None,247.86671875989123,None,247.86671875989123,None,247.86671875989123,None,247.86671875989123,None,247.86671875989123,None,248.85038554751372,None,,,,,,,,,,,,,,,,,,,,,,,,,,,,,,24295,2020_Mar_10_1543,Mmi_3levels,3.1.5,59.97328692137069,
,,,1,1,8.3,,,,,,,,,0,0,0,0,0,9,9,13,,,,,,,,,,,,,,,,,,,,,,,,,,,,,,,,,,,,,,,,,,,,,,,,,,,,,,,,,,,,,True,True,True,0.71,-0.29000000000000004,-3.8700000000000006,7.9300000000000015,8.3,0.3699999999999992,0.1849999999999996,gamble,win,8.3,41.689166666666665,250.86780062242178,None,250.86780062242178,None,250.86780062242178,None,250.86780062242178,None,250.86780062242178,None,250.86780062242178,None,250.86780062242178,None,1,1.0673769009445095,250.86780062242178,None,251.96825928606268,None,251.96825928606268,None,251.96825928606268,None,251.96825928606268,None,251.96825928606268,None,251.96825928606268,None,251.96825928606268,None,255.9531154504948,None,255.9531154504948,None,255.9531154504948,None,255.9531154504948,None,255.9531154504948,None,255.9531154504948,None,255.9531154504948,None,265.4567270986445,None,256.9534715915797,None,257.9538568511198,None,0.69,7.502665138425073,260.9549643122882,None,None,260.9549643122882,None,,,,,,,,,,,,,,,,,,,24295,2020_Mar_10_1543,Mmi_3levels,3.1.5,59.97328692137069,
,,,1,1,10.5,,,,,,,,,0,0,0,0,0,10,10,23,,,,,,,,,,,,,,,,,,,,,,,,,,,,,,,,,,,,,,,,,,,,,,,,,,,,,,,,,,,,,True,True,False,0.69,-0.31000000000000005,-4.180000000000001,8.520000000000001,10.5,1.9799999999999986,0.9899999999999993,gamble,win,10.5,52.189166666666665,267.4741812114953,None,267.4741812114953,None,267.4741812114953,None,267.4741812114953,None,267.4741812114953,None,267.4741812114953,None,267.4741812114953,None,1,1.20072245762276,267.4741812114953,None,268.70798127203307,None,268.70798127203307,None,268.70798127203307,None,268.70798127203307,None,268.70798127203307,None,268.70798127203307,None,268.70798127203307,None,272.7094851921429,None,272.7094851921429,None,272.7094851921429,None,272.7094851921429,None,272.7094851921429,None,272.7094851921429,None,272.7094851921429,None,273.6931363006006,None,,,,,,,,,,,,,,,,,,,,,,,,,,,,,,24295,2020_Mar_10_1543,Mmi_3levels,3.1.5,59.97328692137069,
,,,1,1,13.1,,,,,,,,,0,0,0,0,0,11,11,8,,,,,,,,,,,,,,,,,,,,,,,,,,,,,,,,,,,,,,,,,,,,,,,,,,,,,,,,,,,,,True,True,False,0.69,-0.31000000000000005,-4.49,8.830000000000002,13.1,4.269999999999998,2.134999999999999,gamble,win,13.1,65.28916666666666,275.71062593154784,None,275.71062593154784,None,275.71062593154784,None,275.71062593154784,None,275.71062593154784,None,275.71062593154784,None,275.71062593154784,None,1,0.9006414379255148,275.71062593154784,None,276.6443494521518,None,276.6443494521518,None,276.6443494521518,None,276.6443494521518,None,276.6443494521518,None,276.6443494521518,None,276.6443494521518,None,280.64587353118986,None,280.64587353118986,None,280.64587353118986,None,280.64587353118986,None,280.64587353118986,None,280.64587353118986,None,280.64587353118986,None,290.13279710580537,None,281.6295262395579,None,282.62996525624476,None,0.73,7.502813610539306,285.63103623935604,None,None,285.63103623935604,None,,,,,,,,,,,,,,,,,,,24295,2020_Mar_10_1543,Mmi_3levels,3.1.5,59.97328692137069,
,,,1,1,9.3,,,,,,,,,0,0,0,0,0,12,12,24,,,,,,,,,,,,,,,,,,,,,,,,,,,,,,,,,,,,,,,,,,,,,,,,,,,,,,,,,,,,,True,False,True,0.73,-0.27,-4.76,-1.3416666666666668,9.3,7.958333333333334,3.979166666666667,gamble,lose,7.958333333333334,73.24749999999999,292.1502617780934,None,292.1502617780934,None,292.1502617780934,None,292.1502617780934,None,292.1502617780934,None,292.1502617780934,None,292.1502617780934,None,1,1.0004412565613165,292.1502617780934,None,293.18390543093847,None,293.18390543093847,None,293.18390543093847,None,293.18390543093847,None,293.18390543093847,None,293.18390543093847,None,293.18390543093847,None,297.18552006516256,None,297.18552006516256,None,297.18552006516256,None,297.18552006516256,None,297.18552006516256,None,297.18552006516256,None,297.18552006516256,None,298.16919773220434,None,,,,,,,,,,,,,,,,,,,,,,,,,,,,,,24295,2020_Mar_10_1543,Mmi_3levels,3.1.5,59.97328692137069,
,,,1,1,5.3,,,,,,,,,0,0,0,0,0,13,13,18,,,,,,,,,,,,,,,,,,,,,,,,,,,,,,,,,,,,,,,,,,,,,,,,,,,,,,,,,,,,,True,True,False,0.73,-0.27,-5.029999999999999,8.809999999999999,5.3,-3.509999999999999,0.8950000000000005,gamble,win,5.3,78.54749999999999,300.1866368058545,None,300.1866368058545,None,300.1866368058545,None,300.1866368058545,None,300.1866368058545,None,300.1866368058545,None,300.1866368058545,None,1,2.5178921695624013,300.1866368058545,None,302.7376107381133,None,302.7376107381133,None,302.7376107381133,None,302.7376107381133,None,302.7376107381133,None,302.7376107381133,None,302.7376107381133,None,306.73916841536993,None,306.73916841536993,None,306.73916841536993,None,306.73916841536993,None,306.73916841536993,None,306.73916841536993,None,306.73916841536993,None,307.72284736233996,None,,,,,,,,,,,,,,,,,,,,,,,,,,,,,,24295,2020_Mar_10_1543,Mmi_3levels,3.1.5,59.97328692137069,
,,,1,1,0.3,,,,,,,,,0,0,0,0,0,14,14,14,,,,,,,,,,,,,,,,,,,,,,,,,,,,,,,,,,,,,,,,,,,,,,,,,,,,,,,,,,,,,True,False,True,0.73,-0.27,-5.299999999999999,-1.3866666666666667,0.3,-1.0866666666666667,-0.3933333333333333,gamble,lose,-1.0866666666666667,77.46083333333331,309.74026531710115,None,309.74026531710115,None,309.74026531710115,None,309.74026531710115,None,309.74026531710115,None,309.74026531710115,None,309.74026531710115,None,1,1.6008896807470592,309.74026531710115,None,311.37423708052665,None,311.37423708052665,None,311.37423708052665,None,311.37423708052665,None,311.37423708052665,None,311.37423708052665,None,311.37423708052665,None,315.37576915913087,None,315.37576915913087,None,315.37576915913087,None,315.37576915913087,None,315.37576915913087,None,315.37576915913087,None,315.37576915913087,None,324.86272057227325,None,316.35944906606164,None,317.3598477648775,None,0.6,7.502735214700806,320.3610173027555,None,None,320.3610173027555,None,,,,,,,,,,,,,,,,,,,24295,2020_Mar_10_1543,Mmi_3levels,3.1.5,59.97328692137069,
,,,1,1,2.9,,,,,,,,,0,0,0,0,0,15,15,21,,,,,,,,,,,,,,,,,,,,,,,,,,,,,,,,,,,,,,,,,,,,,,,,,,,,,,,,,,,,,True,False,False,0.6,-0.4,-5.699999999999999,-1.875,2.9,1.025,1.9625,gamble,lose,1.025,78.48583333333332,326.8801846045826,None,326.8801846045826,None,326.8801846045826,None,326.8801846045826,None,326.8801846045826,None,326.8801846045826,None,326.8801846045826,None,1,0.9172466358577367,326.8801846045826,None,327.83051268315467,None,327.83051268315467,None,327.83051268315467,None,327.83051268315467,None,327.83051268315467,None,327.83051268315467,None,327.83051268315467,None,331.83205052146513,None,331.83205052146513,None,331.83205052146513,None,331.83205052146513,None,331.83205052146513,None,331.83205052146513,None,331.83205052146513,None,332.8157589068869,None,,,,,,,,,,,,,,,,,,,,,,,,,,,,,,24295,2020_Mar_10_1543,Mmi_3levels,3.1.5,59.97328692137069,
,,,1,1,9.9,,,,,,,,,0,0,0,0,0,16,16,11,,,,,,,,,,,,,,,,,,,,,,,,,,,,,,,,,,,,,,,,,,,,,,,,,,,,,,,,,,,,,True,True,False,0.6,-0.4,-6.1,11.7,9.9,-1.799999999999999,-0.8999999999999995,gamble,win,9.9,88.38583333333332,334.8332213392714,None,334.8332213392714,None,334.8332213392714,None,334.8332213392714,None,334.8332213392714,None,334.8332213392714,None,334.8332213392714,None,1,1.2006744601676473,334.8332213392714,None,336.0669455638417,None,336.0669455638417,None,336.0669455638417,None,336.0669455638417,None,336.0669455638417,None,336.0669455638417,None,336.0669455638417,None,340.0685544383887,None,340.0685544383887,None,340.0685544383887,None,340.0685544383887,None,340.0685544383887,None,340.0685544383887,None,340.0685544383887,None,349.5555090513517,None,341.052172908574,None,342.0526077654649,None,0.68,7.502815530446242,345.05374946481606,None,None,345.05374946481606,None,,,,,,,,,,,,,,,,,,,24295,2020_Mar_10_1543,Mmi_3levels,3.1.5,59.97328692137069,
,,,1,1,7.9,,,,,,,,,0,0,0,0,0,17,17,15,,,,,,,,,,,,,,,,,,,,,,,,,,,,,,,,,,,,,,,,,,,,,,,,,,,,,,,,,,,,,True,True,False,0.68,-0.31999999999999995,-6.42,10.899999999999999,7.9,-2.9999999999999982,-1.4999999999999991,certain,certain,-1.4999999999999991,86.88583333333332,351.5728543699661,None,351.5728543699661,None,351.5728543699661,None,351.5728543699661,None,351.5728543699661,None,351.5728543699661,None,351.5728543699661,None,3,1.63426454787259,351.5728543699661,None,353.2401603626786,None,353.2401603626786,None,353.2401603626786,None,353.2401603626786,None,353.2401603626786,None,353.2401603626786,None,353.2401603626786,None,357.241686361609,None,357.241686361609,None,357.241686361609,None,357.241686361609,None,357.241686361609,None,357.241686361609,None,357.241686361609,None,358.22545106403413,None,,,,,,,,,,,,,,,,,,,,,,,,,,,,,,24295,2020_Mar_10_1543,Mmi_3levels,3.1.5,59.97328692137069,
,,,1,1,0.5,,,,,,,,,0,0,0,0,0,18,18,3,,,,,,,,,,,,,,,,,,,,,,,,,,,,,,,,,,,,,,,,,,,,,,,,,,,,,,,,,,,,,True,True,True,0.68,-0.31999999999999995,-6.74,11.219999999999999,0.5,-10.719999999999999,-5.109999999999999,certain,certain,-5.109999999999999,81.77583333333332,360.24288597788836,None,360.24288597788836,None,360.24288597788836,None,360.24288597788836,None,360.24288597788836,None,360.24288597788836,None,360.24288597788836,None,3,2.3843575029313797,360.24288597788836,None,362.660481395229,None,362.660481395229,None,362.660481395229,None,362.660481395229,None,362.660481395229,None,362.660481395229,None,362.660481395229,None,366.66203427274013,None,366.66203427274013,None,366.66203427274013,None,366.66203427274013,None,366.66203427274013,None,366.66203427274013,None,366.66203427274013,None,367.64571161979984,None,,,,,,,,,,,,,,,,,,,,,,,,,,,,,,24295,2020_Mar_10_1543,Mmi_3levels,3.1.5,59.97328692137069,
,,,1,1,4.1,,,,,,,,,0,0,0,0,0,19,19,17,,,,,,,,,,,,,,,,,,,,,,,,,,,,,,,,,,,,,,,,,,,,,,,,,,,,,,,,,,,,,True,True,True,0.68,-0.31999999999999995,-7.0600000000000005,11.54,4.1,-7.4399999999999995,-1.67,certain,certain,-1.67,80.10583333333332,369.6631529333099,None,369.6631529333099,None,369.6631529333099,None,369.6631529333099,None,369.6631529333099,None,369.6631529333099,None,369.6631529333099,None,3,1.550868017890025,369.6631529333099,None,371.24711871304316,None,371.24711871304316,None,371.24711871304316,None,371.24711871304316,None,371.24711871304316,None,371.24711871304316,None,371.24711871304316,None,375.2485666361317,None,375.2485666361317,None,375.2485666361317,None,375.2485666361317,None,375.2485666361317,None,375.2485666361317,None,375.2485666361317,None,384.73557820607675,None,376.2323210991017,None,377.23270475871686,None,0.63,7.503462856053375,380.23383845850185,None,None,380.23383845850185,None,,,,,,,,,,,,,,,,,,,24295,2020_Mar_10_1543,Mmi_3levels,3.1.5,59.97328692137069,
,,,1,1,1.1,,,,,,,,,0,0,0,0,0,20,20,22,,,,,,,,,,,,,,,,,,,,,,,,,,,,,,,,,,,,,,,,,,,,,,,,,,,,,,,,,,,,,True,False,False,0.63,-0.37,-7.430000000000001,-1.9141666666666666,1.1,-0.8141666666666665,0.1429166666666668,gamble,lose,-0.8141666666666665,79.29166666666666,386.7530505579489,None,386.7530505579489,None,386.7530505579489,None,386.7530505579489,None,386.7530505579489,None,386.7530505579489,None,386.7530505579489,None,1,1.7675553874578327,386.7530505579489,None,388.553641950537,None,388.553641950537,None,388.553641950537,None,388.553641950537,None,388.553641950537,None,388.553641950537,None,388.553641950537,None,392.5552220265963,None,392.5552220265963,None,392.5552220265963,None,392.5552220265963,None,392.5552220265963,None,392.5552220265963,None,392.5552220265963,None,393.53895953045867,None,,,,,,,,,,,,,,,,,,,,,,,,,,,,,,24295,2020_Mar_10_1543,Mmi_3levels,3.1.5,59.97328692137069,
,,,1,1,3.9,,,,,,,,,0,0,0,0,0,21,21,19,,,,,,,,,,,,,,,,,,,,,,,,,,,,,,,,,,,,,,,,,,,,,,,,,,,,,,,,,,,,,True,False,True,0.63,-0.37,-7.800000000000001,-1.9449999999999998,3.9,1.955,0.9775,gamble,lose,1.955,81.24666666666666,395.5563400472165,None,395.5563400472165,None,395.5563400472165,None,395.5563400472165,None,395.5563400472165,None,395.5563400472165,None,395.5563400472165,None,1,1.0006924432236701,395.5563400472165,None,396.5901020937745,None,396.5901020937745,None,396.5901020937745,None,396.5901020937745,None,396.5901020937745,None,396.5901020937745,None,396.5901020937745,None,400.5915880948305,None,400.5915880948305,None,400.5915880948305,None,400.5915880948305,None,400.5915880948305,None,400.5915880948305,None,400.5915880948305,None,410.0785737461556,None,401.57534191783634,None,402.5757393367239,None,0.67,7.502892646341934,405.576844878,None,None,405.576844878,None,,,,,,,,,,,,,,,,,,,24295,2020_Mar_10_1543,Mmi_3levels,3.1.5,59.97328692137069,
,,,1,1,10.9,,,,,,,,,0,0,0,0,0,22,22,26,,,,,,,,,,,,,,,,,,,,,,,,,,,,,,,,,,,,,,,,,,,,,,,,,,,,,,,,,,,,,True,True,True,0.67,-0.32999999999999996,-8.13,12.75,10.9,-1.8499999999999996,-0.9249999999999998,gamble,win,10.9,92.14666666666666,412.09601153986296,None,412.09601153986296,None,412.09601153986296,None,412.09601153986296,None,412.09601153986296,None,412.09601153986296,None,412.09601153986296,None,1,1.2007179778738646,412.09601153986296,None,413.3298138402897,None,413.3298138402897,None,413.3298138402897,None,413.3298138402897,None,413.3298138402897,None,413.3298138402897,None,413.3298138402897,None,417.3312848021451,None,417.3312848021451,None,417.3312848021451,None,417.3312848021451,None,417.3312848021451,None,417.3312848021451,None,417.3312848021451,None,418.3150888624805,None,,,,,,,,,,,,,,,,,,,,,,,,,,,,,,24295,2020_Mar_10_1543,Mmi_3levels,3.1.5,59.97328692137069,
,,,1,1,12.7,,,,,,,,,0,0,0,0,0,23,23,20,,,,,,,,,,,,,,,,,,,,,,,,,,,,,,,,,,,,,,,,,,,,,,,,,,,,,,,,,,,,,True,True,False,0.67,-0.32999999999999996,-8.46,13.08,12.7,-0.3800000000000008,-0.1900000000000004,gamble,win,12.7,104.84666666666666,420.3324668193527,None,420.3324668193527,None,420.3324668193527,None,420.3324668193527,None,420.3324668193527,None,420.3324668193527,None,420.3324668193527,None,1,1.3508088850358035,420.3324668193527,None,421.7163526673394,None,421.7163526673394,None,421.7163526673394,None,421.7163526673394,None,421.7163526673394,None,421.7163526673394,None,421.7163526673394,None,425.7178869858326,None,425.7178869858326,None,425.7178869858326,None,425.7178869858326,None,425.7178869858326,None,425.7178869858326,None,425.7178869858326,None,435.2048607977922,None,426.70161777005706,None,427.7019460726151,None,0.63,7.502820970141329,430.70303913456155,None,None,430.70303913456155,None,,,,,,,,,,,,,,,,,,,24295,2020_Mar_10_1543,Mmi_3levels,3.1.5,59.97328692137069,
,,,1,1,7.1,,,,,,,,,0,0,0,0,0,24,24,2,,,,,,,,,,,,,,,,,,,,,,,,,,,,,,,,,,,,,,,,,,,,,,,,,,,,,,,,,,,,,True,True,True,0.63,-0.37,-8.83,14.01,7.1,-6.91,0.09499999999999975,gamble,win,7.1,111.94666666666666,437.2223027512664,None,437.2223027512664,None,437.2223027512664,None,437.2223027512664,None,437.2223027512664,None,437.2223027512664,None,437.2223027512664,None,None,,437.2223027512664,None,440.2234393309045,None,440.2234393309045,None,440.2234393309045,None,440.2234393309045,None,440.2234393309045,None,440.2234393309045,None,440.2234393309045,None,444.2082689367526,None,444.2082689367526,None,444.2082689367526,None,444.2082689367526,None,444.2082689367526,None,444.2082689367526,None,444.2082689367526,None,445.2086759551312,None,,,,,,,,,,,,,,,,,,,,,,,,,,,,,,24295,2020_Mar_10_1543,Mmi_3levels,3.1.5,59.97328692137069,
,,,1,1,8.1,,,,,,,,,0,0,0,0,0,25,25,7,,,,,,,,,,,,,,,,,,,,,,,,,,,,,,,,,,,,,,,,,,,,,,,,,,,,,,,,,,,,,True,True,True,0.63,-0.37,-9.2,14.379999999999999,8.1,-6.279999999999999,0.9100000000000001,gamble,win,8.1,120.04666666666665,447.22611246889574,None,447.22611246889574,None,447.22611246889574,None,447.22611246889574,None,447.22611246889574,None,447.22611246889574,None,447.22611246889574,None,1,1.667565178941004,447.22611246889574,None,448.92676485024276,None,448.92676485024276,None,448.92676485024276,None,448.92676485024276,None,448.92676485024276,None,448.92676485024276,None,448.92676485024276,None,452.91155637812335,None,452.91155637812335,None,452.91155637812335,None,452.91155637812335,None,452.91155637812335,None,452.91155637812335,None,452.91155637812335,None,453.91191635899304,None,,,,,,,,,,,,,,,,,,,,,,,,,,,,,,24295,2020_Mar_10_1543,Mmi_3levels,3.1.5,59.97328692137069,
,,,1,1,8.7,,,,,,,,,0,0,0,0,0,26,26,16,,,,,,,,,,,,,,,,,,,,,,,,,,,,,,,,,,,,,,,,,,,,,,,,,,,,,,,,,,,,,True,False,False,0.63,-0.37,-9.569999999999999,-2.0925,8.7,6.6075,3.30375,gamble,lose,6.6075,126.65416666666665,455.9294373482844,None,455.9294373482844,None,455.9294373482844,None,455.9294373482844,None,455.9294373482844,None,455.9294373482844,None,455.9294373482844,None,1,0.9005998401407851,455.9294373482844,None,456.86307191361266,None,456.86307191361266,None,456.86307191361266,None,456.86307191361266,None,456.86307191361266,None,456.86307191361266,None,456.86307191361266,None,460.8646315107617,None,460.8646315107617,None,460.8646315107617,None,460.8646315107617,None,460.8646315107617,None,460.8646315107617,None,460.8646315107617,None,470.35160404279304,None,461.84836453487515,None,462.8487139563076,None,0.58,7.502812970575178,465.8498719748022,None,None,465.8498719748022,None,,,,,,,,,,,,,,,,,,,24295,2020_Mar_10_1543,Mmi_3levels,3.1.5,59.97328692137069,
,,,2,0,6.5,,,,,,,,,0,1,1,1,0,0,0,8,,,,,,,,,,,,,,,,,,,,,,,,,,,,,,,,,,,,,,,,,,,,,,,,,474.98668294739036,None,0.61,7.501840862212703,478.0044871216378,None,None,,478.0044871216378,None,482.4895525549655,None,False,False,False,0.61,0.61,0.61,2.185833333333333,1.625,-0.5608333333333331,0.5320833333333335,gamble,win,1.625,128.27916666666664,485.52406496166077,None,485.52406496166077,None,485.52406496166077,None,485.52406496166077,None,485.52406496166077,None,485.52406496166077,None,485.52406496166077,None,None,,485.52406496166077,None,488.5251909818471,None,488.5251909818471,None,488.5251909818471,None,488.5251909818471,None,488.5251909818471,None,488.5251909818471,None,488.5251909818471,None,492.51006154553033,None,492.51006154553033,None,492.51006154553033,None,492.51006154553033,None,492.51006154553033,None,492.51006154553033,None,492.51006154553033,None,493.5104436052352,None,,,,,,,,,,,,472.35233872376557,None,4,2.617823181222775,472.35233872376557,None,,,,,,,,,,,,,24295,2020_Mar_10_1543,Mmi_3levels,3.1.5,59.97328692137069,
,,,2,0,7.7,,,,,,,,,0,1,1,1,0,1,1,4,,,,,,,,,,,,,,,,,,,,,,,,,,,,,,,,,,,,,,,,,,,,,,,,,,,,,,,,,,,,,False,False,True,0.61,0.61,1.22,2.2366666666666664,1.925,-0.3116666666666663,0.8066666666666669,gamble,win,1.925,130.20416666666665,495.5278807589639,None,495.5278807589639,None,495.5278807589639,None,495.5278807589639,None,495.5278807589639,None,495.5278807589639,None,495.5278807589639,None,1,1.3007616235408932,495.5278807589639,None,496.8617337446922,None,496.8617337446922,None,496.8617337446922,None,496.8617337446922,None,496.8617337446922,None,496.8617337446922,None,496.8617337446922,None,500.8464903944259,None,500.8464903944259,None,500.8464903944259,None,500.8464903944259,None,500.8464903944259,None,500.8464903944259,None,500.8464903944259,None,510.35020891689055,None,501.84693645073276,None,502.8473482688569,None,0.6,7.502787691919366,505.84848388853425,None,None,505.84848388853425,None,,,,,,,,,,,,,,,,,,,24295,2020_Mar_10_1543,Mmi_3levels,3.1.5,59.97328692137069,
,,,2,0,0.5,,,,,,,,,0,1,1,1,0,2,2,7,,,,,,,,,,,,,,,,,,,,,,,,,,,,,,,,,,,,,,,,,,,,,,,,,,,,,,,,,,,,,False,True,False,0.6,0.6,1.8199999999999998,-10.22,0.5,-9.72,-4.61,certain,certain,-4.61,125.59416666666665,512.3676435107773,None,512.3676435107773,None,512.3676435107773,None,512.3676435107773,None,512.3676435107773,None,512.3676435107773,None,512.3676435107773,None,3,1.667519101392827,512.3676435107773,None,514.0682949321636,None,514.0682949321636,None,514.0682949321636,None,514.0682949321636,None,514.0682949321636,None,514.0682949321636,None,514.0682949321636,None,518.0697716537252,None,518.0697716537252,None,518.0697716537252,None,518.0697716537252,None,518.0697716537252,None,518.0697716537252,None,518.0697716537252,None,519.0535005180427,None,,,,,,,,,,,,,,,,,,,,,,,,,,,,,,24295,2020_Mar_10_1543,Mmi_3levels,3.1.5,59.97328692137069,
,,,2,0,3.3,,,,,,,,,0,1,1,1,0,3,3,14,,,,,,,,,,,,,,,,,,,,,,,,,,,,,,,,,,,,,,,,,,,,,,,,,,,,,,,,,,,,,False,True,False,0.6,0.6,2.42,-10.82,3.3,-7.5200000000000005,-2.1100000000000003,gamble,lose,-7.5200000000000005,118.07416666666666,521.070875915073,None,521.070875915073,None,521.070875915073,None,521.070875915073,None,521.070875915073,None,521.070875915073,None,521.070875915073,None,1,1.4508998882083688,521.070875915073,None,522.5548671654542,None,522.5548671654542,None,522.5548671654542,None,522.5548671654542,None,522.5548671654542,None,522.5548671654542,None,522.5548671654542,None,526.5563922044385,None,526.5563922044385,None,526.5563922044385,None,526.5563922044385,None,526.5563922044385,None,526.5563922044385,None,526.5563922044385,None,536.0432645817782,None,527.5400445928244,None,528.5404525711492,None,0.59,7.502797611392452,531.5415654720418,None,None,531.5415654720418,None,,,,,,,,,,,,,,,,,,,24295,2020_Mar_10_1543,Mmi_3levels,3.1.5,59.97328692137069,
,,,2,0,13.5,,,,,,,,,0,1,1,1,0,4,4,3,,,,,,,,,,,,,,,,,,,,,,,,,,,,,,,,,,,,,,,,,,,,,,,,,,,,,,,,,,,,,False,True,False,0.59,0.59,3.01,-11.27,13.5,2.2300000000000004,1.1150000000000002,gamble,lose,2.2300000000000004,120.30416666666666,538.0607820512523,None,538.0607820512523,None,538.0607820512523,None,538.0607820512523,None,538.0607820512523,None,538.0607820512523,None,538.0607820512523,None,1,0.9337465593707748,538.0607820512523,None,539.027793083631,None,539.027793083631,None,539.027793083631,None,539.027793083631,None,539.027793083631,None,539.027793083631,None,539.027793083631,None,543.0293440412352,None,543.0293440412352,None,543.0293440412352,None,543.0293440412352,None,543.0293440412352,None,543.0293440412352,None,543.0293440412352,None,544.0129993094743,None,,,,,,,,,,,,,,,,,,,,,,,,,,,,,,24295,2020_Mar_10_1543,Mmi_3levels,3.1.5,59.97328692137069,
,,,2,0,12.3,,,,,,,,,0,1,1,1,0,5,5,5,,,,,,,,,,,,,,,,,,,,,,,,,,,,,,,,,,,,,,,,,,,,,,,,,,,,,,,,,,,,,False,True,False,0.59,0.59,3.5999999999999996,-11.86,12.3,0.4400000000000013,0.22000000000000064,gamble,lose,0.4400000000000013,120.74416666666666,546.0304671815829,None,546.0304671815829,None,546.0304671815829,None,546.0304671815829,None,546.0304671815829,None,546.0304671815829,None,546.0304671815829,None,1,0.9172831139294431,546.0304671815829,None,546.9808547769935,None,546.9808547769935,None,546.9808547769935,None,546.9808547769935,None,546.9808547769935,None,546.9808547769935,None,546.9808547769935,None,550.9657074216229,None,550.9657074216229,None,550.9657074216229,None,550.9657074216229,None,550.9657074216229,None,550.9657074216229,None,550.9657074216229,None,551.9660651626182,None,,,,,,,,,,,,,,,,,,,,,,,,,,,,,,24295,2020_Mar_10_1543,Mmi_3levels,3.1.5,59.97328692137069,
,,,2,0,9.1,,,,,,,,,0,1,1,1,0,6,6,21,,,,,,,,,,,,,,,,,,,,,,,,,,,,,,,,,,,,,,,,,,,,,,,,,,,,,,,,,,,,,False,False,False,0.59,0.59,4.1899999999999995,2.4141666666666666,2.275,-0.13916666666666666,1.0679166666666666,gamble,win,2.275,123.01916666666666,553.9835000764724,None,553.9835000764724,None,553.9835000764724,None,553.9835000764724,None,553.9835000764724,None,553.9835000764724,None,553.9835000764724,None,1,1.0506744281738065,553.9835000764724,None,555.0672210692137,None,555.0672210692137,None,555.0672210692137,None,555.0672210692137,None,555.0672210692137,None,555.0672210692137,None,555.0672210692137,None,559.0687771465455,None,559.0687771465455,None,559.0687771465455,None,559.0687771465455,None,559.0687771465455,None,559.0687771465455,None,559.0687771465455,None,568.5557288796699,None,560.0524855319672,None,561.052836233328,None,0.61,7.50285008859646,564.0539980916219,None,None,564.0539980916219,None,,,,,,,,,,,,,,,,,,,24295,2020_Mar_10_1543,Mmi_3levels,3.1.5,59.97328692137069,
,,,2,0,8.3,,,,,,,,,0,1,1,1,0,7,7,2,,,,,,,,,,,,,,,,,,,,,,,,,,,,,,,,,,,,,,,,,,,,,,,,,,,,,,,,,,,,,False,True,False,0.61,0.61,4.8,-13.34,8.3,-5.039999999999999,1.6300000000000008,gamble,lose,-5.039999999999999,117.97916666666666,570.5731356350298,None,570.5731356350298,None,570.5731356350298,None,570.5731356350298,None,570.5731356350298,None,570.5731356350298,None,570.5731356350298,None,1,1.1173960039159283,570.5731356350298,None,571.7236354804772,None,571.7236354804772,None,571.7236354804772,None,571.7236354804772,None,571.7236354804772,None,571.7236354804772,None,571.7236354804772,None,575.7251585995691,None,575.7251585995691,None,575.7251585995691,None,575.7251585995691,None,575.7251585995691,None,575.7251585995691,None,575.7251585995691,None,576.7088161076827,None,,,,,,,,,,,,,,,,,,,,,,,,,,,,,,24295,2020_Mar_10_1543,Mmi_3levels,3.1.5,59.97328692137069,
,,,2,0,-0.9,,,,,,,,,0,1,1,1,0,8,8,15,,,,,,,,,,,,,,,,,,,,,,,,,,,,,,,,,,,,,,,,,,,,,,,,,,,,,,,,,,,,,False,False,True,0.61,0.61,5.41,2.585833333333333,-0.225,-2.810833333333333,-1.5179166666666666,certain,certain,-1.5179166666666666,116.46124999999999,578.7262462217914,None,578.7262462217914,None,578.7262462217914,None,578.7262462217914,None,578.7262462217914,None,578.7262462217914,None,578.7262462217914,None,3,1.8676643096696353,578.7262462217914,None,580.6270038135553,None,580.6270038135553,None,580.6270038135553,None,580.6270038135553,None,580.6270038135553,None,580.6270038135553,None,580.6270038135553,None,584.628497174228,None,584.628497174228,None,584.628497174228,None,584.628497174228,None,584.628497174228,None,584.628497174228,None,584.628497174228,None,594.1154837854992,None,585.6122679563268,None,586.612613857942,None,0.59,7.502778732392471,589.6137363583257,None,None,589.6137363583257,None,,,,,,,,,,,,,,,,,,,24295,2020_Mar_10_1543,Mmi_3levels,3.1.5,59.97328692137069,
,,,2,0,2.1,,,,,,,,,0,1,1,1,0,9,9,17,,,,,,,,,,,,,,,,,,,,,,,,,,,,,,,,,,,,,,,,,,,,,,,,,,,,,,,,,,,,,False,False,False,0.59,0.59,6.0,2.565,0.525,-2.04,-0.7575000000000001,certain,certain,-0.7575000000000001,115.70375,596.1329084598983,None,596.1329084598983,None,596.1329084598983,None,596.1329084598983,None,596.1329084598983,None,596.1329084598983,None,596.1329084598983,None,3,2.36782942089485,596.1329084598983,None,598.5338385224895,None,598.5338385224895,None,598.5338385224895,None,598.5338385224895,None,598.5338385224895,None,598.5338385224895,None,598.5338385224895,None,602.5353936398897,None,602.5353936398897,None,602.5353936398897,None,602.5353936398897,None,602.5353936398897,None,602.5353936398897,None,602.5353936398897,None,603.51906714715,None,,,,,,,,,,,,,,,,,,,,,,,,,,,,,,24295,2020_Mar_10_1543,Mmi_3levels,3.1.5,59.97328692137069,
,,,2,0,6.1,,,,,,,,,0,1,1,1,0,10,10,24,,,,,,,,,,,,,,,,,,,,,,,,,,,,,,,,,,,,,,,,,,,,,,,,,,,,,,,,,,,,,False,True,True,0.59,0.59,6.59,-14.85,6.1,-8.75,-1.3250000000000002,certain,certain,-1.3250000000000002,114.37875,605.5364835019864,None,605.5364835019864,None,605.5364835019864,None,605.5364835019864,None,605.5364835019864,None,605.5364835019864,None,605.5364835019864,None,3,2.101087750212173,605.5364835019864,None,607.6706526949274,None,607.6706526949274,None,607.6706526949274,None,607.6706526949274,None,607.6706526949274,None,607.6706526949274,None,607.6706526949274,None,611.6722135720047,None,611.6722135720047,None,611.6722135720047,None,611.6722135720047,None,611.6722135720047,None,611.6722135720047,None,611.6722135720047,None,612.655914917792,None,,,,,,,,,,,,,,,,,,,,,,,,,,,,,,24295,2020_Mar_10_1543,Mmi_3levels,3.1.5,59.97328692137069,
,,,2,0,5.1,,,,,,,,,0,1,1,1,0,11,11,26,,,,,,,,,,,,,,,,,,,,,,,,,,,,,,,,,,,,,,,,,,,,,,,,,,,,,,,,,,,,,False,True,True,0.59,0.59,7.18,-15.44,5.1,-10.34,-2.62,certain,certain,-2.62,111.75874999999999,614.6733255129366,None,614.6733255129366,None,614.6733255129366,None,614.6733255129366,None,614.6733255129366,None,614.6733255129366,None,614.6733255129366,None,3,1.734245156898396,614.6733255129366,None,616.4406965901871,None,616.4406965901871,None,616.4406965901871,None,616.4406965901871,None,616.4406965901871,None,616.4406965901871,None,616.4406965901871,None,620.4421973104763,None,620.4421973104763,None,620.4421973104763,None,620.4421973104763,None,620.4421973104763,None,620.4421973104763,None,620.4421973104763,None,629.929150323529,None,621.4259338543925,None,622.4263184739539,None,0.55,7.502773612664896,625.4274486539216,None,None,625.4274486539216,None,,,,,,,,,,,,,,,,,,,24295,2020_Mar_10_1543,Mmi_3levels,3.1.5,59.97328692137069,
,,,2,0,4.3,,,,,,,,,0,1,1,1,0,12,12,22,,,,,,,,,,,,,,,,,,,,,,,,,,,,,,,,,,,,,,,,,,,,,,,,,,,,,,,,,,,,,False,False,True,0.55,0.55,7.7299999999999995,2.569166666666667,1.075,-1.4941666666666669,-0.20958333333333345,gamble,win,1.075,112.83375,631.9466178756556,None,631.9466178756556,None,631.9466178756556,None,631.9466178756556,None,631.9466178756556,None,631.9466178756556,None,631.9466178756556,None,None,,631.9466178756556,None,634.9477390960965,None,634.9477390960965,None,634.9477390960965,None,634.9477390960965,None,634.9477390960965,None,634.9477390960965,None,634.9477390960965,None,638.9492884537904,None,638.9492884537904,None,638.9492884537904,None,638.9492884537904,None,638.9492884537904,None,638.9492884537904,None,638.9492884537904,None,639.9329802000866,None,,,,,,,,,,,,,,,,,,,,,,,,,,,,,,24295,2020_Mar_10_1543,Mmi_3levels,3.1.5,59.97328692137069,
,,,2,0,-0.5,,,,,,,,,0,1,1,1,0,13,13,12,,,,,,,,,,,,,,,,,,,,,,,,,,,,,,,,,,,,,,,,,,,,,,,,,,,,,,,,,,,,,False,False,False,0.55,0.55,8.28,2.615,-0.125,-2.74,-1.4325,certain,certain,-1.4325,111.40124999999999,641.9503754360485,None,641.9503754360485,None,641.9503754360485,None,641.9503754360485,None,641.9503754360485,None,641.9503754360485,None,641.9503754360485,None,3,1.71761532027449,641.9503754360485,None,643.7010734789656,None,643.7010734789656,None,643.7010734789656,None,643.7010734789656,None,643.7010734789656,None,643.7010734789656,None,643.7010734789656,None,647.7026023577637,None,647.7026023577637,None,647.7026023577637,None,647.7026023577637,None,647.7026023577637,None,647.7026023577637,None,647.7026023577637,None,657.1895534509094,None,648.6862880243716,None,649.6866368058545,None,0.59,7.502764973134617,652.6878572210262,None,None,652.6878572210262,None,,,,,,,,,,,,,,,,,,,24295,2020_Mar_10_1543,Mmi_3levels,3.1.5,59.97328692137069,
,,,2,0,2.9,,,,,,,,,0,1,1,1,0,14,14,10,,,,,,,,,,,,,,,,,,,,,,,,,,,,,,,,,,,,,,,,,,,,,,,,,,,,,,,,,,,,,False,True,True,0.59,0.59,8.87,-17.13,2.9,-14.229999999999999,-5.664999999999999,certain,certain,-5.664999999999999,105.73624999999998,659.2070197231078,None,659.2070197231078,None,659.2070197231078,None,659.2070197231078,None,659.2070197231078,None,659.2070197231078,None,659.2070197231078,None,3,1.7174793274898548,659.2070197231078,None,660.9576048120216,None,660.9576048120216,None,660.9576048120216,None,660.9576048120216,None,660.9576048120216,None,660.9576048120216,None,660.9576048120216,None,664.9592133665865,None,664.9592133665865,None,664.9592133665865,None,664.9592133665865,None,664.9592133665865,None,664.9592133665865,None,664.9592133665865,None,665.9429198320868,None,,,,,,,,,,,,,,,,,,,,,,,,,,,,,,24295,2020_Mar_10_1543,Mmi_3levels,3.1.5,59.97328692137069,
,,,2,0,10.5,,,,,,,,,0,1,1,1,0,15,15,13,,,,,,,,,,,,,,,,,,,,,,,,,,,,,,,,,,,,,,,,,,,,,,,,,,,,,,,,,,,,,False,True,True,0.59,0.59,9.459999999999999,-17.72,10.5,-7.219999999999999,1.6400000000000006,certain,certain,1.6400000000000006,107.37624999999998,667.9603585857403,None,667.9603585857403,None,667.9603585857403,None,667.9603585857403,None,667.9603585857403,None,667.9603585857403,None,667.9603585857403,None,3,2.30113472371886,667.9603585857403,None,670.2945843516791,None,670.2945843516791,None,670.2945843516791,None,670.2945843516791,None,670.2945843516791,None,670.2945843516791,None,670.2945843516791,None,674.2961145103909,None,674.2961145103909,None,674.2961145103909,None,674.2961145103909,None,674.2961145103909,None,674.2961145103909,None,674.2961145103909,None,683.7830627236981,None,675.2798299354326,None,676.2802001557575,None,0.56,7.502765613098745,679.2813412151445,None,None,679.2813412151445,None,,,,,,,,,,,,,,,,,,,24295,2020_Mar_10_1543,Mmi_3levels,3.1.5,59.97328692137069,
,,,2,0,5.7,,,,,,,,,0,1,1,1,0,16,16,23,,,,,,,,,,,,,,,,,,,,,,,,,,,,,,,,,,,,,,,,,,,,,,,,,,,,,,,,,,,,,False,True,True,0.56,0.56,10.02,-17.86,5.7,-12.16,-3.23,certain,certain,-3.23,104.14624999999998,685.8004765186779,None,685.8004765186779,None,685.8004765186779,None,685.8004765186779,None,685.8004765186779,None,685.8004765186779,None,685.8004765186779,None,3,1.3340449755341979,685.8004765186779,None,687.1676086966181,None,687.1676086966181,None,687.1676086966181,None,687.1676086966181,None,687.1676086966181,None,687.1676086966181,None,687.1676086966181,None,691.1692146913119,None,691.1692146913119,None,691.1692146913119,None,691.1692146913119,None,691.1692146913119,None,691.1692146913119,None,691.1692146913119,None,692.1529061176261,None,,,,,,,,,,,,,,,,,,,,,,,,,,,,,,24295,2020_Mar_10_1543,Mmi_3levels,3.1.5,59.97328692137069,
,,,2,0,-1.3,,,,,,,,,0,1,1,1,0,17,17,1,,,,,,,,,,,,,,,,,,,,,,,,,,,,,,,,,,,,,,,,,,,,,,,,,,,,,,,,,,,,,False,True,False,0.56,0.56,10.58,-18.42,-1.3,-19.720000000000002,-10.510000000000002,gamble,lose,-19.720000000000002,84.42624999999998,694.1703311120073,None,694.1703311120073,None,694.1703311120073,None,694.1703311120073,None,694.1703311120073,None,694.1703311120073,None,694.1703311120073,None,1,2.8346151852456387,694.1703311120073,None,697.0380738175154,None,697.0380738175154,None,697.0380738175154,None,697.0380738175154,None,697.0380738175154,None,697.0380738175154,None,697.0380738175154,None,701.0396471739368,None,701.0396471739368,None,701.0396471739368,None,701.0396471739368,None,701.0396471739368,None,701.0396471739368,None,701.0396471739368,None,702.0233603590896,None,,,,,,,,,,,,,,,,,,,,,,,,,,,,,,24295,2020_Mar_10_1543,Mmi_3levels,3.1.5,59.97328692137069,
,,,2,0,7.1,,,,,,,,,0,1,1,1,0,18,18,9,,,,,,,,,,,,,,,,,,,,,,,,,,,,,,,,,,,,,,,,,,,,,,,,,,,,,,,,,,,,,False,False,False,0.56,0.56,11.14,2.8883333333333336,1.775,-1.1133333333333337,0.3308333333333331,gamble,win,1.775,86.20124999999999,704.0407405558508,None,704.0407405558508,None,704.0407405558508,None,704.0407405558508,None,704.0407405558508,None,704.0407405558508,None,704.0407405558508,None,1,1.4008481469500111,704.0407405558508,None,705.4746762251889,None,705.4746762251889,None,705.4746762251889,None,705.4746762251889,None,705.4746762251889,None,705.4746762251889,None,705.4746762251889,None,709.476176625496,None,709.476176625496,None,709.476176625496,None,709.476176625496,None,709.476176625496,None,709.476176625496,None,709.476176625496,None,718.9631293185666,None,710.459917329179,None,711.4602990689018,None,0.57,7.502759213428362,714.4613447733573,None,None,714.4613447733573,None,,,,,,,,,,,,,,,,,,,24295,2020_Mar_10_1543,Mmi_3levels,3.1.5,59.97328692137069,
,,,2,0,5.3,,,,,,,,,0,1,1,1,0,19,19,11,,,,,,,,,,,,,,,,,,,,,,,,,,,,,,,,,,,,,,,,,,,,,,,,,,,,,,,,,,,,,False,True,True,0.57,0.57,11.71,-19.69,5.3,-14.39,-4.545,certain,certain,-4.545,81.65624999999999,720.9805735119298,None,720.9805735119298,None,720.9805735119298,None,720.9805735119298,None,720.9805735119298,None,720.9805735119298,None,720.9805735119298,None,3,2.917990596339223,720.9805735119298,None,723.9317210669687,None,723.9317210669687,None,723.9317210669687,None,723.9317210669687,None,723.9317210669687,None,723.9317210669687,None,723.9317210669687,None,727.9332310667669,None,727.9332310667669,None,727.9332310667669,None,727.9332310667669,None,727.9332310667669,None,727.9332310667669,None,727.9332310667669,None,728.9169624909409,None,,,,,,,,,,,,,,,,,,,,,,,,,,,,,,24295,2020_Mar_10_1543,Mmi_3levels,3.1.5,59.97328692137069,
,,,2,0,9.9,,,,,,,,,0,1,1,1,0,20,20,16,,,,,,,,,,,,,,,,,,,,,,,,,,,,,,,,,,,,,,,,,,,,,,,,,,,,,,,,,,,,,False,True,False,0.57,0.57,12.280000000000001,-20.26,9.9,-10.360000000000001,-0.23000000000000043,certain,certain,-0.23000000000000043,81.42624999999998,730.9343132492795,None,730.9343132492795,None,730.9343132492795,None,730.9343132492795,None,730.9343132492795,None,730.9343132492795,None,730.9343132492795,None,3,1.5842166464135516,730.9343132492795,None,732.5516257376294,None,732.5516257376294,None,732.5516257376294,None,732.5516257376294,None,732.5516257376294,None,732.5516257376294,None,732.5516257376294,None,736.553176375266,None,736.553176375266,None,736.553176375266,None,736.553176375266,None,736.553176375266,None,736.553176375266,None,736.553176375266,None,746.0401604266663,None,737.5368882804905,None,738.5372703401954,None,0.59,7.502806250922731,741.5383474029804,None,None,741.5383474029804,None,,,,,,,,,,,,,,,,,,,24295,2020_Mar_10_1543,Mmi_3levels,3.1.5,59.97328692137069,
,,,2,0,10.9,,,,,,,,,0,1,1,1,0,21,21,18,,,,,,,,,,,,,,,,,,,,,,,,,,,,,,,,,,,,,,,,,,,,,,,,,,,,,,,,,,,,,False,True,False,0.59,0.59,12.870000000000001,-21.130000000000003,10.9,-10.230000000000002,0.3349999999999991,gamble,lose,-10.230000000000002,71.19624999999998,748.0575982203736,None,748.0575982203736,None,748.0575982203736,None,748.0575982203736,None,748.0575982203736,None,748.0575982203736,None,748.0575982203736,None,1,2.151024617574876,748.0575982203736,None,750.2417401187558,None,750.2417401187558,None,750.2417401187558,None,750.2417401187558,None,750.2417401187558,None,750.2417401187558,None,750.2417401187558,None,754.243293316249,None,754.243293316249,None,754.243293316249,None,754.243293316249,None,754.243293316249,None,754.243293316249,None,754.243293316249,None,755.2269463445991,None,,,,,,,,,,,,,,,,,,,,,,,,,,,,,,24295,2020_Mar_10_1543,Mmi_3levels,3.1.5,59.97328692137069,
,,,2,0,0.1,,,,,,,,,0,1,1,1,0,22,22,0,,,,,,,,,,,,,,,,,,,,,,,,,,,,,,,,,,,,,,,,,,,,,,,,,,,,,,,,,,,,,False,False,True,0.59,0.59,13.46,3.1866666666666665,0.025,-3.1616666666666666,-1.5683333333333334,gamble,win,0.025,71.22124999999998,757.2444129367796,None,757.2444129367796,None,757.2444129367796,None,757.2444129367796,None,757.2444129367796,None,757.2444129367796,None,757.2444129367796,None,1,2.784682157682255,757.2444129367796,None,760.0621806969575,None,760.0621806969575,None,760.0621806969575,None,760.0621806969575,None,760.0621806969575,None,760.0621806969575,None,760.0621806969575,None,764.063625740193,None,764.063625740193,None,764.063625740193,None,764.063625740193,None,764.063625740193,None,764.063625740193,None,764.063625740193,None,773.5506593889731,None,765.0474157212739,None,766.0477693024877,None,0.57,7.502857448213035,769.0489030022727,None,None,769.0489030022727,None,,,,,,,,,,,,,,,,,,,24295,2020_Mar_10_1543,Mmi_3levels,3.1.5,59.97328692137069,
,,,2,0,3.1,,,,,,,,,0,1,1,1,0,23,23,6,,,,,,,,,,,,,,,,,,,,,,,,,,,,,,,,,,,,,,,,,,,,,,,,,,,,,,,,,,,,,False,False,False,0.57,0.57,14.030000000000001,3.1641666666666666,0.775,-2.3891666666666667,-0.8070833333333334,certain,certain,-0.8070833333333334,70.41416666666665,775.5680738239171,None,775.5680738239171,None,775.5680738239171,None,775.5680738239171,None,775.5680738239171,None,775.5680738239171,None,775.5680738239171,None,3,2.11780302230909,775.5680738239171,None,777.718887252704,None,777.718887252704,None,777.718887252704,None,777.718887252704,None,777.718887252704,None,777.718887252704,None,777.718887252704,None,781.7037670958816,None,781.7037670958816,None,781.7037670958816,None,781.7037670958816,None,781.7037670958816,None,781.7037670958816,None,781.7037670958816,None,782.7041273967479,None,,,,,,,,,,,,,,,,,,,,,,,,,,,,,,24295,2020_Mar_10_1543,Mmi_3levels,3.1.5,59.97328692137069,
,,,2,0,2.3,,,,,,,,,0,1,1,1,0,24,24,25,,,,,,,,,,,,,,,,,,,,,,,,,,,,,,,,,,,,,,,,,,,,,,,,,,,,,,,,,,,,,False,True,True,0.57,0.57,14.600000000000001,-22.580000000000002,2.3,-20.28,-8.99,certain,certain,-8.99,61.42416666666664,784.7215920690214,None,784.7215920690214,None,784.7215920690214,None,784.7215920690214,None,784.7215920690214,None,784.7215920690214,None,784.7215920690214,None,3,1.734226597880479,784.7215920690214,None,786.4889029894694,None,786.4889029894694,None,786.4889029894694,None,786.4889029894694,None,786.4889029894694,None,786.4889029894694,None,786.4889029894694,None,790.4904302683426,None,790.4904302683426,None,790.4904302683426,None,790.4904302683426,None,790.4904302683426,None,790.4904302683426,None,790.4904302683426,None,791.4741328940581,None,,,,,,,,,,,,,,,,,,,,,,,,,,,,,,24295,2020_Mar_10_1543,Mmi_3levels,3.1.5,59.97328692137069,
,,,2,0,1.9,,,,,,,,,0,1,1,1,0,25,25,19,,,,,,,,,,,,,,,,,,,,,,,,,,,,,,,,,,,,,,,,,,,,,,,,,,,,,,,,,,,,,False,True,True,0.57,0.57,15.170000000000002,-23.150000000000002,1.9,-21.250000000000004,-9.675000000000002,certain,certain,-9.675000000000002,51.74916666666664,793.4916023660771,None,793.4916023660771,None,793.4916023660771,None,793.4916023660771,None,793.4916023660771,None,793.4916023660771,None,793.4916023660771,None,3,1.5675106538255932,793.4916023660771,None,795.0922171814163,None,795.0922171814163,None,795.0922171814163,None,795.0922171814163,None,795.0922171814163,None,795.0922171814163,None,795.0922171814163,None,799.0937419004185,None,799.0937419004185,None,799.0937419004185,None,799.0937419004185,None,799.0937419004185,None,799.0937419004185,None,799.0937419004185,None,808.5806968333782,None,800.0774282070051,None,801.0777536297246,None,0.58,7.502847848722013,804.0789065284771,None,None,804.0789065284771,None,,,,,,,,,,,,,,,,,,,24295,2020_Mar_10_1543,Mmi_3levels,3.1.5,59.97328692137069,
,,,2,0,8.1,,,,,,,,,0,1,1,1,0,26,26,20,,,,,,,,,,,,,,,,,,,,,,,,,,,,,,,,,,,,,,,,,,,,,,,,,,,,,,,,,,,,,False,True,False,0.58,0.58,15.750000000000002,-23.87,8.1,-15.770000000000001,-3.835000000000001,certain,certain,-3.835000000000001,47.91416666666664,810.5980453518277,None,810.5980453518277,None,810.5980453518277,None,810.5980453518277,None,810.5980453518277,None,810.5980453518277,None,810.5980453518277,None,3,1.7676427428232273,810.5980453518277,None,812.3987964159314,None,812.3987964159314,None,812.3987964159314,None,812.3987964159314,None,812.3987964159314,None,812.3987964159314,None,812.3987964159314,None,816.4003236948047,None,816.4003236948047,None,816.4003236948047,None,816.4003236948047,None,816.4003236948047,None,816.4003236948047,None,816.4003236948047,None,817.3839751232299,None,,,,,,,,,,,,,,,,,,,,,,,,,,,,,,24295,2020_Mar_10_1543,Mmi_3levels,3.1.5,59.97328692137069,
,,,3,1,-0.7,,,,,,,,,0,2,2,2,0,0,0,2,,,,,,,,,,,,,,,,,,,,,,,,,,,,,,,,,,,,,,,,,,,,,,,,,821.1521560774709,None,0.58,7.502072529910947,824.1532929770765,None,None,,824.1532929770765,None,828.6549722478667,None,True,True,False,0.58,-0.42000000000000004,-0.42000000000000004,6.300000000000001,-0.7,-7.000000000000001,-3.8500000000000005,certain,certain,-3.8500000000000005,44.06416666666664,831.6894891343254,None,831.6894891343254,None,831.6894891343254,None,831.6894891343254,None,831.6894891343254,None,831.6894891343254,None,831.6894891343254,None,3,2.701311866316246,831.6894891343254,None,834.4238917228649,None,834.4238917228649,None,834.4238917228649,None,834.4238917228649,None,834.4238917228649,None,834.4238917228649,None,834.4238917228649,None,838.4254154819209,None,838.4254154819209,None,838.4254154819209,None,838.4254154819209,None,838.4254154819209,None,838.4254154819209,None,838.4254154819209,None,847.9123742546799,None,839.4091008285613,None,840.409508166922,None,0.56,7.502795371503453,843.4105845897429,None,None,843.4105845897429,None,819.3847578016575,None,4,1.750850674812682,819.3847578016575,None,,,,,,,,,,,,,24295,2020_Mar_10_1543,Mmi_3levels,3.1.5,59.97328692137069,
,,,3,1,2.3,,,,,,,,,0,2,2,2,0,1,1,14,,,,,,,,,,,,,,,,,,,,,,,,,,,,,,,,,,,,,,,,,,,,,,,,,,,,,,,,,,,,,True,False,False,0.56,-0.43999999999999995,-0.86,-1.6116666666666666,2.3,0.6883333333333332,1.4941666666666666,gamble,lose,0.6883333333333332,44.75249999999997,849.9297922094265,None,849.9297922094265,None,849.9297922094265,None,849.9297922094265,None,849.9297922094265,None,849.9297922094265,None,849.9297922094265,None,1,1.3339374612405663,849.9297922094265,None,851.2969951036212,None,851.2969951036212,None,851.2969951036212,None,851.2969951036212,None,851.2969951036212,None,851.2969951036212,None,851.2969951036212,None,855.2818208696699,None,855.2818208696699,None,855.2818208696699,None,855.2818208696699,None,855.2818208696699,None,855.2818208696699,None,855.2818208696699,None,856.2822141287761,None,,,,,,,,,,,,,,,,,,,,,,,,,,,,,,24295,2020_Mar_10_1543,Mmi_3levels,3.1.5,59.97328692137069,
,,,3,1,9.3,,,,,,,,,0,2,2,2,0,2,2,22,,,,,,,,,,,,,,,,,,,,,,,,,,,,,,,,,,,,,,,,,,,,,,,,,,,,,,,,,,,,,True,True,True,0.56,-0.43999999999999995,-1.2999999999999998,7.459999999999999,9.3,1.8400000000000016,0.9200000000000008,gamble,win,9.3,54.05249999999997,858.2996394431539,None,858.2996394431539,None,858.2996394431539,None,858.2996394431539,None,858.2996394431539,None,858.2996394431539,None,858.2996394431539,None,1,0.9506189431267558,858.2996394431539,None,859.2832963112887,None,859.2832963112887,None,859.2832963112887,None,859.2832963112887,None,859.2832963112887,None,859.2832963112887,None,859.2832963112887,None,863.2849064657639,None,863.2849064657639,None,863.2849064657639,None,863.2849064657639,None,863.2849064657639,None,863.2849064657639,None,863.2849064657639,None,864.2686199708987,None,,,,,,,,,,,,,,,,,,,,,,,,,,,,,,24295,2020_Mar_10_1543,Mmi_3levels,3.1.5,59.97328692137069,
,,,3,1,0.9,,,,,,,,,0,2,2,2,0,3,3,19,,,,,,,,,,,,,,,,,,,,,,,,,,,,,,,,,,,,,,,,,,,,,,,,,,,,,,,,,,,,,True,False,True,0.56,-0.43999999999999995,-1.7399999999999998,-1.6849999999999998,0.9,-0.7849999999999998,0.05750000000000011,certain,certain,0.05750000000000011,54.109999999999964,866.2860187266779,None,866.2860187266779,None,866.2860187266779,None,866.2860187266779,None,866.2860187266779,None,866.2860187266779,None,866.2860187266779,None,3,1.9510243615804939,866.2860187266779,None,868.2701421300444,None,868.2701421300444,None,868.2701421300444,None,868.2701421300444,None,868.2701421300444,None,868.2701421300444,None,868.2701421300444,None,872.254959896527,None,872.254959896527,None,872.254959896527,None,872.254959896527,None,872.254959896527,None,872.254959896527,None,872.254959896527,None,881.7585888237518,None,873.2553768343787,None,874.2557592140656,None,0.58,7.502766573044937,877.256866675234,None,None,877.256866675234,None,,,,,,,,,,,,,,,,,,,24295,2020_Mar_10_1543,Mmi_3levels,3.1.5,59.97328692137069,
,,,3,1,7.1,,,,,,,,,0,2,2,2,0,4,4,11,,,,,,,,,,,,,,,,,,,,,,,,,,,,,,,,,,,,,,,,,,,,,,,,,,,,,,,,,,,,,True,False,True,0.58,-0.42000000000000004,-2.1599999999999997,-1.6500000000000001,7.1,5.449999999999999,2.7249999999999996,gamble,lose,5.449999999999999,59.55999999999996,883.7760282173695,None,883.7760282173695,None,883.7760282173695,None,883.7760282173695,None,883.7760282173695,None,883.7760282173695,None,883.7760282173695,None,1,1.017448033162509,883.7760282173695,None,884.8264360997127,None,884.8264360997127,None,884.8264360997127,None,884.8264360997127,None,884.8264360997127,None,884.8264360997127,None,884.8264360997127,None,888.8280068962631,None,888.8280068962631,None,888.8280068962631,None,888.8280068962631,None,888.8280068962631,None,888.8280068962631,None,888.8280068962631,None,889.811696722667,None,,,,,,,,,,,,,,,,,,,,,,,,,,,,,,24295,2020_Mar_10_1543,Mmi_3levels,3.1.5,59.97328692137069,
,,,3,1,7.7,,,,,,,,,0,2,2,2,0,5,5,24,,,,,,,,,,,,,,,,,,,,,,,,,,,,,,,,,,,,,,,,,,,,,,,,,,,,,,,,,,,,,True,False,True,0.58,-0.42000000000000004,-2.5799999999999996,-1.685,7.7,6.015000000000001,3.0075000000000003,gamble,lose,6.015000000000001,65.57499999999996,891.8291143574461,None,891.8291143574461,None,891.8291143574461,None,891.8291143574461,None,891.8291143574461,None,891.8291143574461,None,891.8291143574461,None,1,1.0006313264748314,891.8291143574461,None,892.8628264866566,None,892.8628264866566,None,892.8628264866566,None,892.8628264866566,None,892.8628264866566,None,892.8628264866566,None,892.8628264866566,None,896.8643556854222,None,896.8643556854222,None,896.8643556854222,None,896.8643556854222,None,896.8643556854222,None,896.8643556854222,None,896.8643556854222,None,906.3513384568942,None,897.8480752702308,None,898.848480688699,None,0.59,7.502844328904757,901.8495260731725,None,None,901.8495260731725,None,,,,,,,,,,,,,,,,,,,24295,2020_Mar_10_1543,Mmi_3levels,3.1.5,59.97328692137069,
,,,3,1,0.3,,,,,,,,,0,2,2,2,0,6,6,6,,,,,,,,,,,,,,,,,,,,,,,,,,,,,,,,,,,,,,,,,,,,,,,,,,,,,,,,,,,,,True,True,True,0.59,-0.41000000000000003,-2.9899999999999998,8.73,0.3,-8.43,-4.0649999999999995,certain,certain,-4.0649999999999995,61.50999999999996,908.3687772105477,None,908.3687772105477,None,908.3687772105477,None,908.3687772105477,None,908.3687772105477,None,908.3687772105477,None,908.3687772105477,None,3,2.534490327874664,908.3687772105477,None,910.9364209773194,None,910.9364209773194,None,910.9364209773194,None,910.9364209773194,None,910.9364209773194,None,910.9364209773194,None,910.9364209773194,None,914.9211840266944,None,914.9211840266944,None,914.9211840266944,None,914.9211840266944,None,914.9211840266944,None,914.9211840266944,None,914.9211840266944,None,915.9215760058723,None,,,,,,,,,,,,,,,,,,,,,,,,,,,,,,24295,2020_Mar_10_1543,Mmi_3levels,3.1.5,59.97328692137069,
,,,3,1,1.5,,,,,,,,,0,2,2,2,0,7,7,8,,,,,,,,,,,,,,,,,,,,,,,,,,,,,,,,,,,,,,,,,,,,,,,,,,,,,,,,,,,,,True,True,True,0.59,-0.41000000000000003,-3.4,9.14,1.5,-7.640000000000001,-3.0700000000000003,certain,certain,-3.0700000000000003,58.43999999999996,917.9390624369989,None,917.9390624369989,None,917.9390624369989,None,917.9390624369989,None,917.9390624369989,None,917.9390624369989,None,917.9390624369989,None,3,2.15101245821279,917.9390624369989,None,920.123213294908,None,920.123213294908,None,920.123213294908,None,920.123213294908,None,920.123213294908,None,920.123213294908,None,920.123213294908,None,924.1247882512398,None,924.1247882512398,None,924.1247882512398,None,924.1247882512398,None,924.1247882512398,None,924.1247882512398,None,924.1247882512398,None,933.6117143857264,None,925.1085011164105,None,926.1088502178754,None,0.6,7.502911205359851,929.1099346402625,None,None,929.1099346402625,None,,,,,,,,,,,,,,,,,,,24295,2020_Mar_10_1543,Mmi_3levels,3.1.5,59.97328692137069,
,,,3,1,13.9,,,,,,,,,0,2,2,2,0,8,8,15,,,,,,,,,,,,,,,,,,,,,,,,,,,,,,,,,,,,,,,,,,,,,,,,,,,,,,,,,,,,,True,False,False,0.6,-0.4,-3.8,-1.7166666666666668,13.9,12.183333333333334,6.091666666666667,gamble,lose,12.183333333333334,70.62333333333329,935.6291652987275,None,935.6291652987275,None,935.6291652987275,None,935.6291652987275,None,935.6291652987275,None,935.6291652987275,None,935.6291652987275,None,1,0.9005502427753527,935.6291652987275,None,936.5627899445972,None,936.5627899445972,None,936.5627899445972,None,936.5627899445972,None,936.5627899445972,None,936.5627899445972,None,936.5627899445972,None,940.5643165834917,None,940.5643165834917,None,940.5643165834917,None,940.5643165834917,None,940.5643165834917,None,940.5643165834917,None,940.5643165834917,None,941.5480182492611,None,,,,,,,,,,,,,,,,,,,,,,,,,,,,,,24295,2020_Mar_10_1543,Mmi_3levels,3.1.5,59.97328692137069,
,,,3,1,10.1,,,,,,,,,0,2,2,2,0,9,9,17,,,,,,,,,,,,,,,,,,,,,,,,,,,,,,,,,,,,,,,,,,,,,,,,,,,,,,,,,,,,,True,False,False,0.6,-0.4,-4.2,-1.7500000000000002,10.1,8.35,4.175,gamble,lose,8.35,78.97333333333329,943.5654554030043,None,943.5654554030043,None,943.5654554030043,None,943.5654554030043,None,943.5654554030043,None,943.5654554030043,None,943.5654554030043,None,1,0.8673184080398642,943.5654554030043,None,944.4658888519771,None,944.4658888519771,None,944.4658888519771,None,944.4658888519771,None,944.4658888519771,None,944.4658888519771,None,944.4658888519771,None,948.4673319753201,None,948.4673319753201,None,948.4673319753201,None,948.4673319753201,None,948.4673319753201,None,948.4673319753201,None,948.4673319753201,None,949.4510787586914,None,,,,,,,,,,,,,,,,,,,,,,,,,,,,,,24295,2020_Mar_10_1543,Mmi_3levels,3.1.5,59.97328692137069,
,,,3,1,6.7,,,,,,,,,0,2,2,2,0,10,10,25,,,,,,,,,,,,,,,,,,,,,,,,,,,,,,,,,,,,,,,,,,,,,,,,,,,,,,,,,,,,,True,True,True,0.6,-0.4,-4.6000000000000005,10.200000000000001,6.7,-3.500000000000001,1.5999999999999996,gamble,win,6.7,85.67333333333329,951.468526791854,None,951.468526791854,None,951.468526791854,None,951.468526791854,None,951.468526791854,None,951.468526791854,None,951.468526791854,None,1,0.8005888327315915,951.468526791854,None,952.3022063467943,None,952.3022063467943,None,952.3022063467943,None,952.3022063467943,None,952.3022063467943,None,952.3022063467943,None,952.3022063467943,None,956.3037902626529,None,956.3037902626529,None,956.3037902626529,None,956.3037902626529,None,956.3037902626529,None,956.3037902626529,None,956.3037902626529,None,965.7906943183189,None,957.2874439309671,None,958.2877459949232,None,0.64,7.502792171682813,961.288959690457,None,None,961.288959690457,None,,,,,,,,,,,,,,,,,,,24295,2020_Mar_10_1543,Mmi_3levels,3.1.5,59.97328692137069,
,,,3,1,4.5,,,,,,,,,0,2,2,2,0,11,11,12,,,,,,,,,,,,,,,,,,,,,,,,,,,,,,,,,,,,,,,,,,,,,,,,,,,,,,,,,,,,,True,False,False,0.64,-0.36,-4.960000000000001,-1.6733333333333333,4.5,2.8266666666666667,1.4133333333333333,gamble,lose,2.8266666666666667,88.49999999999996,967.8081273122662,None,967.8081273122662,None,967.8081273122662,None,967.8081273122662,None,967.8081273122662,None,967.8081273122662,None,967.8081273122662,None,1,1.0673292234714609,967.8081273122662,None,968.9085469379788,None,968.9085469379788,None,968.9085469379788,None,968.9085469379788,None,968.9085469379788,None,968.9085469379788,None,968.9085469379788,None,972.8933387858415,None,972.8933387858415,None,972.8933387858415,None,972.8933387858415,None,972.8933387858415,None,972.8933387858415,None,972.8933387858415,None,973.8937570036214,None,,,,,,,,,,,,,,,,,,,,,,,,,,,,,,24295,2020_Mar_10_1543,Mmi_3levels,3.1.5,59.97328692137069,
,,,3,1,2.7,,,,,,,,,0,2,2,2,0,12,12,3,,,,,,,,,,,,,,,,,,,,,,,,,,,,,,,,,,,,,,,,,,,,,,,,,,,,,,,,,,,,,True,True,True,0.64,-0.36,-5.320000000000001,10.360000000000001,2.7,-7.660000000000001,-2.4800000000000004,certain,certain,-2.4800000000000004,86.01999999999995,975.911221995877,None,975.911221995877,None,975.911221995877,None,975.911221995877,None,975.911221995877,None,975.911221995877,None,975.911221995877,None,3,1.5674754556966946,975.911221995877,None,977.5118297715962,None,977.5118297715962,None,977.5118297715962,None,977.5118297715962,None,977.5118297715962,None,977.5118297715962,None,977.5118297715962,None,981.5133740095625,None,981.5133740095625,None,981.5133740095625,None,981.5133740095625,None,981.5133740095625,None,981.5133740095625,None,981.5133740095625,None,991.0002835049381,None,982.4970363174216,None,983.4974263767072,None,0.61,7.502778412410407,986.4985818353307,None,None,986.4985818353307,None,,,,,,,,,,,,,,,,,,,24295,2020_Mar_10_1543,Mmi_3levels,3.1.5,59.97328692137069,
,,,3,1,13.3,,,,,,,,,0,2,2,2,0,13,13,16,,,,,,,,,,,,,,,,,,,,,,,,,,,,,,,,,,,,,,,,,,,,,,,,,,,,,,,,,,,,,True,True,True,0.61,-0.39,-5.710000000000001,11.170000000000002,13.3,2.129999999999999,1.0649999999999995,gamble,win,13.3,99.31999999999995,993.017742737502,None,993.017742737502,None,993.017742737502,None,993.017742737502,None,993.017742737502,None,993.017742737502,None,993.017742737502,None,1,1.033988274546573,993.017742737502,None,994.0848002954008,None,994.0848002954008,None,994.0848002954008,None,994.0848002954008,None,994.0848002954008,None,994.0848002954008,None,994.0848002954008,None,998.069585743593,None,998.069585743593,None,998.069585743593,None,998.069585743593,None,998.069585743593,None,998.069585743593,None,998.069585743593,None,999.0699719630793,None,,,,,,,,,,,,,,,,,,,,,,,,,,,,,,24295,2020_Mar_10_1543,Mmi_3levels,3.1.5,59.97328692137069,
,,,3,1,1.3,,,,,,,,,0,2,2,2,0,14,14,26,,,,,,,,,,,,,,,,,,,,,,,,,,,,,,,,,,,,,,,,,,,,,,,,,,,,,,,,,,,,,True,False,False,0.61,-0.39,-6.1000000000000005,-1.8733333333333335,1.3,-0.5733333333333335,0.3633333333333333,certain,certain,0.3633333333333333,99.68333333333328,1001.0874414350983,None,1001.0874414350983,None,1001.0874414350983,None,1001.0874414350983,None,1001.0874414350983,None,1001.0874414350983,None,1001.0874414350983,None,3,2.36788189811341,1001.0874414350983,None,1003.4884178952343,None,1003.4884178952343,None,1003.4884178952343,None,1003.4884178952343,None,1003.4884178952343,None,1003.4884178952343,None,1003.4884178952343,None,1007.4899362145807,None,1007.4899362145807,None,1007.4899362145807,None,1007.4899362145807,None,1007.4899362145807,None,1007.4899362145807,None,1007.4899362145807,None,1008.4736423601134,None,,,,,,,,,,,,,,,,,,,,,,,,,,,,,,24295,2020_Mar_10_1543,Mmi_3levels,3.1.5,59.97328692137069,
,,,3,1,8.5,,,,,,,,,0,2,2,2,0,15,15,21,,,,,,,,,,,,,,,,,,,,,,,,,,,,,,,,,,,,,,,,,,,,,,,,,,,,,,,,,,,,,True,True,False,0.61,-0.39,-6.49,11.95,8.5,-3.4499999999999993,-1.7249999999999996,gamble,win,8.5,108.18333333333328,1010.4910804738029,None,1010.4910804738029,None,1010.4910804738029,None,1010.4910804738029,None,1010.4910804738029,None,1010.4910804738029,None,1010.4910804738029,None,1,2.0843299203988863,1010.4910804738029,None,1012.6085657529766,None,1012.6085657529766,None,1012.6085657529766,None,1012.6085657529766,None,1012.6085657529766,None,1012.6085657529766,None,1012.6085657529766,None,1016.6099999167927,None,1016.6099999167927,None,1016.6099999167927,None,1016.6099999167927,None,1016.6099999167927,None,1016.6099999167927,None,1016.6099999167927,None,1026.097007326971,None,1017.5937083022145,None,1018.5941805971233,None,0.6,7.5027444942097645,1021.5952784588007,None,None,1021.5952784588007,None,,,,,,,,,,,,,,,,,,,24295,2020_Mar_10_1543,Mmi_3levels,3.1.5,59.97328692137069,
,,,3,1,3.7,,,,,,,,,0,2,2,2,0,16,16,13,,,,,,,,,,,,,,,,,,,,,,,,,,,,,,,,,,,,,,,,,,,,,,,,,,,,,,,,,,,,,True,True,False,0.6,-0.4,-6.890000000000001,12.490000000000002,3.7,-8.790000000000003,-2.5450000000000013,certain,certain,-2.5450000000000013,105.63833333333328,1028.1144422408252,None,1028.1144422408252,None,1028.1144422408252,None,1028.1144422408252,None,1028.1144422408252,None,1028.1144422408252,None,1028.1144422408252,None,3,2.7846581589692505,1028.1144422408252,None,1030.932126485437,None,1030.932126485437,None,1030.932126485437,None,1030.932126485437,None,1030.932126485437,None,1030.932126485437,None,1030.932126485437,None,1034.9337129611667,None,1034.9337129611667,None,1034.9337129611667,None,1034.9337129611667,None,1034.9337129611667,None,1034.9337129611667,None,1034.9337129611667,None,1035.9174261463195,None,,,,,,,,,,,,,,,,,,,,,,,,,,,,,,24295,2020_Mar_10_1543,Mmi_3levels,3.1.5,59.97328692137069,
,,,3,1,3.3,,,,,,,,,0,2,2,2,0,17,17,5,,,,,,,,,,,,,,,,,,,,,,,,,,,,,,,,,,,,,,,,,,,,,,,,,,,,,,,,,,,,,True,True,True,0.6,-0.4,-7.290000000000001,12.89,3.3,-9.59,-3.145,gamble,win,3.3,108.93833333333328,1037.9348680998082,None,1037.9348680998082,None,1037.9348680998082,None,1037.9348680998082,None,1037.9348680998082,None,1037.9348680998082,None,1037.9348680998082,None,1,2.934732107038144,1037.9348680998082,None,1040.902690609073,None,1040.902690609073,None,1040.902690609073,None,1040.902690609073,None,1040.902690609073,None,1040.902690609073,None,1040.902690609073,None,1044.9041286126885,None,1044.9041286126885,None,1044.9041286126885,None,1044.9041286126885,None,1044.9041286126885,None,1044.9041286126885,None,1044.9041286126885,None,1054.3911126640887,None,1045.8879237134825,None,1046.8883022533846,None,0.66,7.502781292248983,1049.889397875173,None,None,1049.889397875173,None,,,,,,,,,,,,,,,,,,,24295,2020_Mar_10_1543,Mmi_3levels,3.1.5,59.97328692137069,
,,,3,1,6.5,,,,,,,,,0,2,2,2,0,18,18,1,,,,,,,,,,,,,,,,,,,,,,,,,,,,,,,,,,,,,,,,,,,,,,,,,,,,,,,,,,,,,True,False,False,0.66,-0.33999999999999997,-7.630000000000001,-1.8258333333333332,6.5,4.674166666666666,2.337083333333333,gamble,lose,4.674166666666666,113.61249999999994,1056.408523899212,None,1056.408523899212,None,1056.408523899212,None,1056.408523899212,None,1056.408523899212,None,1056.408523899212,None,1056.408523899212,None,1,0.8839856826816685,1056.408523899212,None,1057.325540787264,None,1057.325540787264,None,1057.325540787264,None,1057.325540787264,None,1057.325540787264,None,1057.325540787264,None,1057.325540787264,None,1061.3104759875132,None,1061.3104759875132,None,1061.3104759875132,None,1061.3104759875132,None,1061.3104759875132,None,1061.3104759875132,None,1061.3104759875132,None,1062.3108586871822,None,,,,,,,,,,,,,,,,,,,,,,,,,,,,,,24295,2020_Mar_10_1543,Mmi_3levels,3.1.5,59.97328692137069,
,,,3,1,2.9,,,,,,,,,0,2,2,2,0,19,19,4,,,,,,,,,,,,,,,,,,,,,,,,,,,,,,,,,,,,,,,,,,,,,,,,,,,,,,,,,,,,,True,False,True,0.66,-0.33999999999999997,-7.970000000000001,-1.8541666666666665,2.9,1.0458333333333334,1.9729166666666667,gamble,lose,1.0458333333333334,114.65833333333327,1064.3282948809647,None,1064.3282948809647,None,1064.3282948809647,None,1064.3282948809647,None,1064.3282948809647,None,1064.3282948809647,None,1064.3282948809647,None,1,1.6841806163283763,1064.3282948809647,None,1066.0455665394984,None,1066.0455665394984,None,1066.0455665394984,None,1066.0455665394984,None,1066.0455665394984,None,1066.0455665394984,None,1066.0455665394984,None,1070.0471386159916,None,1070.0471386159916,None,1070.0471386159916,None,1070.0471386159916,None,1070.0471386159916,None,1070.0471386159916,None,1070.0471386159916,None,1079.5340682702808,None,1071.0307615659403,None,1072.0312034624658,None,0.62,7.502732974811806,1075.03233620229,None,None,1075.03233620229,None,,,,,,,,,,,,,,,,,,,24295,2020_Mar_10_1543,Mmi_3levels,3.1.5,59.97328692137069,
,,,3,1,5.1,,,,,,,,,0,2,2,2,0,20,20,18,,,,,,,,,,,,,,,,,,,,,,,,,,,,,,,,,,,,,,,,,,,,,,,,,,,,,,,,,,,,,True,True,False,0.62,-0.38,-8.350000000000001,13.670000000000002,5.1,-8.570000000000002,-1.7350000000000012,certain,certain,-1.7350000000000012,112.92333333333328,1081.5515265428985,None,1081.5515265428985,None,1081.5515265428985,None,1081.5515265428985,None,1081.5515265428985,None,1081.5515265428985,None,1081.5515265428985,None,3,2.73461249738466,1081.5515265428985,None,1084.3192236828327,None,1084.3192236828327,None,1084.3192236828327,None,1084.3192236828327,None,1084.3192236828327,None,1084.3192236828327,None,1084.3192236828327,None,1088.3207861598348,None,1088.3207861598348,None,1088.3207861598348,None,1088.3207861598348,None,1088.3207861598348,None,1088.3207861598348,None,1088.3207861598348,None,1089.3044615870022,None,,,,,,,,,,,,,,,,,,,,,,,,,,,,,,24295,2020_Mar_10_1543,Mmi_3levels,3.1.5,59.97328692137069,
,,,3,1,11.9,,,,,,,,,0,2,2,2,0,21,21,23,,,,,,,,,,,,,,,,,,,,,,,,,,,,,,,,,,,,,,,,,,,,,,,,,,,,,,,,,,,,,True,True,False,0.62,-0.38,-8.730000000000002,14.050000000000002,11.9,-2.150000000000002,-1.075000000000001,gamble,win,11.9,124.82333333333328,1091.3218961808743,None,1091.3218961808743,None,1091.3218961808743,None,1091.3218961808743,None,1091.3218961808743,None,1091.3218961808743,None,1091.3218961808743,None,1,1.7842751393036451,1091.3218961808743,None,1093.1392614024226,None,1093.1392614024226,None,1093.1392614024226,None,1093.1392614024226,None,1093.1392614024226,None,1093.1392614024226,None,1093.1392614024226,None,1097.1407589228766,None,1097.1407589228766,None,1097.1407589228766,None,1097.1407589228766,None,1097.1407589228766,None,1097.1407589228766,None,1097.1407589228766,None,1098.1244698681548,None,,,,,,,,,,,,,,,,,,,,,,,,,,,,,,24295,2020_Mar_10_1543,Mmi_3levels,3.1.5,59.97328692137069,
,,,3,1,8.7,,,,,,,,,0,2,2,2,0,22,22,9,,,,,,,,,,,,,,,,,,,,,,,,,,,,,,,,,,,,,,,,,,,,,,,,,,,,,,,,,,,,,True,False,True,0.62,-0.38,-9.110000000000003,-2.089166666666667,8.7,6.610833333333332,3.305416666666666,gamble,lose,6.610833333333332,131.4341666666666,1100.1419361403532,None,1100.1419361403532,None,1100.1419361403532,None,1100.1419361403532,None,1100.1419361403532,None,1100.1419361403532,None,1100.1419361403532,None,1,0.9506208630191395,1100.1419361403532,None,1101.1256451657246,None,1101.1256451657246,None,1101.1256451657246,None,1101.1256451657246,None,1101.1256451657246,None,1101.1256451657246,None,1101.1256451657246,None,1105.1104584524437,None,1105.1104584524437,None,1105.1104584524437,None,1105.1104584524437,None,1105.1104584524437,None,1105.1104584524437,None,1105.1104584524437,None,1114.6140998590126,None,1106.1108760302595,None,1107.1112555301079,None,0.65,7.502734254754614,1110.1123895498604,None,None,1110.1123895498604,None,,,,,,,,,,,,,,,,,,,24295,2020_Mar_10_1543,Mmi_3levels,3.1.5,59.97328692137069,
,,,3,1,4.9,,,,,,,,,0,2,2,2,0,23,23,0,,,,,,,,,,,,,,,,,,,,,,,,,,,,,,,,,,,,,,,,,,,,,,,,,,,,,,,,,,,,,True,True,True,0.65,-0.35,-9.460000000000003,14.360000000000003,4.9,-9.460000000000003,-2.280000000000001,gamble,win,4.9,136.33416666666662,1116.6315594115586,None,1116.6315594115586,None,1116.6315594115586,None,1116.6315594115586,None,1116.6315594115586,None,1116.6315594115586,None,1116.6315594115586,None,1,2.5345482447883114,1116.6315594115586,None,1119.1992006184591,None,1119.1992006184591,None,1119.1992006184591,None,1119.1992006184591,None,1119.1992006184591,None,1119.1992006184591,None,1119.1992006184591,None,1123.2007611755544,None,1123.2007611755544,None,1123.2007611755544,None,1123.2007611755544,None,1123.2007611755544,None,1123.2007611755544,None,1123.2007611755544,None,1124.184440122539,None,,,,,,,,,,,,,,,,,,,,,,,,,,,,,,24295,2020_Mar_10_1543,Mmi_3levels,3.1.5,59.97328692137069,
,,,3,1,9.1,,,,,,,,,0,2,2,2,0,24,24,7,,,,,,,,,,,,,,,,,,,,,,,,,,,,,,,,,,,,,,,,,,,,,,,,,,,,,,,,,,,,,True,False,True,0.65,-0.35,-9.810000000000002,-2.0425,9.1,7.057499999999999,3.5287499999999996,gamble,lose,7.057499999999999,143.39166666666662,1126.2018990351207,None,1126.2018990351207,None,1126.2018990351207,None,1126.2018990351207,None,1126.2018990351207,None,1126.2018990351207,None,1126.2018990351207,None,1,0.8839556042803451,1126.2018990351207,None,1127.1189207229327,None,1127.1189207229327,None,1127.1189207229327,None,1127.1189207229327,None,1127.1189207229327,None,1127.1189207229327,None,1127.1189207229327,None,1131.1203587265336,None,1131.1203587265336,None,1131.1203587265336,None,1131.1203587265336,None,1131.1203587265336,None,1131.1203587265336,None,1131.1203587265336,None,1140.6074090144248,None,1132.1041378281952,None,1133.1045154081366,None,0.66,7.5027182556077605,1136.105667346943,None,None,1136.105667346943,None,,,,,,,,,,,,,,,,,,,24295,2020_Mar_10_1543,Mmi_3levels,3.1.5,59.97328692137069,
,,,3,1,4.1,,,,,,,,,0,2,2,2,0,25,25,10,,,,,,,,,,,,,,,,,,,,,,,,,,,,,,,,,,,,,,,,,,,,,,,,,,,,,,,,,,,,,True,True,False,0.66,-0.33999999999999997,-10.150000000000002,14.910000000000002,4.1,-10.810000000000002,-3.3550000000000013,certain,certain,-3.3550000000000013,140.03666666666663,1142.6248429683328,None,1142.6248429683328,None,1142.6248429683328,None,1142.6248429683328,None,1142.6248429683328,None,1142.6248429683328,None,1142.6248429683328,None,3,2.801324473635759,1142.6248429683328,None,1145.4592328855506,None,1145.4592328855506,None,1145.4592328855506,None,1145.4592328855506,None,1145.4592328855506,None,1145.4592328855506,None,1145.4592328855506,None,1149.4607828832086,None,1149.4607828832086,None,1149.4607828832086,None,1149.4607828832086,None,1149.4607828832086,None,1149.4607828832086,None,1149.4607828832086,None,1150.4444903086696,None,,,,,,,,,,,,,,,,,,,,,,,,,,,,,,24295,2020_Mar_10_1543,Mmi_3levels,3.1.5,59.97328692137069,
,,,3,1,-1.5,,,,,,,,,0,2,2,2,0,26,26,20,,,,,,,,,,,,,,,,,,,,,,,,,,,,,,,,,,,,,,,,,,,,,,,,,,,,,,,,,,,,,True,True,False,0.66,-0.33999999999999997,-10.490000000000002,15.250000000000002,-1.5,-16.75,-9.125,certain,certain,-9.125,130.91166666666663,1152.4619421816315,None,1152.4619421816315,None,1152.4619421816315,None,1152.4619421816315,None,1152.4619421816315,None,1152.4619421816315,None,1152.4619421816315,None,3,1.9175954173260834,1152.4619421816315,None,1154.41264624022,None,1154.41264624022,None,1154.41264624022,None,1154.41264624022,None,1154.41264624022,None,1154.41264624022,None,1154.41264624022,None,1158.414198157785,None,1158.414198157785,None,1158.414198157785,None,1158.414198157785,None,1158.414198157785,None,1158.414198157785,None,1158.414198157785,None,1167.9011258921819,None,1159.3978729449882,None,1160.3982569245854,None,0.64,7.502820330191753,1163.3994011838076,None,None,1163.3994011838076,None,,,,,,,,,,,,,,,,,,,24295,2020_Mar_10_1543,Mmi_3levels,3.1.5,59.97328692137069,
,,,,,,,,,,,,,,,,,,,,,,,,,,,,,,0,0,0,0,,,,,,,,,,,,,,,,,,,,,,,,,,,,,,,,,,,,,,,,,,,,,,,,,,,,,,,,,,,,,,,,,,,,,,,,,,,,,,,,,,,,,,,,,,,,,,,,,,,,,,,,,,,,,,,,,,,,,,,,,,1169.901906330735,None,4,2.1010311132413335,1169.901906330735,None,130.91166666666663,4,1172.0360585645685,None,1172.0360585645685,None,1172.0360585645685,None,4,19.657721221854445,1172.0360585645685,None,24295,2020_Mar_10_1543,Mmi_3levels,3.1.5,59.97328692137069,
