currSlide,currImage,currText,blockNum,targetHappiness,highAmount,instructionLoop1.thisRepN,instructionLoop1.thisTrialN,instructionLoop1.thisN,instructionLoop1.thisIndex,instructionLoop2.thisRepN,instructionLoop2.thisTrialN,instructionLoop2.thisN,instructionLoop2.thisIndex,blockLoop.thisRepN,blockLoop.thisTrialN,blockLoop.thisN,blockLoop.thisIndex,trialLoop.thisRepN,trialLoop.thisTrialN,trialLoop.thisN,trialLoop.thisIndex,doRatingLoop.thisRepN,doRatingLoop.thisTrialN,doRatingLoop.thisN,doRatingLoop.thisIndex,trialHappyLoop.thisRepN,trialHappyLoop.thisTrialN,trialHappyLoop.thisN,trialHappyLoop.thisIndex,logWinningsLoop.thisRepN,logWinningsLoop.thisTrialN,logWinningsLoop.thisN,logWinningsLoop.thisIndex,instrImage.started,instrImage.stopped,instrText.started,instrText.stopped,instrContinueText.started,instrContinueText.stopped,instrKeyResp.keys,instrKeyResp.rt,instrKeyResp.started,instrKeyResp.stopped,lifeHappyText.started,lifeHappyText.stopped,lifeHappySlider.response,lifeHappySlider.rt,lifeHappySlider.started,lifeHappySlider.stopped,lifeHappyResp.keys,lifeHappyResp.started,lifeHappyResp.stopped,instrImage_2.started,instrImage_2.stopped,instrText_2.started,instrText_2.stopped,instrContinueText_2.started,instrContinueText_2.stopped,instrKeyResp_2.keys,instrKeyResp_2.rt,instrKeyResp_2.started,instrKeyResp_2.stopped,localizing.started,localizing.stopped,start_exp.keys,start_exp.rt,start_exp.started,start_exp.stopped,blockHappyText.started,blockHappyText.stopped,blockHappySlider.response,blockHappySlider.rt,blockHappySlider.started,blockHappySlider.stopped,blockHappyResp.keys,blockHappyResp.started,blockHappyResp.stopped,blankText.started,blankText.stopped,isHappyBlock,isCongruent,isWinOnTop,lastHappyRating,diff,sumDiff,RPE,winAmount,loseAmount,certainAmount,choice,outcome,outcomeAmount,currentWinnings,fixCross.started,fixCross.stopped,certainBox.started,certainBox.stopped,outcome1Box.started,outcome1Box.stopped,outcome2Box.started,outcome2Box.stopped,certainText.started,certainText.stopped,outcome1Text.started,outcome1Text.stopped,outcome2Text.started,outcome2Text.stopped,choiceKey.keys,choiceKey.rt,choiceKey.started,choiceKey.stopped,fixCross_2.started,fixCross_2.stopped,certainBox_2.started,certainBox_2.stopped,outcome1Box_2.started,outcome1Box_2.stopped,outcome2Box_2.started,outcome2Box_2.stopped,certainText_2.started,certainText_2.stopped,outcome1Text_2.started,outcome1Text_2.stopped,outcome2Text_2.started,outcome2Text_2.stopped,fixCross_3.started,fixCross_3.stopped,certainBox_3.started,certainBox_3.stopped,outcome1Box_3.started,outcome1Box_3.stopped,outcome2Box_3.started,outcome2Box_3.stopped,certainText_3.started,certainText_3.stopped,outcome1Text_3.started,outcome1Text_3.stopped,outcome2Text_3.started,outcome2Text_3.stopped,fixCross_ITI.started,fixCross_ITI.stopped,fixCross_ISI.started,fixCross_ISI.stopped,happyText.started,happyText.stopped,happySlider.response,happySlider.rt,happySlider.started,happySlider.stopped,happyResp.keys,happyResp.started,happyResp.stopped,endOfBlockText.started,endOfBlockText.stopped,restKeyResp.keys,restKeyResp.rt,restKeyResp.started,restKeyResp.stopped,finalWinnings,cashBonus,goodbyeText.started,goodbyeText.stopped,finalWinningsText.started,finalWinningsText.stopped,spaceToContinue.started,spaceToContinue.stopped,goodbyeKeyResp_2.keys,goodbyeKeyResp_2.rt,goodbyeKeyResp_2.started,goodbyeKeyResp_2.stopped,participant,date,expName,psychopyVersion,frameRate,
1,black.png,"Welcome! You are about to play our gambling task.
This task has 3 blocks and takes about 15 minutes.",,,,0,0,0,0,,,,,,,,,,,,,,,,,,,,,,,,,14.453989616595209,None,14.453989616595209,None,14.453989616595209,None,4,46.8192152439442,14.453989616595209,None,,,,,,,,,,,,,,,,,,,,,,,,,,,,,,,,,,,,,,,,,,,,,,,,,,,,,,,,,,,,,,,,,,,,,,,,,,,,,,,,,,,,,,,,,,,,,,,,,,,,,,,,,,,,,,,,,,,,,,,,,,,,,,,,22293,2019_Nov_27_1438,Mmi_3levels,3.1.5,59.98900103417146,
2,black.png,"In this game, you may win or lose points. Your goal is to get as many points as possible. These points will be converted to a cash bonus at the end.
Sometimes we will ask you to rate your mood.",,,,0,1,1,1,,,,,,,,,,,,,,,,,,,,,,,,,61.322995672235265,None,61.322995672235265,None,61.322995672235265,None,4,22.141943411173997,61.322995672235265,None,,,,,,,,,,,,,,,,,,,,,,,,,,,,,,,,,,,,,,,,,,,,,,,,,,,,,,,,,,,,,,,,,,,,,,,,,,,,,,,,,,,,,,,,,,,,,,,,,,,,,,,,,,,,,,,,,,,,,,,,,,,,,,,,22293,2019_Nov_27_1438,Mmi_3levels,3.1.5,59.98900103417146,
3,black.png,"On the next screen, please rate how you feel about your life these days. Use the LEFT (green) and RIGHT (blue) buttons to move the slider (you can press and hold them to slide gradually) and the TOP (red) button to lock in your response.
Make your rating as accurately and quickly as you can!",,,,0,2,2,2,,,,,,,,,,,,,,,,,,,,,,,,,83.51472413545707,None,83.51472413545707,None,83.51472413545707,None,4,778.4951060340682,83.51472413545707,None,,,,,,,,,,,,,,,,,,,,,,,,,,,,,,,,,,,,,,,,,,,,,,,,,,,,,,,,,,,,,,,,,,,,,,,,,,,,,,,,,,,,,,,,,,,,,,,,,,,,,,,,,,,,,,,,,,,,,,,,,,,,,,,,22293,2019_Nov_27_1438,Mmi_3levels,3.1.5,59.98900103417146,
,,,,,,,,,,,,,,,,,,,,,,,,,,,,,,,,,,,,,,,,,,,,862.0261322965962,None,0.44,10.502688009495614,866.0276275728538,None,None,866.0276275728538,None,,,,,,,,,,,,,,,,,,,,,,,,,,,,,,,,,,,,,,,,,,,,,,,,,,,,,,,,,,,,,,,,,,,,,,,,,,,,,,,,,,,,,,,,,,,,,,,,,,,,,,,,,,,,,,,,,,,,,,,22293,2019_Nov_27_1438,Mmi_3levels,3.1.5,59.98900103417146,
4,black.png,"In this game you can win money by earning points according to your choices. You will decide whether to gamble a number of points or stick with a guaranteed number of points. 
Make your choice by pressing the left or right arrow key once. An example of one trial is shown on the next screen.",,,,,,,,0,0,0,0,,,,,,,,,,,,,,,,,,,,,,,,,,,,,,,,,,,,,,,,872.5801483117102,None,872.5801483117102,None,872.5801483117102,None,4,13.288584159279708,872.5801483117102,None,,,,,,,,,,,,,,,,,,,,,,,,,,,,,,,,,,,,,,,,,,,,,,,,,,,,,,,,,,,,,,,,,,,,,,,,,,,,,,,,,,,,,,,,,,,,,,,,,,,,,,,,,,,,,22293,2019_Nov_27_1438,Mmi_3levels,3.1.5,59.98900103417146,
5,example_start.png,"The GAMBLING OPTION will be shown on the RIGHT SIDE. 
Select this option using the RIGHT (blue) button on your keypad.",,,,,,,,0,1,1,1,,,,,,,,,,,,,,,,,,,,,,,,,,,,,,,,,,,,,,,,885.9351175534248,None,885.9351175534248,None,885.9351175534248,None,4,7.95327333669411,885.9351175534248,None,,,,,,,,,,,,,,,,,,,,,,,,,,,,,,,,,,,,,,,,,,,,,,,,,,,,,,,,,,,,,,,,,,,,,,,,,,,,,,,,,,,,,,,,,,,,,,,,,,,,,,,,,,,,,22293,2019_Nov_27_1438,Mmi_3levels,3.1.5,59.98900103417146,
6,example_gamble.png,"Once you select the gambling choice, the choice you made will remain on the screen.",,,,,,,,0,2,2,2,,,,,,,,,,,,,,,,,,,,,,,,,,,,,,,,,,,,,,,,893.9215218347672,None,893.9215218347672,None,893.9215218347672,None,4,2.151059060706757,893.9215218347672,None,,,,,,,,,,,,,,,,,,,,,,,,,,,,,,,,,,,,,,,,,,,,,,,,,,,,,,,,,,,,,,,,,,,,,,,,,,,,,,,,,,,,,,,,,,,,,,,,,,,,,,,,,,,,,22293,2019_Nov_27_1438,Mmi_3levels,3.1.5,59.98900103417146,
7,example_win.png,"The outcome you received will then be shown on the screen. In this example , you WON 10 points.",,,,,,,,0,3,3,3,,,,,,,,,,,,,,,,,,,,,,,,,,,,,,,,,,,,,,,,896.105690081371,None,896.105690081371,None,896.105690081371,None,4,3.8349951602576766,896.105690081371,None,,,,,,,,,,,,,,,,,,,,,,,,,,,,,,,,,,,,,,,,,,,,,,,,,,,,,,,,,,,,,,,,,,,,,,,,,,,,,,,,,,,,,,,,,,,,,,,,,,,,,,,,,,,,,22293,2019_Nov_27_1438,Mmi_3levels,3.1.5,59.98900103417146,
8,example_start.png,"The GUARANTEED OPTION will be shown on the LEFT SIDE. You are 100% guaranteed to gain or lose this amount. In this example, you have a 100% chance of winning 1 point. Select this option using the LEFT (green) button on your keyboard.",,,,,,,,0,4,4,4,,,,,,,,,,,,,,,,,,,,,,,,,,,,,,,,,,,,,,,,899.9904882126721,None,899.9904882126721,None,899.9904882126721,None,4,9.953972177550895,899.9904882126721,None,,,,,,,,,,,,,,,,,,,,,,,,,,,,,,,,,,,,,,,,,,,,,,,,,,,,,,,,,,,,,,,,,,,,,,,,,,,,,,,,,,,,,,,,,,,,,,,,,,,,,,,,,,,,,22293,2019_Nov_27_1438,Mmi_3levels,3.1.5,59.98900103417146,
9,example_certain.png,"Once you select the guaranteed choice, your selection will remain on the screen.",,,,,,,,0,5,5,5,,,,,,,,,,,,,,,,,,,,,,,,,,,,,,,,,,,,,,,,909.9776057340787,None,909.9776057340787,None,909.9776057340787,None,4,2.7679585943114944,909.9776057340787,None,,,,,,,,,,,,,,,,,,,,,,,,,,,,,,,,,,,,,,,,,,,,,,,,,,,,,,,,,,,,,,,,,,,,,,,,,,,,,,,,,,,,,,,,,,,,,,,,,,,,,,,,,,,,,22293,2019_Nov_27_1438,Mmi_3levels,3.1.5,59.98900103417146,
10,black.png,"Please make your choices as fast as possible.
You will be given a break at the end of each block.
Let's play!",,,,,,,,0,6,6,6,,,,,,,,,,,,,,,,,,,,,,,,,,,,,,,,,,,,,,,,912.7787231115217,None,912.7787231115217,None,912.7787231115217,None,4,10.43743630356039,912.7787231115217,None,,,,,,,,,,,,,,,,,,,,,,,,,,,,,,,,,,,,,,,,,,,,,,,,,,,,,,,,,,,,,,,,,,,,,,,,,,,,,,,,,,,,,,,,,,,,,,,,,,,,,,,,,,,,,22293,2019_Nov_27_1438,Mmi_3levels,3.1.5,59.98900103417146,
,,,,,,,,,,,,,,,,,,,,,,,,,,,,,,,,,,,,,,,,,,,,,,,,,,,,,,,,,,,,,,,923.2326308126794,None,space,26.510268384969095,923.2326308126794,None,,,,,,,,,,,,,,,,,,,,,,,,,,,,,,,,,,,,,,,,,,,,,,,,,,,,,,,,,,,,,,,,,,,,,,,,,,,,,,,,,,,,,,,,,,,,,,,,,,,,,,,22293,2019_Nov_27_1438,Mmi_3levels,3.1.5,59.98900103417146,
,,,1,1,8.1,,,,,,,,,0,0,0,0,0,0,0,21,,,,,,,,,,,,,,,,,,,,,,,,,,,,,,,,,,,,,,,,,,,,,,,,949.7593171582557,None,0.5,7.493130784685491,952.7771158415126,None,None,952.7771158415126,None,957.2621581191488,None,True,True,True,0.5,-0.5,-0.5,7.5,8.1,0.5999999999999996,0.2999999999999998,gamble,win,8.1,8.1,960.2966611469747,None,960.2966611469747,None,960.2966611469747,None,960.2966611469747,None,960.2966611469747,None,960.2966611469747,None,960.2966611469747,None,1,2.201062660489697,960.2966611469747,None,962.5308281936159,None,962.5308281936159,None,962.5308281936159,None,962.5308281936159,None,962.5308281936159,None,962.5308281936159,None,962.5308281936159,None,966.5156780020334,None,966.5156780020334,None,966.5156780020334,None,966.5156780020334,None,966.5156780020334,None,966.5156780020334,None,966.5156780020334,None,967.5160581407545,None,,,,,,,,,,,,,,,,,,,,,,,,,,,,,,22293,2019_Nov_27_1438,Mmi_3levels,3.1.5,59.98900103417146,
,,,1,1,9.9,,,,,,,,,0,0,0,0,0,1,1,12,,,,,,,,,,,,,,,,,,,,,,,,,,,,,,,,,,,,,,,,,,,,,,,,,,,,,,,,,,,True,True,True,0.5,-0.5,-1.0,8.0,9.9,1.9000000000000004,0.9500000000000002,certain,certain,0.9500000000000002,9.05,969.533485004853,None,969.533485004853,None,969.533485004853,None,969.533485004853,None,969.533485004853,None,969.533485004853,None,969.533485004853,None,3,1.8343363171443343,969.533485004853,None,971.4008642715926,None,971.4008642715926,None,971.4008642715926,None,971.4008642715926,None,971.4008642715926,None,971.4008642715926,None,971.4008642715926,None,975.3857163198991,None,975.3857163198991,None,975.3857163198991,None,975.3857163198991,None,975.3857163198991,None,975.3857163198991,None,975.3857163198991,None,976.3860846192692,None,,,,,,,,,,,,,,,,,,,,,,,,,,,,,,22293,2019_Nov_27_1438,Mmi_3levels,3.1.5,59.98900103417146,
,,,1,1,4.1,,,,,,,,,0,0,0,0,0,2,2,3,,,,,,,,,,,,,,,,,,,,,,,,,,,,,,,,,,,,,,,,,,,,,,,,,,,,,,,,,,,True,True,False,0.5,-0.5,-1.5,8.5,4.1,-4.4,-0.15000000000000036,certain,certain,-0.15000000000000036,8.9,978.4035230027221,None,978.4035230027221,None,978.4035230027221,None,978.4035230027221,None,978.4035230027221,None,978.4035230027221,None,978.4035230027221,None,3,2.3845205468533095,978.4035230027221,None,980.8210957786359,None,980.8210957786359,None,980.8210957786359,None,980.8210957786359,None,980.8210957786359,None,980.8210957786359,None,980.8210957786359,None,984.8226112137781,None,984.8226112137781,None,984.8226112137781,None,984.8226112137781,None,984.8226112137781,None,984.8226112137781,None,984.8226112137781,None,994.3095340261061,None,985.8063161263126,None,986.8066930651839,None,0.5,7.502768004982499,989.8078133224626,None,None,989.8078133224626,None,,,,,,,,,,,,,,,,,,,22293,2019_Nov_27_1438,Mmi_3levels,3.1.5,59.98900103417146,
,,,1,1,12.9,,,,,,,,,0,0,0,0,0,3,3,25,,,,,,,,,,,,,,,,,,,,,,,,,,,,,,,,,,,,,,,,,,,,,,,,,,,,,,,,,,,True,False,False,0.5,-0.5,-2.0,-1.9166666666666667,12.9,10.983333333333334,5.491666666666667,gamble,lose,10.983333333333334,19.883333333333333,996.3269653699535,None,996.3269653699535,None,996.3269653699535,None,996.3269653699535,None,996.3269653699535,None,996.3269653699535,None,996.3269653699535,None,1,1.5341710464272182,996.3269653699535,None,997.8942209636152,None,997.8942209636152,None,997.8942209636152,None,997.8942209636152,None,997.8942209636152,None,997.8942209636152,None,997.8942209636152,None,1001.8957402385422,None,1001.8957402385422,None,1001.8957402385422,None,1001.8957402385422,None,1001.8957402385422,None,1001.8957402385422,None,1001.8957402385422,None,1002.8794726695342,None,,,,,,,,,,,,,,,,,,,,,,,,,,,,,,22293,2019_Nov_27_1438,Mmi_3levels,3.1.5,59.98900103417146,
,,,1,1,11.9,,,,,,,,,0,0,0,0,0,4,4,24,,,,,,,,,,,,,,,,,,,,,,,,,,,,,,,,,,,,,,,,,,,,,,,,,,,,,,,,,,,True,False,False,0.5,-0.5,-2.5,-1.9583333333333333,11.9,9.941666666666666,4.970833333333333,gamble,lose,9.941666666666666,29.825,1004.8968694553187,None,1004.8968694553187,None,1004.8968694553187,None,1004.8968694553187,None,1004.8968694553187,None,1004.8968694553187,None,1004.8968694553187,None,1,1.984390314144548,1004.8968694553187,None,1006.9143055988825,None,1006.9143055988825,None,1006.9143055988825,None,1006.9143055988825,None,1006.9143055988825,None,1006.9143055988825,None,1006.9143055988825,None,1010.899108369922,None,1010.899108369922,None,1010.899108369922,None,1010.899108369922,None,1010.899108369922,None,1010.899108369922,None,1010.899108369922,None,1020.4027419264603,None,1011.8995259465592,None,1012.8998766469012,None,0.5,7.502787203906337,1015.9010244226374,None,None,1015.9010244226374,None,,,,,,,,,,,,,,,,,,,22293,2019_Nov_27_1438,Mmi_3levels,3.1.5,59.98900103417146,
,,,1,1,-0.5,,,,,,,,,0,0,0,0,0,5,5,8,,,,,,,,,,,,,,,,,,,,,,,,,,,,,,,,,,,,,,,,,,,,,,,,,,,,,,,,,,,True,True,True,0.5,-0.5,-3.0,10.0,-0.5,-10.5,-5.5,certain,certain,-5.5,24.325,1022.420174550236,None,1022.420174550236,None,1022.420174550236,None,1022.420174550236,None,1022.420174550236,None,1022.420174550236,None,1022.420174550236,None,3,1.984324077842757,1022.420174550236,None,1024.437603974191,None,1024.437603974191,None,1024.437603974191,None,1024.437603974191,None,1024.437603974191,None,1024.437603974191,None,1024.437603974191,None,1028.4391174894117,None,1028.4391174894117,None,1028.4391174894117,None,1028.4391174894117,None,1028.4391174894117,None,1028.4391174894117,None,1028.4391174894117,None,1029.4228275216592,None,,,,,,,,,,,,,,,,,,,,,,,,,,,,,,22293,2019_Nov_27_1438,Mmi_3levels,3.1.5,59.98900103417146,
,,,1,1,8.3,,,,,,,,,0,0,0,0,0,6,6,9,,,,,,,,,,,,,,,,,,,,,,,,,,,,,,,,,,,,,,,,,,,,,,,,,,,,,,,,,,,True,True,False,0.5,-0.5,-3.5,10.5,8.3,-2.1999999999999993,-1.0999999999999996,gamble,win,8.3,32.625,1031.44017567017,None,1031.44017567017,None,1031.44017567017,None,1031.44017567017,None,1031.44017567017,None,1031.44017567017,None,1031.44017567017,None,1,1.9677342868817504,1031.44017567017,None,1033.4410149831674,None,1033.4410149831674,None,1033.4410149831674,None,1033.4410149831674,None,1033.4410149831674,None,1033.4410149831674,None,1033.4410149831674,None,1037.4259041493642,None,1037.4259041493642,None,1037.4259041493642,None,1037.4259041493642,None,1037.4259041493642,None,1037.4259041493642,None,1037.4259041493642,None,1038.4262270112813,None,,,,,,,,,,,,,,,,,,,,,,,,,,,,,,22293,2019_Nov_27_1438,Mmi_3levels,3.1.5,59.98900103417146,
,,,1,1,7.5,,,,,,,,,0,0,0,0,0,7,7,18,,,,,,,,,,,,,,,,,,,,,,,,,,,,,,,,,,,,,,,,,,,,,,,,,,,,,,,,,,,True,True,True,0.5,-0.5,-4.0,11.0,7.5,-3.5,2.0,gamble,win,7.5,40.125,1040.4436570752005,None,1040.4436570752005,None,1040.4436570752005,None,1040.4436570752005,None,1040.4436570752005,None,1040.4436570752005,None,1040.4436570752005,None,1,1.9176420520234387,1040.4436570752005,None,1042.3943814346567,None,1042.3943814346567,None,1042.3943814346567,None,1042.3943814346567,None,1042.3943814346567,None,1042.3943814346567,None,1042.3943814346567,None,1046.3958571919939,None,1046.3958571919939,None,1046.3958571919939,None,1046.3958571919939,None,1046.3958571919939,None,1046.3958571919939,None,1046.3958571919939,None,1055.8828001632064,None,1047.379548345285,None,1048.3799988800602,None,0.54,7.502762245305348,1051.3811456958356,None,None,1051.3811456958356,None,,,,,,,,,,,,,,,,,,,22293,2019_Nov_27_1438,Mmi_3levels,3.1.5,59.98900103417146,
,,,1,1,3.5,,,,,,,,,0,0,0,0,0,8,8,7,,,,,,,,,,,,,,,,,,,,,,,,,,,,,,,,,,,,,,,,,,,,,,,,,,,,,,,,,,,True,False,False,0.54,-0.45999999999999996,-4.46,-1.9816666666666665,3.5,1.5183333333333335,0.7591666666666668,gamble,lose,1.5183333333333335,41.64333333333333,1057.9002641452244,None,1057.9002641452244,None,1057.9002641452244,None,1057.9002641452244,None,1057.9002641452244,None,1057.9002641452244,None,1057.9002641452244,None,1,1.6008674714248627,1057.9002641452244,None,1059.534219683701,None,1059.534219683701,None,1059.534219683701,None,1059.534219683701,None,1059.534219683701,None,1059.534219683701,None,1059.534219683701,None,1063.51907045205,None,1063.51907045205,None,1063.51907045205,None,1063.51907045205,None,1063.51907045205,None,1063.51907045205,None,1063.51907045205,None,1064.5194400313485,None,,,,,,,,,,,,,,,,,,,,,,,,,,,,,,22293,2019_Nov_27_1438,Mmi_3levels,3.1.5,59.98900103417146,
,,,1,1,5.3,,,,,,,,,0,0,0,0,0,9,9,10,,,,,,,,,,,,,,,,,,,,,,,,,,,,,,,,,,,,,,,,,,,,,,,,,,,,,,,,,,,True,True,True,0.54,-0.45999999999999996,-4.92,11.36,5.3,-6.06,-0.3799999999999999,certain,certain,-0.3799999999999999,41.26333333333333,1066.536869135336,None,1066.536869135336,None,1066.536869135336,None,1066.536869135336,None,1066.536869135336,None,1066.536869135336,None,1066.536869135336,None,3,1.8509408273384906,1066.536869135336,None,1068.4208823505905,None,1068.4208823505905,None,1068.4208823505905,None,1068.4208823505905,None,1068.4208823505905,None,1068.4208823505905,None,1068.4208823505905,None,1072.4057532778243,None,1072.4057532778243,None,1072.4057532778243,None,1072.4057532778243,None,1072.4057532778243,None,1072.4057532778243,None,1072.4057532778243,None,1081.909356436052,None,1073.40613949619,None,1074.4065151551622,None,0.5,7.502731527027208,1077.4076408521214,None,None,1077.4076408521214,None,,,,,,,,,,,,,,,,,,,22293,2019_Nov_27_1438,Mmi_3levels,3.1.5,59.98900103417146,
,,,1,1,-0.1,,,,,,,,,0,0,0,0,0,10,10,4,,,,,,,,,,,,,,,,,,,,,,,,,,,,,,,,,,,,,,,,,,,,,,,,,,,,,,,,,,,True,True,False,0.5,-0.5,-5.42,12.42,-0.1,-12.52,-6.31,certain,certain,-6.31,34.953333333333326,1083.9267487420875,None,1083.9267487420875,None,1083.9267487420875,None,1083.9267487420875,None,1083.9267487420875,None,1083.9267487420875,None,1083.9267487420875,None,3,2.2009349876316264,1083.9267487420875,None,1086.1609641060058,None,1086.1609641060058,None,1086.1609641060058,None,1086.1609641060058,None,1086.1609641060058,None,1086.1609641060058,None,1086.1609641060058,None,1090.1624721815751,None,1090.1624721815751,None,1090.1624721815751,None,1090.1624721815751,None,1090.1624721815751,None,1090.1624721815751,None,1090.1624721815751,None,1091.146184133686,None,,,,,,,,,,,,,,,,,,,,,,,,,,,,,,22293,2019_Nov_27_1438,Mmi_3levels,3.1.5,59.98900103417146,
,,,1,1,10.3,,,,,,,,,0,0,0,0,0,11,11,2,,,,,,,,,,,,,,,,,,,,,,,,,,,,,,,,,,,,,,,,,,,,,,,,,,,,,,,,,,,True,True,False,0.5,-0.5,-5.92,12.92,10.3,-2.619999999999999,-1.3099999999999996,gamble,win,10.3,45.25333333333333,1093.163611317781,None,1093.163611317781,None,1093.163611317781,None,1093.163611317781,None,1093.163611317781,None,1093.163611317781,None,1093.163611317781,None,1,1.5175290983752348,1093.163611317781,None,1094.7142000047897,None,1094.7142000047897,None,1094.7142000047897,None,1094.7142000047897,None,1094.7142000047897,None,1094.7142000047897,None,1094.7142000047897,None,1098.6990450134908,None,1098.6990450134908,None,1098.6990450134908,None,1098.6990450134908,None,1098.6990450134908,None,1098.6990450134908,None,1098.6990450134908,None,1108.2026363323675,None,1099.6994241922512,None,1100.6998011311516,None,0.53,7.502718087809626,1103.7009140288283,None,None,1103.7009140288283,None,,,,,,,,,,,,,,,,,,,22293,2019_Nov_27_1438,Mmi_3levels,3.1.5,59.98900103417146,
,,,1,1,11.1,,,,,,,,,0,0,0,0,0,12,12,11,,,,,,,,,,,,,,,,,,,,,,,,,,,,,,,,,,,,,,,,,,,,,,,,,,,,,,,,,,,True,True,False,0.53,-0.47,-6.39,12.969999999999999,11.1,-1.8699999999999992,-0.9349999999999996,gamble,win,11.1,56.35333333333333,1110.220063196466,None,1110.220063196466,None,1110.220063196466,None,1110.220063196466,None,1110.220063196466,None,1110.220063196466,None,1110.220063196466,None,1,1.7009514667151961,1110.220063196466,None,1111.9540630524862,None,1111.9540630524862,None,1111.9540630524862,None,1111.9540630524862,None,1111.9540630524862,None,1111.9540630524862,None,1111.9540630524862,None,1115.9555762477394,None,1115.9555762477394,None,1115.9555762477394,None,1115.9555762477394,None,1115.9555762477394,None,1115.9555762477394,None,1115.9555762477394,None,1116.9392754005676,None,,,,,,,,,,,,,,,,,,,,,,,,,,,,,,22293,2019_Nov_27_1438,Mmi_3levels,3.1.5,59.98900103417146,
,,,1,1,3.1,,,,,,,,,0,0,0,0,0,13,13,1,,,,,,,,,,,,,,,,,,,,,,,,,,,,,,,,,,,,,,,,,,,,,,,,,,,,,,,,,,,True,True,True,0.53,-0.47,-6.859999999999999,13.44,3.1,-10.34,-3.62,certain,certain,-3.62,52.733333333333334,1118.956703864591,None,1118.956703864591,None,1118.956703864591,None,1118.956703864591,None,1118.956703864591,None,1118.956703864591,None,1118.956703864591,None,3,1.8843427968095057,1118.956703864591,None,1120.8741001703893,None,1120.8741001703893,None,1120.8741001703893,None,1120.8741001703893,None,1120.8741001703893,None,1120.8741001703893,None,1120.8741001703893,None,1124.9089686177613,None,1124.9089686177613,None,1124.9089686177613,None,1124.9089686177613,None,1124.9089686177613,None,1124.9089686177613,None,1124.9089686177613,None,1125.859326277743,None,,,,,,,,,,,,,,,,,,,,,,,,,,,,,,22293,2019_Nov_27_1438,Mmi_3levels,3.1.5,59.98900103417146,
,,,1,1,-1.5,,,,,,,,,0,0,0,0,0,14,14,0,,,,,,,,,,,,,,,,,,,,,,,,,,,,,,,,,,,,,,,,,,,,,,,,,,,,,,,,,,,True,True,False,0.53,-0.47,-7.329999999999999,13.91,-1.5,-15.41,-8.455,certain,certain,-8.455,44.278333333333336,1127.8767512219492,None,1127.8767512219492,None,1127.8767512219492,None,1127.8767512219492,None,1127.8767512219492,None,1127.8767512219492,None,1127.8767512219492,None,3,1.8009225083515048,1127.8767512219492,None,1129.7107803563122,None,1129.7107803563122,None,1129.7107803563122,None,1129.7107803563122,None,1129.7107803563122,None,1129.7107803563122,None,1129.7107803563122,None,1133.7122909917089,None,1133.7122909917089,None,1133.7122909917089,None,1133.7122909917089,None,1133.7122909917089,None,1133.7122909917089,None,1133.7122909917089,None,1143.1992202036781,None,1134.6960032638162,None,1135.69636676347,None,0.5,7.502760965377092,1138.697499180038,None,None,1138.697499180038,None,,,,,,,,,,,,,,,,,,,22293,2019_Nov_27_1438,Mmi_3levels,3.1.5,59.98900103417146,
,,,1,1,3.7,,,,,,,,,0,0,0,0,0,15,15,6,,,,,,,,,,,,,,,,,,,,,,,,,,,,,,,,,,,,,,,,,,,,,,,,,,,,,,,,,,,True,True,True,0.5,-0.5,-7.829999999999999,14.829999999999998,3.7,-11.129999999999999,-3.7149999999999994,gamble,win,3.7,47.97833333333334,1145.2166454678518,None,1145.2166454678518,None,1145.2166454678518,None,1145.2166454678518,None,1145.2166454678518,None,1145.2166454678518,None,1145.2166454678518,None,None,,1145.2166454678518,None,1148.2177842840902,None,1148.2177842840902,None,1148.2177842840902,None,1148.2177842840902,None,1148.2177842840902,None,1148.2177842840902,None,1148.2177842840902,None,1152.219300679164,None,1152.219300679164,None,1152.219300679164,None,1152.219300679164,None,1152.219300679164,None,1152.219300679164,None,1152.219300679164,None,1153.2030033518095,None,,,,,,,,,,,,,,,,,,,,,,,,,,,,,,22293,2019_Nov_27_1438,Mmi_3levels,3.1.5,59.98900103417146,
,,,1,1,0.5,,,,,,,,,0,0,0,0,0,16,16,15,,,,,,,,,,,,,,,,,,,,,,,,,,,,,,,,,,,,,,,,,,,,,,,,,,,,,,,,,,,True,True,False,0.5,-0.5,-8.329999999999998,15.329999999999998,0.5,-14.829999999999998,-7.164999999999999,certain,certain,-7.164999999999999,40.81333333333334,1155.2204292559763,None,1155.2204292559763,None,1155.2204292559763,None,1155.2204292559763,None,1155.2204292559763,None,1155.2204292559763,None,1155.2204292559763,None,3,1.5675538169743959,1155.2204292559763,None,1156.82104298161,None,1156.82104298161,None,1156.82104298161,None,1156.82104298161,None,1156.82104298161,None,1156.82104298161,None,1156.82104298161,None,1160.8058822306048,None,1160.8058822306048,None,1160.8058822306048,None,1160.8058822306048,None,1160.8058822306048,None,1160.8058822306048,None,1160.8058822306048,None,1170.3095189869346,None,1161.8062121321273,None,1162.8066338685167,None,0.5,7.502765445125988,1165.8077640452248,None,None,1165.8077640452248,None,,,,,,,,,,,,,,,,,,,22293,2019_Nov_27_1438,Mmi_3levels,3.1.5,59.98900103417146,
,,,1,1,6.9,,,,,,,,,0,0,0,0,0,17,17,14,,,,,,,,,,,,,,,,,,,,,,,,,,,,,,,,,,,,,,,,,,,,,,,,,,,,,,,,,,,True,True,False,0.5,-0.5,-8.829999999999998,15.829999999999998,6.9,-8.929999999999998,-1.0149999999999988,gamble,win,6.9,47.71333333333334,1172.3269093730778,None,1172.3269093730778,None,1172.3269093730778,None,1172.3269093730778,None,1172.3269093730778,None,1172.3269093730778,None,1172.3269093730778,None,1,1.4008233138883952,1172.3269093730778,None,1173.760780436307,None,1173.760780436307,None,1173.760780436307,None,1173.760780436307,None,1173.760780436307,None,1173.760780436307,None,1173.760780436307,None,1177.7622558736766,None,1177.7622558736766,None,1177.7622558736766,None,1177.7622558736766,None,1177.7622558736766,None,1177.7622558736766,None,1177.7622558736766,None,1178.7459780652425,None,,,,,,,,,,,,,,,,,,,,,,,,,,,,,,22293,2019_Nov_27_1438,Mmi_3levels,3.1.5,59.98900103417146,
,,,1,1,8.7,,,,,,,,,0,0,0,0,0,18,18,13,,,,,,,,,,,,,,,,,,,,,,,,,,,,,,,,,,,,,,,,,,,,,,,,,,,,,,,,,,,True,False,False,0.5,-0.5,-9.329999999999998,-2.5275,8.7,6.172499999999999,3.0862499999999997,gamble,lose,6.172499999999999,53.88583333333334,1180.7634334077302,None,1180.7634334077302,None,1180.7634334077302,None,1180.7634334077302,None,1180.7634334077302,None,1180.7634334077302,None,1180.7634334077302,None,1,1.4674685417558067,1180.7634334077302,None,1182.2640223347407,None,1182.2640223347407,None,1182.2640223347407,None,1182.2640223347407,None,1182.2640223347407,None,1182.2640223347407,None,1182.2640223347407,None,1186.2488398249843,None,1186.2488398249843,None,1186.2488398249843,None,1186.2488398249843,None,1186.2488398249843,None,1186.2488398249843,None,1186.2488398249843,None,1187.2492250833893,None,,,,,,,,,,,,,,,,,,,,,,,,,,,,,,22293,2019_Nov_27_1438,Mmi_3levels,3.1.5,59.98900103417146,
,,,1,1,12.3,,,,,,,,,0,0,0,0,0,19,19,20,,,,,,,,,,,,,,,,,,,,,,,,,,,,,,,,,,,,,,,,,,,,,,,,,,,,,,,,,,,True,True,False,0.5,-0.5,-9.829999999999998,16.83,12.3,-4.529999999999998,-2.264999999999999,gamble,win,12.3,66.18583333333333,1189.2666513075237,None,1189.2666513075237,None,1189.2666513075237,None,1189.2666513075237,None,1189.2666513075237,None,1189.2666513075237,None,1189.2666513075237,None,1,1.6508720311685465,1189.2666513075237,None,1190.950630604697,None,1190.950630604697,None,1190.950630604697,None,1190.950630604697,None,1190.950630604697,None,1190.950630604697,None,1190.950630604697,None,1194.952193717152,None,1194.952193717152,None,1194.952193717152,None,1194.952193717152,None,1194.952193717152,None,1194.952193717152,None,1194.952193717152,None,1204.4390624524967,None,1195.9358442327357,None,1196.9362266113167,None,0.56,7.502815682295477,1199.9373145503923,None,None,1199.9373145503923,None,,,,,,,,,,,,,,,,,,,22293,2019_Nov_27_1438,Mmi_3levels,3.1.5,59.98900103417146,
,,,1,1,13.3,,,,,,,,,0,0,0,0,0,20,20,16,,,,,,,,,,,,,,,,,,,,,,,,,,,,,,,,,,,,,,,,,,,,,,,,,,,,,,,,,,,True,True,False,0.56,-0.43999999999999995,-10.269999999999998,16.429999999999996,13.3,-3.1299999999999955,-1.5649999999999977,gamble,win,13.3,79.48583333333333,1206.4564211604302,None,1206.4564211604302,None,1206.4564211604302,None,1206.4564211604302,None,1206.4564211604302,None,1206.4564211604302,None,1206.4564211604302,None,1,1.3675038997607771,1206.4564211604302,None,1207.8570579247607,None,1207.8570579247607,None,1207.8570579247607,None,1207.8570579247607,None,1207.8570579247607,None,1207.8570579247607,None,1207.8570579247607,None,1211.858554160979,None,1211.858554160979,None,1211.858554160979,None,1211.858554160979,None,1211.858554160979,None,1211.858554160979,None,1211.858554160979,None,1212.8422421144496,None,,,,,,,,,,,,,,,,,,,,,,,,,,,,,,22293,2019_Nov_27_1438,Mmi_3levels,3.1.5,59.98900103417146,
,,,1,1,9.5,,,,,,,,,0,0,0,0,0,21,21,19,,,,,,,,,,,,,,,,,,,,,,,,,,,,,,,,,,,,,,,,,,,,,,,,,,,,,,,,,,,True,True,False,0.56,-0.43999999999999995,-10.709999999999997,16.869999999999997,9.5,-7.369999999999997,1.0650000000000013,gamble,win,9.5,88.98583333333333,1214.8596968169732,None,1214.8596968169732,None,1214.8596968169732,None,1214.8596968169732,None,1214.8596968169732,None,1214.8596968169732,None,1214.8596968169732,None,1,1.8009247482114006,1214.8596968169732,None,1216.6936955530546,None,1216.6936955530546,None,1216.6936955530546,None,1216.6936955530546,None,1216.6936955530546,None,1216.6936955530546,None,1216.6936955530546,None,1220.6952106682002,None,1220.6952106682002,None,1220.6952106682002,None,1220.6952106682002,None,1220.6952106682002,None,1220.6952106682002,None,1220.6952106682002,None,1230.1821341204923,None,1221.6789133408456,None,1222.679352676263,None,0.53,7.502751365915174,1225.6804114969564,None,None,1225.6804114969564,None,,,,,,,,,,,,,,,,,,,22293,2019_Nov_27_1438,Mmi_3levels,3.1.5,59.98900103417146,
,,,1,1,11.3,,,,,,,,,0,0,0,0,0,22,22,22,,,,,,,,,,,,,,,,,,,,,,,,,,,,,,,,,,,,,,,,,,,,,,,,,,,,,,,,,,,True,True,False,0.53,-0.47,-11.179999999999998,17.759999999999998,11.3,-6.459999999999997,-3.2299999999999986,certain,certain,-3.2299999999999986,85.75583333333333,1232.199565144343,None,1232.199565144343,None,1232.199565144343,None,1232.199565144343,None,1232.199565144343,None,1232.199565144343,None,1232.199565144343,None,3,1.9509841848921496,1232.199565144343,None,1234.183646995778,None,1234.183646995778,None,1234.183646995778,None,1234.183646995778,None,1234.183646995778,None,1234.183646995778,None,1234.183646995778,None,1238.1684542465664,None,1238.1684542465664,None,1238.1684542465664,None,1238.1684542465664,None,1238.1684542465664,None,1238.1684542465664,None,1238.1684542465664,None,1239.168869903282,None,,,,,,,,,,,,,,,,,,,,,,,,,,,,,,22293,2019_Nov_27_1438,Mmi_3levels,3.1.5,59.98900103417146,
,,,1,1,6.3,,,,,,,,,0,0,0,0,0,23,23,5,,,,,,,,,,,,,,,,,,,,,,,,,,,,,,,,,,,,,,,,,,,,,,,,,,,,,,,,,,,True,True,False,0.53,-0.47,-11.649999999999999,18.229999999999997,6.3,-11.929999999999996,-2.814999999999998,gamble,win,6.3,92.05583333333333,1241.186301567126,None,1241.186301567126,None,1241.186301567126,None,1241.186301567126,None,1241.186301567126,None,1241.186301567126,None,1241.186301567126,None,1,1.650855072104605,1241.186301567126,None,1242.87026774502,None,1242.87026774502,None,1242.87026774502,None,1242.87026774502,None,1242.87026774502,None,1242.87026774502,None,1242.87026774502,None,1246.8717851000256,None,1246.8717851000256,None,1246.8717851000256,None,1246.8717851000256,None,1246.8717851000256,None,1246.8717851000256,None,1246.8717851000256,None,1256.3587130320666,None,1247.855494492309,None,1248.8558656715322,None,0.56,7.5028553601005115,1251.8569926484197,None,None,1251.8569926484197,None,,,,,,,,,,,,,,,,,,,22293,2019_Nov_27_1438,Mmi_3levels,3.1.5,59.98900103417146,
,,,1,1,0.7,,,,,,,,,0,0,0,0,0,24,24,17,,,,,,,,,,,,,,,,,,,,,,,,,,,,,,,,,,,,,,,,,,,,,,,,,,,,,,,,,,,True,True,False,0.56,-0.43999999999999995,-12.089999999999998,18.249999999999996,0.7,-17.549999999999997,-8.424999999999999,certain,certain,-8.424999999999999,83.63083333333333,1258.376174454228,None,1258.376174454228,None,1258.376174454228,None,1258.376174454228,None,1258.376174454228,None,1258.376174454228,None,1258.376174454228,None,3,1.634112649684539,1258.376174454228,None,1260.0434353276214,None,1260.0434353276214,None,1260.0434353276214,None,1260.0434353276214,None,1260.0434353276214,None,1260.0434353276214,None,1260.0434353276214,None,1264.0449462830147,None,1264.0449462830147,None,1264.0449462830147,None,1264.0449462830147,None,1264.0449462830147,None,1264.0449462830147,None,1264.0449462830147,None,1265.0286246370233,None,,,,,,,,,,,,,,,,,,,,,,,,,,,,,,22293,2019_Nov_27_1438,Mmi_3levels,3.1.5,59.98900103417146,
,,,1,1,-0.7,,,,,,,,,0,0,0,0,0,25,25,23,,,,,,,,,,,,,,,,,,,,,,,,,,,,,,,,,,,,,,,,,,,,,,,,,,,,,,,,,,,True,False,False,0.56,-0.43999999999999995,-12.529999999999998,-2.5841666666666665,-0.7,-3.2841666666666667,-1.9920833333333334,certain,certain,-1.9920833333333334,81.63874999999999,1267.0460882990446,None,1267.0460882990446,None,1267.0460882990446,None,1267.0460882990446,None,1267.0460882990446,None,1267.0460882990446,None,1267.0460882990446,None,3,1.90096490594442,1267.0460882990446,None,1268.9801556712773,None,1268.9801556712773,None,1268.9801556712773,None,1268.9801556712773,None,1268.9801556712773,None,1268.9801556712773,None,1268.9801556712773,None,1272.9816675866314,None,1272.9816675866314,None,1272.9816675866314,None,1272.9816675866314,None,1272.9816675866314,None,1272.9816675866314,None,1272.9816675866314,None,1273.965373779065,None,,,,,,,,,,,,,,,,,,,,,,,,,,,,,,22293,2019_Nov_27_1438,Mmi_3levels,3.1.5,59.98900103417146,
,,,1,1,5.9,,,,,,,,,0,0,0,0,0,26,26,26,,,,,,,,,,,,,,,,,,,,,,,,,,,,,,,,,,,,,,,,,,,,,,,,,,,,,,,,,,,True,True,False,0.56,-0.43999999999999995,-12.969999999999997,19.129999999999995,5.9,-13.229999999999995,-3.6649999999999974,certain,certain,-3.6649999999999974,77.97375,1275.9828022430884,None,1275.9828022430884,None,1275.9828022430884,None,1275.9828022430884,None,1275.9828022430884,None,1275.9828022430884,None,1275.9828022430884,None,3,1.4675206988467835,1275.9828022430884,None,1277.483374211035,None,1277.483374211035,None,1277.483374211035,None,1277.483374211035,None,1277.483374211035,None,1277.483374211035,None,1277.483374211035,None,1281.484888366249,None,1281.484888366249,None,1281.484888366249,None,1281.484888366249,None,1281.484888366249,None,1281.484888366249,None,1281.484888366249,None,1290.971808938717,None,1282.4685878390737,None,1283.4689721375762,None,0.54,7.502777284476906,1286.4701000743953,None,None,1286.4701000743953,None,,,,,,,,,,,,,,,,,,,22293,2019_Nov_27_1438,Mmi_3levels,3.1.5,59.98900103417146,
,,,2,0,5.7,,,,,,,,,0,1,1,1,0,0,0,3,,,,,,,,,,,,,,,,,,,,,,,,,,,,,,,,,,,,,,,,,,,,,,,,1306.3276213332138,None,0.53,7.501611269777641,1309.3454120169336,None,None,1309.3454120169336,None,1313.8304370155383,None,False,True,False,0.53,0.53,0.53,-7.95,5.7,-2.25,1.725,gamble,lose,-2.25,75.72375,1316.8649435631523,None,1316.8649435631523,None,1316.8649435631523,None,1316.8649435631523,None,1316.8649435631523,None,1316.8649435631523,None,1316.8649435631523,None,1,1.600894989882363,1316.8649435631523,None,1318.4988959018374,None,1318.4988959018374,None,1318.4988959018374,None,1318.4988959018374,None,1318.4988959018374,None,1318.4988959018374,None,1318.4988959018374,None,1322.5004119769437,None,1322.5004119769437,None,1322.5004119769437,None,1322.5004119769437,None,1322.5004119769437,None,1322.5004119769437,None,1322.5004119769437,None,1323.4840724119567,None,,,,,,,,,,,,1292.9725528970303,None,4,13.338764069223544,1292.9725528970303,None,,,,,,,,,,,,,22293,2019_Nov_27_1438,Mmi_3levels,3.1.5,59.98900103417146,
,,,2,0,4.7,,,,,,,,,0,1,1,1,0,1,1,25,,,,,,,,,,,,,,,,,,,,,,,,,,,,,,,,,,,,,,,,,,,,,,,,,,,,,,,,,,,False,True,False,0.53,0.53,1.06,-8.48,4.7,-3.7800000000000002,0.45999999999999996,gamble,lose,-3.7800000000000002,71.94375,1325.5015450334758,None,1325.5015450334758,None,1325.5015450334758,None,1325.5015450334758,None,1325.5015450334758,None,1325.5015450334758,None,1325.5015450334758,None,1,1.9676642108242959,1325.5015450334758,None,1327.5023049909214,None,1327.5023049909214,None,1327.5023049909214,None,1327.5023049909214,None,1327.5023049909214,None,1327.5023049909214,None,1327.5023049909214,None,1331.5038185061712,None,1331.5038185061712,None,1331.5038185061712,None,1331.5038185061712,None,1331.5038185061712,None,1331.5038185061712,None,1331.5038185061712,None,1340.9907390786102,None,1332.4875198988884,None,1333.4878603598336,None,0.53,7.502765445155092,1336.4890209348232,None,None,1336.4890209348232,None,,,,,,,,,,,,,,,,,,,22293,2019_Nov_27_1438,Mmi_3levels,3.1.5,59.98900103417146,
,,,2,0,11.3,,,,,,,,,0,1,1,1,0,2,2,1,,,,,,,,,,,,,,,,,,,,,,,,,,,,,,,,,,,,,,,,,,,,,,,,,,,,,,,,,,,False,True,False,0.53,0.53,1.59,-9.01,11.3,2.290000000000001,1.1450000000000005,gamble,lose,2.290000000000001,74.23375,1343.0081662627053,None,1343.0081662627053,None,1343.0081662627053,None,1343.0081662627053,None,1343.0081662627053,None,1343.0081662627053,None,1343.0081662627053,None,1,1.483986336766975,1343.0081662627053,None,1344.5253760189516,None,1344.5253760189516,None,1344.5253760189516,None,1344.5253760189516,None,1344.5253760189516,None,1344.5253760189516,None,1344.5253760189516,None,1348.5102485460811,None,1348.5102485460811,None,1348.5102485460811,None,1348.5102485460811,None,1348.5102485460811,None,1348.5102485460811,None,1348.5102485460811,None,1349.5105986064882,None,,,,,,,,,,,,,,,,,,,,,,,,,,,,,,22293,2019_Nov_27_1438,Mmi_3levels,3.1.5,59.98900103417146,
,,,2,0,9.7,,,,,,,,,0,1,1,1,0,3,3,24,,,,,,,,,,,,,,,,,,,,,,,,,,,,,,,,,,,,,,,,,,,,,,,,,,,,,,,,,,,False,True,False,0.53,0.53,2.12,-9.54,9.7,0.16000000000000014,0.08000000000000007,gamble,lose,0.16000000000000014,74.39375,1351.528056828829,None,1351.528056828829,None,1351.528056828829,None,1351.528056828829,None,1351.528056828829,None,1351.528056828829,None,1351.528056828829,None,1,1.8176438119262457,1351.528056828829,None,1353.3787573495938,None,1353.3787573495938,None,1353.3787573495938,None,1353.3787573495938,None,1353.3787573495938,None,1353.3787573495938,None,1353.3787573495938,None,1357.3635690801311,None,1357.3635690801311,None,1357.3635690801311,None,1357.3635690801311,None,1357.3635690801311,None,1357.3635690801311,None,1357.3635690801311,None,1366.867193997139,None,1358.3639805770945,None,1359.3643619957438,None,0.5,7.502760965406196,1362.3654720135673,None,None,1362.3654720135673,None,,,,,,,,,,,,,,,,,,,22293,2019_Nov_27_1438,Mmi_3levels,3.1.5,59.98900103417146,
,,,2,0,8.5,,,,,,,,,0,1,1,1,0,4,4,26,,,,,,,,,,,,,,,,,,,,,,,,,,,,,,,,,,,,,,,,,,,,,,,,,,,,,,,,,,,False,False,False,0.5,0.5,2.62,1.9683333333333333,2.125,0.15666666666666673,1.1408333333333334,gamble,win,2.125,76.51875,1368.8846343004843,None,1368.8846343004843,None,1368.8846343004843,None,1368.8846343004843,None,1368.8846343004843,None,1368.8846343004843,None,1368.8846343004843,None,1,1.3839330597547814,1368.8846343004843,None,1370.2851629108773,None,1370.2851629108773,None,1370.2851629108773,None,1370.2851629108773,None,1370.2851629108773,None,1370.2851629108773,None,1370.2851629108773,None,1374.2866709864174,None,1374.2866709864174,None,1374.2866709864174,None,1374.2866709864174,None,1374.2866709864174,None,1374.2866709864174,None,1374.2866709864174,None,1375.2870540049917,None,,,,,,,,,,,,,,,,,,,,,,,,,,,,,,22293,2019_Nov_27_1438,Mmi_3levels,3.1.5,59.98900103417146,
,,,2,0,-0.5,,,,,,,,,0,1,1,1,0,5,5,10,,,,,,,,,,,,,,,,,,,,,,,,,,,,,,,,,,,,,,,,,,,,,,,,,,,,,,,,,,,False,True,False,0.5,0.5,3.12,-10.120000000000001,-0.5,-10.620000000000001,-5.5600000000000005,certain,certain,-5.5600000000000005,70.95875,1377.3044783092046,None,1377.3044783092046,None,1377.3044783092046,None,1377.3044783092046,None,1377.3044783092046,None,1377.3044783092046,None,1377.3044783092046,None,3,1.967664210795192,1377.3044783092046,None,1379.305239866575,None,1379.305239866575,None,1379.305239866575,None,1379.305239866575,None,1379.305239866575,None,1379.305239866575,None,1379.305239866575,None,1383.3067572216096,None,1383.3067572216096,None,1383.3067572216096,None,1383.3067572216096,None,1383.3067572216096,None,1383.3067572216096,None,1383.3067572216096,None,1384.2904608541867,None,,,,,,,,,,,,,,,,,,,,,,,,,,,,,,22293,2019_Nov_27_1438,Mmi_3levels,3.1.5,59.98900103417146,
,,,2,0,13.1,,,,,,,,,0,1,1,1,0,6,6,2,,,,,,,,,,,,,,,,,,,,,,,,,,,,,,,,,,,,,,,,,,,,,,,,,,,,,,,,,,,False,True,True,0.5,0.5,3.62,-10.620000000000001,13.1,2.4799999999999986,1.2399999999999993,gamble,lose,2.4799999999999986,73.43875,1386.307886438357,None,1386.307886438357,None,1386.307886438357,None,1386.307886438357,None,1386.307886438357,None,1386.307886438357,None,1386.307886438357,None,1,1.217391666083131,1386.307886438357,None,1387.5583664914884,None,1387.5583664914884,None,1387.5583664914884,None,1387.5583664914884,None,1387.5583664914884,None,1387.5583664914884,None,1387.5583664914884,None,1391.5599379234773,None,1391.5599379234773,None,1391.5599379234773,None,1391.5599379234773,None,1391.5599379234773,None,1391.5599379234773,None,1391.5599379234773,None,1401.04679705936,None,1392.5435478013242,None,1393.5439129008737,None,0.47,7.502715847920626,1396.5450773156772,None,None,1396.5450773156772,None,,,,,,,,,,,,,,,,,,,22293,2019_Nov_27_1438,Mmi_3levels,3.1.5,59.98900103417146,
,,,2,0,1.9,,,,,,,,,0,1,1,1,0,7,7,23,,,,,,,,,,,,,,,,,,,,,,,,,,,,,,,,,,,,,,,,,,,,,,,,,,,,,,,,,,,False,False,True,0.47,0.47,4.09,1.9858333333333333,0.475,-1.5108333333333333,-0.5179166666666666,certain,certain,-0.5179166666666666,72.92083333333333,1403.0642261633475,None,1403.0642261633475,None,1403.0642261633475,None,1403.0642261633475,None,1403.0642261633475,None,1403.0642261633475,None,1403.0642261633475,None,3,2.1177556456823368,1403.0642261633475,None,1405.21505259705,None,1405.21505259705,None,1405.21505259705,None,1405.21505259705,None,1405.21505259705,None,1405.21505259705,None,1405.21505259705,None,1409.2165651523683,None,1409.2165651523683,None,1409.2165651523683,None,1409.2165651523683,None,1409.2165651523683,None,1409.2165651523683,None,1409.2165651523683,None,1410.2001929492108,None,,,,,,,,,,,,,,,,,,,,,,,,,,,,,,22293,2019_Nov_27_1438,Mmi_3levels,3.1.5,59.98900103417146,
,,,2,0,3.5,,,,,,,,,0,1,1,1,0,8,8,17,,,,,,,,,,,,,,,,,,,,,,,,,,,,,,,,,,,,,,,,,,,,,,,,,,,,,,,,,,,False,True,True,0.47,0.47,4.56,-11.14,3.5,-7.640000000000001,-2.0700000000000003,certain,certain,-2.0700000000000003,70.85083333333333,1412.2176905293309,None,1412.2176905293309,None,1412.2176905293309,None,1412.2176905293309,None,1412.2176905293309,None,1412.2176905293309,None,1412.2176905293309,None,3,1.650897949730279,1412.2176905293309,None,1413.9017063044594,None,1413.9017063044594,None,1413.9017063044594,None,1413.9017063044594,None,1413.9017063044594,None,1413.9017063044594,None,1413.9017063044594,None,1417.9032194997126,None,1417.9032194997126,None,1417.9032194997126,None,1417.9032194997126,None,1417.9032194997126,None,1417.9032194997126,None,1417.9032194997126,None,1427.3901019943005,None,1418.8868837745104,None,1419.8872952714737,None,0.5,7.502826881682267,1422.8883838505135,None,None,1422.8883838505135,None,,,,,,,,,,,,,,,,,,,22293,2019_Nov_27_1438,Mmi_3levels,3.1.5,59.98900103417146,
,,,2,0,2.9,,,,,,,,,0,1,1,1,0,9,9,9,,,,,,,,,,,,,,,,,,,,,,,,,,,,,,,,,,,,,,,,,,,,,,,,,,,,,,,,,,,False,True,False,0.5,0.5,5.06,-12.059999999999999,2.9,-9.159999999999998,-3.129999999999999,certain,certain,-3.129999999999999,67.72083333333333,1429.4075304582948,None,1429.4075304582948,None,1429.4075304582948,None,1429.4075304582948,None,1429.4075304582948,None,1429.4075304582948,None,1429.4075304582948,None,3,1.6842052045103628,1429.4075304582948,None,1431.1248922060477,None,1431.1248922060477,None,1431.1248922060477,None,1431.1248922060477,None,1431.1248922060477,None,1431.1248922060477,None,1431.1248922060477,None,1435.1263622037077,None,1435.1263622037077,None,1435.1263622037077,None,1435.1263622037077,None,1435.1263622037077,None,1435.1263622037077,None,1435.1263622037077,None,1436.1100690361345,None,,,,,,,,,,,,,,,,,,,,,,,,,,,,,,22293,2019_Nov_27_1438,Mmi_3levels,3.1.5,59.98900103417146,
,,,2,0,1.5,,,,,,,,,0,1,1,1,0,10,10,18,,,,,,,,,,,,,,,,,,,,,,,,,,,,,,,,,,,,,,,,,,,,,,,,,,,,,,,,,,,False,False,True,0.5,0.5,5.56,2.2133333333333334,0.375,-1.8383333333333334,-0.7316666666666667,certain,certain,-0.7316666666666667,66.98916666666666,1438.1275013399427,None,1438.1275013399427,None,1438.1275013399427,None,1438.1275013399427,None,1438.1275013399427,None,1438.1275013399427,None,1438.1275013399427,None,3,1.9843717551848385,1438.1275013399427,None,1440.1449336437217,None,1440.1449336437217,None,1440.1449336437217,None,1440.1449336437217,None,1440.1449336437217,None,1440.1449336437217,None,1440.1449336437217,None,1444.1297738526773,None,1444.1297738526773,None,1444.1297738526773,None,1444.1297738526773,None,1444.1297738526773,None,1444.1297738526773,None,1444.1297738526773,None,1445.130152071477,None,,,,,,,,,,,,,,,,,,,,,,,,,,,,,,22293,2019_Nov_27_1438,Mmi_3levels,3.1.5,59.98900103417146,
,,,2,0,11.9,,,,,,,,,0,1,1,1,0,11,11,20,,,,,,,,,,,,,,,,,,,,,,,,,,,,,,,,,,,,,,,,,,,,,,,,,,,,,,,,,,,False,True,True,0.5,0.5,6.06,-13.059999999999999,11.9,-1.1599999999999984,-0.5799999999999992,gamble,lose,-1.1599999999999984,65.82916666666667,1447.147584375285,None,1447.147584375285,None,1447.147584375285,None,1447.147584375285,None,1447.147584375285,None,1447.147584375285,None,1447.147584375285,None,1,1.2006991608359385,1447.147584375285,None,1448.3813764029182,None,1448.3813764029182,None,1448.3813764029182,None,1448.3813764029182,None,1448.3813764029182,None,1448.3813764029182,None,1448.3813764029182,None,1452.3828940779495,None,1452.3828940779495,None,1452.3828940779495,None,1452.3828940779495,None,1452.3828940779495,None,1452.3828940779495,None,1452.3828940779495,None,1461.8698220099614,None,1453.3666021902754,None,1454.3669784892118,None,0.5,7.502774724620394,1457.3680952266732,None,None,1457.3680952266732,None,,,,,,,,,,,,,,,,,,,22293,2019_Nov_27_1438,Mmi_3levels,3.1.5,59.98900103417146,
,,,2,0,8.3,,,,,,,,,0,1,1,1,0,12,12,8,,,,,,,,,,,,,,,,,,,,,,,,,,,,,,,,,,,,,,,,,,,,,,,,,,,,,,,,,,,False,True,False,0.5,0.5,6.56,-13.559999999999999,8.3,-5.259999999999998,1.5200000000000014,gamble,lose,-5.259999999999998,60.56916666666667,1463.8872552737012,None,1463.8872552737012,None,1463.8872552737012,None,1463.8872552737012,None,1463.8872552737012,None,1463.8872552737012,None,1463.8872552737012,None,1,1.450768996932311,1463.8872552737012,None,1465.371086099185,None,1465.371086099185,None,1465.371086099185,None,1465.371086099185,None,1465.371086099185,None,1465.371086099185,None,1465.371086099185,None,1469.3559867847362,None,1469.3559867847362,None,1469.3559867847362,None,1469.3559867847362,None,1469.3559867847362,None,1469.3559867847362,None,1469.3559867847362,None,1470.3563653235324,None,,,,,,,,,,,,,,,,,,,,,,,,,,,,,,22293,2019_Nov_27_1438,Mmi_3levels,3.1.5,59.98900103417146,
,,,2,0,5.9,,,,,,,,,0,1,1,1,0,13,13,21,,,,,,,,,,,,,,,,,,,,,,,,,,,,,,,,,,,,,,,,,,,,,,,,,,,,,,,,,,,False,True,False,0.5,0.5,7.06,-14.059999999999999,5.9,-8.159999999999998,-1.129999999999999,gamble,lose,-8.159999999999998,52.40916666666667,1472.3737960274157,None,1472.3737960274157,None,1472.3737960274157,None,1472.3737960274157,None,1472.3737960274157,None,1472.3737960274157,None,1472.3737960274157,None,1,2.5345604646136053,1472.3737960274157,None,1474.9414455190417,None,1474.9414455190417,None,1474.9414455190417,None,1474.9414455190417,None,1474.9414455190417,None,1474.9414455190417,None,1474.9414455190417,None,1478.942921276408,None,1478.942921276408,None,1478.942921276408,None,1478.942921276408,None,1478.942921276408,None,1478.942921276408,None,1478.942921276408,None,1488.4298956058628,None,1479.9266511475435,None,1480.927033846121,None,0.5,7.502768644975731,1483.928153143439,None,None,1483.928153143439,None,,,,,,,,,,,,,,,,,,,22293,2019_Nov_27_1438,Mmi_3levels,3.1.5,59.98900103417146,
,,,2,0,12.5,,,,,,,,,0,1,1,1,0,14,14,15,,,,,,,,,,,,,,,,,,,,,,,,,,,,,,,,,,,,,,,,,,,,,,,,,,,,,,,,,,,False,True,True,0.5,0.5,7.56,-14.559999999999999,12.5,-2.0599999999999987,-1.0299999999999994,gamble,lose,-2.0599999999999987,50.349166666666676,1490.447303591005,None,1490.447303591005,None,1490.447303591005,None,1490.447303591005,None,1490.447303591005,None,1490.447303591005,None,1490.447303591005,None,1,1.8509677058027592,1490.447303591005,None,1492.3313235258975,None,1492.3313235258975,None,1492.3313235258975,None,1492.3313235258975,None,1492.3313235258975,None,1492.3313235258975,None,1492.3313235258975,None,1496.3328642396082,None,1496.3328642396082,None,1496.3328642396082,None,1496.3328642396082,None,1496.3328642396082,None,1496.3328642396082,None,1496.3328642396082,None,1497.3165729919274,None,,,,,,,,,,,,,,,,,,,,,,,,,,,,,,22293,2019_Nov_27_1438,Mmi_3levels,3.1.5,59.98900103417146,
,,,2,0,9.5,,,,,,,,,0,1,1,1,0,15,15,16,,,,,,,,,,,,,,,,,,,,,,,,,,,,,,,,,,,,,,,,,,,,,,,,,,,,,,,,,,,False,True,True,0.5,0.5,8.059999999999999,-15.059999999999999,9.5,-5.559999999999999,1.9700000000000006,certain,certain,1.9700000000000006,52.319166666666675,1499.333998256101,None,1499.333998256101,None,1499.333998256101,None,1499.333998256101,None,1499.333998256101,None,1499.333998256101,None,1499.333998256101,None,3,1.5841778460307978,1499.333998256101,None,1500.9512868879247,None,1500.9512868879247,None,1500.9512868879247,None,1500.9512868879247,None,1500.9512868879247,None,1500.9512868879247,None,1500.9512868879247,None,1504.952793363569,None,1504.952793363569,None,1504.952793363569,None,1504.952793363569,None,1504.952793363569,None,1504.952793363569,None,1504.952793363569,None,1514.4397216156067,None,1505.9364880366775,None,1506.936870095291,None,0.5,7.502756485628197,1509.9379461950157,None,None,1509.9379461950157,None,,,,,,,,,,,,,,,,,,,22293,2019_Nov_27_1438,Mmi_3levels,3.1.5,59.98900103417146,
,,,2,0,2.5,,,,,,,,,0,1,1,1,0,16,16,14,,,,,,,,,,,,,,,,,,,,,,,,,,,,,,,,,,,,,,,,,,,,,,,,,,,,,,,,,,,False,False,True,0.5,0.5,8.559999999999999,2.4633333333333334,0.625,-1.8383333333333334,-0.6066666666666667,certain,certain,-0.6066666666666667,51.712500000000006,1516.4571862375597,None,1516.4571862375597,None,1516.4571862375597,None,1516.4571862375597,None,1516.4571862375597,None,1516.4571862375597,None,1516.4571862375597,None,3,1.6341564872127492,1516.4571862375597,None,1518.1244871087256,None,1518.1244871087256,None,1518.1244871087256,None,1518.1244871087256,None,1518.1244871087256,None,1518.1244871087256,None,1518.1244871087256,None,1522.109284120088,None,1522.109284120088,None,1522.109284120088,None,1522.109284120088,None,1522.109284120088,None,1522.109284120088,None,1522.109284120088,None,1523.1096629788808,None,,,,,,,,,,,,,,,,,,,,,,,,,,,,,,22293,2019_Nov_27_1438,Mmi_3levels,3.1.5,59.98900103417146,
,,,2,0,3.9,,,,,,,,,0,1,1,1,0,17,17,19,,,,,,,,,,,,,,,,,,,,,,,,,,,,,,,,,,,,,,,,,,,,,,,,,,,,,,,,,,,False,True,False,0.5,0.5,9.059999999999999,-16.06,3.9,-12.159999999999998,-4.129999999999999,gamble,lose,-12.159999999999998,39.55250000000001,1525.1270962426206,None,1525.1270962426206,None,1525.1270962426206,None,1525.1270962426206,None,1525.1270962426206,None,1525.1270962426206,None,1525.1270962426206,None,1,2.0343455966503825,1525.1270962426206,None,1527.1946047821257,None,1527.1946047821257,None,1527.1946047821257,None,1527.1946047821257,None,1527.1946047821257,None,1527.1946047821257,None,1527.1946047821257,None,1531.196108377946,None,1531.196108377946,None,1531.196108377946,None,1531.196108377946,None,1531.196108377946,None,1531.196108377946,None,1531.196108377946,None,1532.179788651847,None,,,,,,,,,,,,,,,,,,,,,,,,,,,,,,22293,2019_Nov_27_1438,Mmi_3levels,3.1.5,59.98900103417146,
,,,2,0,0.3,,,,,,,,,0,1,1,1,0,18,18,13,,,,,,,,,,,,,,,,,,,,,,,,,,,,,,,,,,,,,,,,,,,,,,,,,,,,,,,,,,,False,True,True,0.5,0.5,9.559999999999999,-16.56,0.3,-16.259999999999998,-7.979999999999999,certain,certain,-7.979999999999999,31.572500000000012,1534.1971943971294,None,1534.1971943971294,None,1534.1971943971294,None,1534.1971943971294,None,1534.1971943971294,None,1534.1971943971294,None,1534.1971943971294,None,3,1.7342763205233496,1534.1971943971294,None,1535.9645309462794,None,1535.9645309462794,None,1535.9645309462794,None,1535.9645309462794,None,1535.9645309462794,None,1535.9645309462794,None,1535.9645309462794,None,1539.9493714752025,None,1539.9493714752025,None,1539.9493714752025,None,1539.9493714752025,None,1539.9493714752025,None,1539.9493714752025,None,1539.9493714752025,None,1549.4529682337889,None,1540.9497848920582,None,1541.9500997544092,None,0.5,7.5026870495057665,1544.9512577695714,None,None,1544.9512577695714,None,,,,,,,,,,,,,,,,,,,22293,2019_Nov_27_1438,Mmi_3levels,3.1.5,59.98900103417146,
,,,2,0,10.7,,,,,,,,,0,1,1,1,0,19,19,4,,,,,,,,,,,,,,,,,,,,,,,,,,,,,,,,,,,,,,,,,,,,,,,,,,,,,,,,,,,False,False,True,0.5,0.5,10.059999999999999,2.5883333333333334,2.675,0.08666666666666645,1.3808333333333331,gamble,win,2.675,34.24750000000001,1551.470393177995,None,1551.470393177995,None,1551.470393177995,None,1551.470393177995,None,1551.470393177995,None,1551.470393177995,None,1551.470393177995,None,1,1.7509665858524386,1551.470393177995,None,1553.254409113084,None,1553.254409113084,None,1553.254409113084,None,1553.254409113084,None,1553.254409113084,None,1553.254409113084,None,1553.254409113084,None,1557.239204844518,None,1557.239204844518,None,1557.239204844518,None,1557.239204844518,None,1557.239204844518,None,1557.239204844518,None,1557.239204844518,None,1558.2395821034152,None,,,,,,,,,,,,,,,,,,,,,,,,,,,,,,22293,2019_Nov_27_1438,Mmi_3levels,3.1.5,59.98900103417146,
,,,2,0,9.1,,,,,,,,,0,1,1,1,0,20,20,12,,,,,,,,,,,,,,,,,,,,,,,,,,,,,,,,,,,,,,,,,,,,,,,,,,,,,,,,,,,False,False,True,0.5,0.5,10.559999999999999,2.63,2.275,-0.355,0.96,gamble,win,2.275,36.52250000000001,1560.2570428856125,None,1560.2570428856125,None,1560.2570428856125,None,1560.2570428856125,None,1560.2570428856125,None,1560.2570428856125,None,1560.2570428856125,None,1,2.5846280608384404,1560.2570428856125,None,1562.8747231755115,None,1562.8747231755115,None,1562.8747231755115,None,1562.8747231755115,None,1562.8747231755115,None,1562.8747231755115,None,1562.8747231755115,None,1566.859528186411,None,1566.859528186411,None,1566.859528186411,None,1566.859528186411,None,1566.859528186411,None,1566.859528186411,None,1566.859528186411,None,1576.3631540633796,None,1567.859943523159,None,1568.8603012631356,None,0.5,7.502760965377092,1571.8614387994166,None,None,1571.8614387994166,None,,,,,,,,,,,,,,,,,,,22293,2019_Nov_27_1438,Mmi_3levels,3.1.5,59.98900103417146,
,,,2,0,6.5,,,,,,,,,0,1,1,1,0,21,21,0,,,,,,,,,,,,,,,,,,,,,,,,,,,,,,,,,,,,,,,,,,,,,,,,,,,,,,,,,,,False,False,True,0.5,0.5,11.059999999999999,2.6716666666666664,1.625,-1.0466666666666664,0.2891666666666668,certain,certain,0.2891666666666668,36.811666666666675,1578.380583167338,None,1578.380583167338,None,1578.380583167338,None,1578.380583167338,None,1578.380583167338,None,1578.380583167338,None,1578.380583167338,None,3,1.784305838868022,1578.380583167338,None,1580.1979405953316,None,1580.1979405953316,None,1580.1979405953316,None,1580.1979405953316,None,1580.1979405953316,None,1580.1979405953316,None,1580.1979405953316,None,1584.1827811242547,None,1584.1827811242547,None,1584.1827811242547,None,1584.1827811242547,None,1584.1827811242547,None,1584.1827811242547,None,1584.1827811242547,None,1585.1831241450564,None,,,,,,,,,,,,,,,,,,,,,,,,,,,,,,22293,2019_Nov_27_1438,Mmi_3levels,3.1.5,59.98900103417146,
,,,2,0,-1.5,,,,,,,,,0,1,1,1,0,22,22,22,,,,,,,,,,,,,,,,,,,,,,,,,,,,,,,,,,,,,,,,,,,,,,,,,,,,,,,,,,,False,True,False,0.5,0.5,11.559999999999999,-18.56,-1.5,-20.06,-10.78,certain,certain,-10.78,26.031666666666673,1587.2006086059264,None,1587.2006086059264,None,1587.2006086059264,None,1587.2006086059264,None,1587.2006086059264,None,1587.2006086059264,None,1587.2006086059264,None,3,1.584169206529623,1587.2006086059264,None,1588.8178661995044,None,1588.8178661995044,None,1588.8178661995044,None,1588.8178661995044,None,1588.8178661995044,None,1588.8178661995044,None,1588.8178661995044,None,1592.8193835545098,None,1592.8193835545098,None,1592.8193835545098,None,1592.8193835545098,None,1592.8193835545098,None,1592.8193835545098,None,1592.8193835545098,None,1602.3063054069062,None,1593.8030852672237,None,1594.803468925733,None,0.5,7.50262881279923,1597.8045898229757,None,None,1597.8045898229757,None,,,,,,,,,,,,,,,,,,,22293,2019_Nov_27_1438,Mmi_3levels,3.1.5,59.98900103417146,
,,,2,0,5.3,,,,,,,,,0,1,1,1,0,23,23,6,,,,,,,,,,,,,,,,,,,,,,,,,,,,,,,,,,,,,,,,,,,,,,,,,,,,,,,,,,,False,False,True,0.5,0.5,12.059999999999999,2.755,1.325,-1.43,-0.05249999999999999,certain,certain,-0.05249999999999999,25.979166666666675,1604.323706992407,None,1604.323706992407,None,1604.323706992407,None,1604.323706992407,None,1604.323706992407,None,1604.323706992407,None,1604.323706992407,None,3,1.851035222032806,1604.323706992407,None,1606.207783884107,None,1606.207783884107,None,1606.207783884107,None,1606.207783884107,None,1606.207783884107,None,1606.207783884107,None,1606.207783884107,None,1610.2092842800776,None,1610.2092842800776,None,1610.2092842800776,None,1610.2092842800776,None,1610.2092842800776,None,1610.2092842800776,None,1610.2092842800776,None,1611.1930019918946,None,,,,,,,,,,,,,,,,,,,,,,,,,,,,,,22293,2019_Nov_27_1438,Mmi_3levels,3.1.5,59.98900103417146,
,,,2,0,13.3,,,,,,,,,0,1,1,1,0,24,24,5,,,,,,,,,,,,,,,,,,,,,,,,,,,,,,,,,,,,,,,,,,,,,,,,,,,,,,,,,,,False,True,True,0.5,0.5,12.559999999999999,-19.56,13.3,-6.259999999999998,-3.129999999999999,gamble,lose,-6.259999999999998,19.719166666666677,1613.2104342956736,None,1613.2104342956736,None,1613.2104342956736,None,1613.2104342956736,None,1613.2104342956736,None,1613.2104342956736,None,1613.2104342956736,None,1,1.9009469869779423,1613.2104342956736,None,1615.144482788979,None,1615.144482788979,None,1615.144482788979,None,1615.144482788979,None,1615.144482788979,None,1615.144482788979,None,1615.144482788979,None,1619.146010063443,None,1619.146010063443,None,1619.146010063443,None,1619.146010063443,None,1619.146010063443,None,1619.146010063443,None,1619.146010063443,None,1620.1297149759775,None,,,,,,,,,,,,,,,,,,,,,,,,,,,,,,22293,2019_Nov_27_1438,Mmi_3levels,3.1.5,59.98900103417146,
,,,2,0,1.3,,,,,,,,,0,1,1,1,0,25,25,11,,,,,,,,,,,,,,,,,,,,,,,,,,,,,,,,,,,,,,,,,,,,,,,,,,,,,,,,,,,False,True,False,0.5,0.5,13.059999999999999,-20.06,1.3,-18.759999999999998,-8.729999999999999,certain,certain,-8.729999999999999,10.989166666666678,1622.1471443999035,None,1622.1471443999035,None,1622.1471443999035,None,1622.1471443999035,None,1622.1471443999035,None,1622.1471443999035,None,1622.1471443999035,None,3,1.8175868551479653,1622.1471443999035,None,1623.9978218819888,None,1623.9978218819888,None,1623.9978218819888,None,1623.9978218819888,None,1623.9978218819888,None,1623.9978218819888,None,1623.9978218819888,None,1627.9993981137231,None,1627.9993981137231,None,1627.9993981137231,None,1627.9993981137231,None,1627.9993981137231,None,1627.9993981137231,None,1627.9993981137231,None,1637.4862882878515,None,1628.9830671882373,None,1629.9834412472846,None,0.46,7.502755205699941,1632.984568224172,None,None,1632.984568224172,None,,,,,,,,,,,,,,,,,,,22293,2019_Nov_27_1438,Mmi_3levels,3.1.5,59.98900103417146,
,,,2,0,4.9,,,,,,,,,0,1,1,1,0,26,26,7,,,,,,,,,,,,,,,,,,,,,,,,,,,,,,,,,,,,,,,,,,,,,,,,,,,,,,,,,,,False,False,False,0.46,0.46,13.52,2.736666666666667,1.225,-1.5116666666666667,-0.1433333333333333,certain,certain,-0.1433333333333333,10.845833333333346,1639.5037135520543,None,1639.5037135520543,None,1639.5037135520543,None,1639.5037135520543,None,1639.5037135520543,None,1639.5037135520543,None,1639.5037135520543,None,3,2.267806762829423,1639.5037135520543,None,1641.8046502996003,None,1641.8046502996003,None,1641.8046502996003,None,1641.8046502996003,None,1641.8046502996003,None,1641.8046502996003,None,1641.8046502996003,None,1645.806061100593,None,1645.806061100593,None,1645.806061100593,None,1645.806061100593,None,1645.806061100593,None,1645.806061100593,None,1645.806061100593,None,1646.789806010871,None,,,,,,,,,,,,,,,,,,,,,,,,,,,,,,22293,2019_Nov_27_1438,Mmi_3levels,3.1.5,59.98900103417146,
,,,3,1,8.5,,,,,,,,,0,2,2,2,0,0,0,12,,,,,,,,,,,,,,,,,,,,,,,,,,,,,,,,,,,,,,,,,,,,,,,,1657.8773383890511,None,0.53,7.502065964305075,1660.8784637660428,None,None,1660.8784637660428,None,1665.3801934291841,None,True,True,False,0.53,-0.47,-0.47,7.05,8.5,1.4500000000000002,0.7250000000000001,gamble,win,8.5,19.345833333333346,1668.4146874975122,None,1668.4146874975122,None,1668.4146874975122,None,1668.4146874975122,None,1668.4146874975122,None,1668.4146874975122,None,1668.4146874975122,None,1,1.5839880966523197,1668.4146874975122,None,1670.0319770892966,None,1670.0319770892966,None,1670.0319770892966,None,1670.0319770892966,None,1670.0319770892966,None,1670.0319770892966,None,1670.0319770892966,None,1674.0167459422373,None,1674.0167459422373,None,1674.0167459422373,None,1674.0167459422373,None,1674.0167459422373,None,1674.0167459422373,None,1674.0167459422373,None,1683.5203782188182,None,1675.0171558392758,None,1676.0175119793275,None,0.52,7.502786563971313,1679.0186575151747,None,None,1679.0186575151747,None,1648.7905592486786,None,4,9.070306142850313,1648.7905592486786,None,,,,,,,,,,,,,22293,2019_Nov_27_1438,Mmi_3levels,3.1.5,59.98900103417146,
,,,3,1,8.3,,,,,,,,,0,2,2,2,0,1,1,16,,,,,,,,,,,,,,,,,,,,,,,,,,,,,,,,,,,,,,,,,,,,,,,,,,,,,,,,,,,True,True,False,0.52,-0.48,-0.95,7.67,8.3,0.6300000000000008,0.3150000000000004,gamble,win,8.3,27.645833333333346,1685.5377868439537,None,1685.5377868439537,None,1685.5377868439537,None,1685.5377868439537,None,1685.5377868439537,None,1685.5377868439537,None,1685.5377868439537,None,1,1.8174233442987315,1685.5377868439537,None,1687.3885065636423,None,1687.3885065636423,None,1687.3885065636423,None,1687.3885065636423,None,1687.3885065636423,None,1687.3885065636423,None,1687.3885065636423,None,1691.3733442127414,None,1691.3733442127414,None,1691.3733442127414,None,1691.3733442127414,None,1691.3733442127414,None,1691.3733442127414,None,1691.3733442127414,None,1692.3737237114692,None,,,,,,,,,,,,,,,,,,,,,,,,,,,,,,22293,2019_Nov_27_1438,Mmi_3levels,3.1.5,59.98900103417146,
,,,3,1,11.1,,,,,,,,,0,2,2,2,0,2,2,2,,,,,,,,,,,,,,,,,,,,,,,,,,,,,,,,,,,,,,,,,,,,,,,,,,,,,,,,,,,True,True,True,0.52,-0.48,-1.43,8.15,11.1,2.9499999999999993,1.4749999999999996,gamble,win,11.1,38.745833333333344,1694.391198892874,None,1694.391198892874,None,1694.391198892874,None,1694.391198892874,None,1694.391198892874,None,1694.391198892874,None,1694.391198892874,None,1,1.6341737662733067,1694.391198892874,None,1696.0584572064108,None,1696.0584572064108,None,1696.0584572064108,None,1696.0584572064108,None,1696.0584572064108,None,1696.0584572064108,None,1696.0584572064108,None,1700.059963042062,None,1700.059963042062,None,1700.059963042062,None,1700.059963042062,None,1700.059963042062,None,1700.059963042062,None,1700.059963042062,None,1701.043677874055,None,,,,,,,,,,,,,,,,,,,,,,,,,,,,,,22293,2019_Nov_27_1438,Mmi_3levels,3.1.5,59.98900103417146,
,,,3,1,6.3,,,,,,,,,0,2,2,2,0,3,3,9,,,,,,,,,,,,,,,,,,,,,,,,,,,,,,,,,,,,,,,,,,,,,,,,,,,,,,,,,,,True,True,False,0.52,-0.48,-1.91,8.629999999999999,6.3,-2.329999999999999,1.9850000000000003,gamble,win,6.3,45.04583333333334,1703.061102178268,None,1703.061102178268,None,1703.061102178268,None,1703.061102178268,None,1703.061102178268,None,1703.061102178268,None,1703.061102178268,None,1,2.601292407634901,1703.061102178268,None,1705.6954404153512,None,1705.6954404153512,None,1705.6954404153512,None,1705.6954404153512,None,1705.6954404153512,None,1705.6954404153512,None,1705.6954404153512,None,1709.680361899751,None,1709.680361899751,None,1709.680361899751,None,1709.680361899751,None,1709.680361899751,None,1709.680361899751,None,1709.680361899751,None,1719.183867143438,None,1710.6806182053697,None,1711.681036421971,None,0.56,7.502742406417383,1714.68215123954,None,None,1714.68215123954,None,,,,,,,,,,,,,,,,,,,22293,2019_Nov_27_1438,Mmi_3levels,3.1.5,59.98900103417146,
,,,3,1,0.3,,,,,,,,,0,2,2,2,0,4,4,20,,,,,,,,,,,,,,,,,,,,,,,,,,,,,,,,,,,,,,,,,,,,,,,,,,,,,,,,,,,True,True,True,0.56,-0.43999999999999995,-2.3499999999999996,8.509999999999998,0.3,-8.209999999999997,-3.9549999999999987,certain,certain,-3.9549999999999987,41.09083333333334,1721.2013042469625,None,1721.2013042469625,None,1721.2013042469625,None,1721.2013042469625,None,1721.2013042469625,None,1721.2013042469625,None,1721.2013042469625,None,3,1.9843698352924548,1721.2013042469625,None,1723.2187451902719,None,1723.2187451902719,None,1723.2187451902719,None,1723.2187451902719,None,1723.2187451902719,None,1723.2187451902719,None,1723.2187451902719,None,1727.2034967641812,None,1727.2034967641812,None,1727.2034967641812,None,1727.2034967641812,None,1727.2034967641812,None,1727.2034967641812,None,1727.2034967641812,None,1728.2039568984183,None,,,,,,,,,,,,,,,,,,,,,,,,,,,,,,22293,2019_Nov_27_1438,Mmi_3levels,3.1.5,59.98900103417146,
,,,3,1,-1.5,,,,,,,,,0,2,2,2,0,5,5,17,,,,,,,,,,,,,,,,,,,,,,,,,,,,,,,,,,,,,,,,,,,,,,,,,,,,,,,,,,,True,False,True,0.56,-0.43999999999999995,-2.7899999999999996,-1.7724999999999997,-1.5,-3.2725,-2.38625,certain,certain,-2.38625,38.704583333333346,1730.2213792827679,None,1730.2213792827679,None,1730.2213792827679,None,1730.2213792827679,None,1730.2213792827679,None,1730.2213792827679,None,1730.2213792827679,None,3,2.451194573106477,1730.2213792827679,None,1732.7056600030337,None,1732.7056600030337,None,1732.7056600030337,None,1732.7056600030337,None,1732.7056600030337,None,1732.7056600030337,None,1732.7056600030337,None,1736.7071712784236,None,1736.7071712784236,None,1736.7071712784236,None,1736.7071712784236,None,1736.7071712784236,None,1736.7071712784236,None,1736.7071712784236,None,1746.1940960106149,None,1737.690878430818,None,1738.691254089761,None,0.53,7.502733446948696,1741.6923810666776,None,None,1741.6923810666776,None,,,,,,,,,,,,,,,,,,,22293,2019_Nov_27_1438,Mmi_3levels,3.1.5,59.98900103417146,
,,,3,1,9.1,,,,,,,,,0,2,2,2,0,6,6,26,,,,,,,,,,,,,,,,,,,,,,,,,,,,,,,,,,,,,,,,,,,,,,,,,,,,,,,,,,,True,False,True,0.53,-0.47,-3.26,-1.9166666666666667,9.1,7.183333333333333,3.5916666666666663,gamble,lose,7.183333333333333,45.887916666666676,1748.2115241546417,None,1748.2115241546417,None,1748.2115241546417,None,1748.2115241546417,None,1748.2115241546417,None,1748.2115241546417,None,1748.2115241546417,None,1,1.5173323093913496,1748.2115241546417,None,1749.7621451598825,None,1749.7621451598825,None,1749.7621451598825,None,1749.7621451598825,None,1749.7621451598825,None,1749.7621451598825,None,1749.7621451598825,None,1753.7469248922134,None,1753.7469248922134,None,1753.7469248922134,None,1753.7469248922134,None,1753.7469248922134,None,1753.7469248922134,None,1753.7469248922134,None,1754.7473607078136,None,,,,,,,,,,,,,,,,,,,,,,,,,,,,,,22293,2019_Nov_27_1438,Mmi_3levels,3.1.5,59.98900103417146,
,,,3,1,2.3,,,,,,,,,0,2,2,2,0,7,7,3,,,,,,,,,,,,,,,,,,,,,,,,,,,,,,,,,,,,,,,,,,,,,,,,,,,,,,,,,,,True,True,False,0.53,-0.47,-3.7299999999999995,10.309999999999999,2.3,-8.009999999999998,-2.854999999999999,certain,certain,-2.854999999999999,43.03291666666668,1756.7647910917003,None,1756.7647910917003,None,1756.7647910917003,None,1756.7647910917003,None,1756.7647910917003,None,1756.7647910917003,None,1756.7647910917003,None,3,1.367650131607661,1756.7647910917003,None,1758.165293463564,None,1758.165293463564,None,1758.165293463564,None,1758.165293463564,None,1758.165293463564,None,1758.165293463564,None,1758.165293463564,None,1762.150133992487,None,1762.150133992487,None,1762.150133992487,None,1762.150133992487,None,1762.150133992487,None,1762.150133992487,None,1762.150133992487,None,1771.6537278712494,None,1763.1505141312082,None,1764.1509182685695,None,0.53,7.502741766453255,1767.152018046996,None,None,1767.152018046996,None,,,,,,,,,,,,,,,,,,,22293,2019_Nov_27_1438,Mmi_3levels,3.1.5,59.98900103417146,
,,,3,1,3.3,,,,,,,,,0,2,2,2,0,8,8,18,,,,,,,,,,,,,,,,,,,,,,,,,,,,,,,,,,,,,,,,,,,,,,,,,,,,,,,,,,,True,True,False,0.53,-0.47,-4.199999999999999,10.78,3.3,-7.4799999999999995,-2.09,certain,certain,-2.09,40.942916666666676,1773.6711889734142,None,1773.6711889734142,None,1773.6711889734142,None,1773.6711889734142,None,1773.6711889734142,None,1773.6711889734142,None,1773.6711889734142,None,3,1.4841092098795343,1773.6711889734142,None,1775.1883993696247,None,1775.1883993696247,None,1775.1883993696247,None,1775.1883993696247,None,1775.1883993696247,None,1775.1883993696247,None,1775.1883993696247,None,1779.173243418365,None,1779.173243418365,None,1779.173243418365,None,1779.173243418365,None,1779.173243418365,None,1779.173243418365,None,1779.173243418365,None,1780.1736190773372,None,,,,,,,,,,,,,,,,,,,,,,,,,,,,,,22293,2019_Nov_27_1438,Mmi_3levels,3.1.5,59.98900103417146,
,,,3,1,-1.3,,,,,,,,,0,2,2,2,0,9,9,1,,,,,,,,,,,,,,,,,,,,,,,,,,,,,,,,,,,,,,,,,,,,,,,,,,,,,,,,,,,True,True,False,0.53,-0.47,-4.669999999999999,11.25,-1.3,-12.55,-6.925000000000001,certain,certain,-6.925000000000001,34.01791666666668,1782.191052341077,None,1782.191052341077,None,1782.191052341077,None,1782.191052341077,None,1782.191052341077,None,1782.191052341077,None,1782.191052341077,None,3,1.3007338788884226,1782.191052341077,None,1783.5248976457224,None,1783.5248976457224,None,1783.5248976457224,None,1783.5248976457224,None,1783.5248976457224,None,1783.5248976457224,None,1783.5248976457224,None,1787.5263334053452,None,1787.5263334053452,None,1787.5263334053452,None,1787.5263334053452,None,1787.5263334053452,None,1787.5263334053452,None,1787.5263334053452,None,1788.51011575351,None,,,,,,,,,,,,,,,,,,,,,,,,,,,,,,22293,2019_Nov_27_1438,Mmi_3levels,3.1.5,59.98900103417146,
,,,3,1,2.7,,,,,,,,,0,2,2,2,0,10,10,10,,,,,,,,,,,,,,,,,,,,,,,,,,,,,,,,,,,,,,,,,,,,,,,,,,,,,,,,,,,True,False,False,0.53,-0.47,-5.139999999999999,-2.0733333333333333,2.7,0.6266666666666669,1.6633333333333336,gamble,lose,0.6266666666666669,34.644583333333344,1790.527539417788,None,1790.527539417788,None,1790.527539417788,None,1790.527539417788,None,1790.527539417788,None,1790.527539417788,None,1790.527539417788,None,1,1.300752757844748,1790.527539417788,None,1791.86142536017,None,1791.86142536017,None,1791.86142536017,None,1791.86142536017,None,1791.86142536017,None,1791.86142536017,None,1791.86142536017,None,1795.8462188517442,None,1795.8462188517442,None,1795.8462188517442,None,1795.8462188517442,None,1795.8462188517442,None,1795.8462188517442,None,1795.8462188517442,None,1805.349820410047,None,1796.8465541929763,None,1797.8469816890429,None,0.47,7.502747846127022,1800.8481086659303,None,None,1800.8481086659303,None,,,,,,,,,,,,,,,,,,,22293,2019_Nov_27_1438,Mmi_3levels,3.1.5,59.98900103417146,
,,,3,1,0.9,,,,,,,,,0,2,2,2,0,11,11,0,,,,,,,,,,,,,,,,,,,,,,,,,,,,,,,,,,,,,,,,,,,,,,,,,,,,,,,,,,,True,False,True,0.47,-0.53,-5.669999999999999,-2.3274999999999997,0.9,-1.4274999999999998,-0.2637499999999999,certain,certain,-0.2637499999999999,34.38083333333334,1807.3672619933204,None,1807.3672619933204,None,1807.3672619933204,None,1807.3672619933204,None,1807.3672619933204,None,1807.3672619933204,None,1807.3672619933204,None,3,1.7675877350848168,1807.3672619933204,None,1809.1679630740837,None,1809.1679630740837,None,1809.1679630740837,None,1809.1679630740837,None,1809.1679630740837,None,1809.1679630740837,None,1809.1679630740837,None,1813.1694420312415,None,1813.1694420312415,None,1813.1694420312415,None,1813.1694420312415,None,1813.1694420312415,None,1813.1694420312415,None,1813.1694420312415,None,1814.1531488636683,None,,,,,,,,,,,,,,,,,,,,,,,,,,,,,,22293,2019_Nov_27_1438,Mmi_3levels,3.1.5,59.98900103417146,
,,,3,1,11.7,,,,,,,,,0,2,2,2,0,12,12,7,,,,,,,,,,,,,,,,,,,,,,,,,,,,,,,,,,,,,,,,,,,,,,,,,,,,,,,,,,,True,True,False,0.47,-0.53,-6.199999999999999,13.62,11.7,-1.92,-0.96,gamble,win,11.7,46.080833333333345,1816.170579247555,None,1816.170579247555,None,1816.170579247555,None,1816.170579247555,None,1816.170579247555,None,1816.170579247555,None,1816.170579247555,None,1,1.6508777908456977,1816.170579247555,None,1817.8545214268088,None,1817.8545214268088,None,1817.8545214268088,None,1817.8545214268088,None,1817.8545214268088,None,1817.8545214268088,None,1817.8545214268088,None,1821.8560538209858,None,1821.8560538209858,None,1821.8560538209858,None,1821.8560538209858,None,1821.8560538209858,None,1821.8560538209858,None,1821.8560538209858,None,1831.3429919924529,None,1822.8398044909409,None,1823.8401491116674,None,0.54,7.5027664050867315,1826.84127448863,None,None,1826.84127448863,None,,,,,,,,,,,,,,,,,,,22293,2019_Nov_27_1438,Mmi_3levels,3.1.5,59.98900103417146,
,,,3,1,9.7,,,,,,,,,0,2,2,2,0,13,13,21,,,,,,,,,,,,,,,,,,,,,,,,,,,,,,,,,,,,,,,,,,,,,,,,,,,,,,,,,,,True,True,True,0.54,-0.45999999999999996,-6.659999999999999,13.099999999999998,9.7,-3.3999999999999986,-1.6999999999999993,gamble,win,9.7,55.78083333333335,1833.3604201364797,None,1833.3604201364797,None,1833.3604201364797,None,1833.3604201364797,None,1833.3604201364797,None,1833.3604201364797,None,1833.3604201364797,None,1,1.6675222987541929,1833.3604201364797,None,1835.0610960986232,None,1835.0610960986232,None,1835.0610960986232,None,1835.0610960986232,None,1835.0610960986232,None,1835.0610960986232,None,1835.0610960986232,None,1839.0625792155624,None,1839.0625792155624,None,1839.0625792155624,None,1839.0625792155624,None,1839.0625792155624,None,1839.0625792155624,None,1839.0625792155624,None,1840.0462937275588,None,,,,,,,,,,,,,,,,,,,,,,,,,,,,,,22293,2019_Nov_27_1438,Mmi_3levels,3.1.5,59.98900103417146,
,,,3,1,13.7,,,,,,,,,0,2,2,2,0,14,14,6,,,,,,,,,,,,,,,,,,,,,,,,,,,,,,,,,,,,,,,,,,,,,,,,,,,,,,,,,,,True,True,False,0.54,-0.45999999999999996,-7.119999999999999,13.559999999999999,13.7,0.14000000000000057,0.07000000000000028,gamble,win,13.7,69.48083333333335,1842.063713552052,None,1842.063713552052,None,1842.063713552052,None,1842.063713552052,None,1842.063713552052,None,1842.063713552052,None,1842.063713552052,None,1,1.384120249247644,1842.063713552052,None,1843.4809183485631,None,1843.4809183485631,None,1843.4809183485631,None,1843.4809183485631,None,1843.4809183485631,None,1843.4809183485631,None,1843.4809183485631,None,1847.4657841560838,None,1847.4657841560838,None,1847.4657841560838,None,1847.4657841560838,None,1847.4657841560838,None,1847.4657841560838,None,1847.4657841560838,None,1848.466107018001,None,,,,,,,,,,,,,,,,,,,,,,,,,,,,,,22293,2019_Nov_27_1438,Mmi_3levels,3.1.5,59.98900103417146,
,,,3,1,6.5,,,,,,,,,0,2,2,2,0,15,15,23,,,,,,,,,,,,,,,,,,,,,,,,,,,,,,,,,,,,,,,,,,,,,,,,,,,,,,,,,,,True,True,False,0.54,-0.45999999999999996,-7.579999999999999,14.02,6.5,-7.52,-0.5099999999999998,certain,certain,-0.5099999999999998,68.97083333333335,1850.4835697200906,None,1850.4835697200906,None,1850.4835697200906,None,1850.4835697200906,None,1850.4835697200906,None,1850.4835697200906,None,1850.4835697200906,None,3,2.0343734351044986,1850.4835697200906,None,1852.5510200228891,None,1852.5510200228891,None,1852.5510200228891,None,1852.5510200228891,None,1852.5510200228891,None,1852.5510200228891,None,1852.5510200228891,None,1856.5525296983542,None,1856.5525296983542,None,1856.5525296983542,None,1856.5525296983542,None,1856.5525296983542,None,1856.5525296983542,None,1856.5525296983542,None,1866.0394553905062,None,1857.5362880478788,None,1858.5365785915928,None,0.57,7.502761925337836,1861.537735966791,None,None,1861.537735966791,None,,,,,,,,,,,,,,,,,,,22293,2019_Nov_27_1438,Mmi_3levels,3.1.5,59.98900103417146,
,,,3,1,1.1,,,,,,,,,0,2,2,2,0,16,16,13,,,,,,,,,,,,,,,,,,,,,,,,,,,,,,,,,,,,,,,,,,,,,,,,,,,,,,,,,,,True,True,False,0.57,-0.43000000000000005,-8.01,14.030000000000001,1.1,-12.930000000000001,-5.915000000000001,certain,certain,-5.915000000000001,63.05583333333335,1868.056881294644,None,1868.056881294644,None,1868.056881294644,None,1868.056881294644,None,1868.056881294644,None,1868.056881294644,None,1868.056881294644,None,3,1.8842867999337614,1868.056881294644,None,1869.9743172782473,None,1869.9743172782473,None,1869.9743172782473,None,1869.9743172782473,None,1869.9743172782473,None,1869.9743172782473,None,1869.9743172782473,None,1873.97579783533,None,1873.97579783533,None,1873.97579783533,None,1873.97579783533,None,1873.97579783533,None,1873.97579783533,None,1873.97579783533,None,1874.959497948119,None,,,,,,,,,,,,,,,,,,,,,,,,,,,,,,22293,2019_Nov_27_1438,Mmi_3levels,3.1.5,59.98900103417146,
,,,3,1,4.5,,,,,,,,,0,2,2,2,0,17,17,24,,,,,,,,,,,,,,,,,,,,,,,,,,,,,,,,,,,,,,,,,,,,,,,,,,,,,,,,,,,True,True,False,0.57,-0.43000000000000005,-8.44,14.46,4.5,-9.96,-2.7300000000000004,gamble,win,4.5,67.55583333333334,1876.976922252361,None,1876.976922252361,None,1876.976922252361,None,1876.976922252361,None,1876.976922252361,None,1876.976922252361,None,1876.976922252361,None,1,1.4174527826544363,1876.976922252361,None,1878.4274807010952,None,1878.4274807010952,None,1878.4274807010952,None,1878.4274807010952,None,1878.4274807010952,None,1878.4274807010952,None,1878.4274807010952,None,1882.4289612581779,None,1882.4289612581779,None,1882.4289612581779,None,1882.4289612581779,None,1882.4289612581779,None,1882.4289612581779,None,1882.4289612581779,None,1891.915944867098,None,1883.4126767301059,None,1884.4130779876432,None,0.54,7.502774724620394,1887.4141928052122,None,None,1887.4141928052122,None,,,,,,,,,,,,,,,,,,,22293,2019_Nov_27_1438,Mmi_3levels,3.1.5,59.98900103417146,
,,,3,1,4.9,,,,,,,,,0,2,2,2,0,18,18,5,,,,,,,,,,,,,,,,,,,,,,,,,,,,,,,,,,,,,,,,,,,,,,,,,,,,,,,,,,,True,True,False,0.54,-0.45999999999999996,-8.899999999999999,15.339999999999998,4.9,-10.439999999999998,-2.7699999999999987,certain,certain,-2.7699999999999987,64.78583333333334,1893.9333714112,None,1893.9333714112,None,1893.9333714112,None,1893.9333714112,None,1893.9333714112,None,1893.9333714112,None,1893.9333714112,None,3,1.9175978945277166,1893.9333714112,None,1895.8840740118467,None,1895.8840740118467,None,1895.8840740118467,None,1895.8840740118467,None,1895.8840740118467,None,1895.8840740118467,None,1895.8840740118467,None,1899.8855961666268,None,1899.8855961666268,None,1899.8855961666268,None,1899.8855961666268,None,1899.8855961666268,None,1899.8855961666268,None,1899.8855961666268,None,1900.8693068388093,None,,,,,,,,,,,,,,,,,,,,,,,,,,,,,,22293,2019_Nov_27_1438,Mmi_3levels,3.1.5,59.98900103417146,
,,,3,1,3.1,,,,,,,,,0,2,2,2,0,19,19,8,,,,,,,,,,,,,,,,,,,,,,,,,,,,,,,,,,,,,,,,,,,,,,,,,,,,,,,,,,,True,True,False,0.54,-0.45999999999999996,-9.36,15.799999999999999,3.1,-12.7,-4.8,certain,certain,-4.8,59.985833333333346,1902.8867305030872,None,1902.8867305030872,None,1902.8867305030872,None,1902.8867305030872,None,1902.8867305030872,None,1902.8867305030872,None,1902.8867305030872,None,3,2.1510616205632687,1902.8867305030872,None,1905.0708923500206,None,1905.0708923500206,None,1905.0708923500206,None,1905.0708923500206,None,1905.0708923500206,None,1905.0708923500206,None,1905.0708923500206,None,1909.0724132248724,None,1909.0724132248724,None,1909.0724132248724,None,1909.0724132248724,None,1909.0724132248724,None,1909.0724132248724,None,1909.0724132248724,None,1918.5593337973114,None,1910.0561117377365,None,1911.056496036239,None,0.46,7.5025763357116375,1914.057621093234,None,None,1914.057621093234,None,,,,,,,,,,,,,,,,,,,22293,2019_Nov_27_1438,Mmi_3levels,3.1.5,59.98900103417146,
,,,3,1,8.9,,,,,,,,,0,2,2,2,0,20,20,11,,,,,,,,,,,,,,,,,,,,,,,,,,,,,,,,,,,,,,,,,,,,,,,,,,,,,,,,,,,True,False,True,0.46,-0.54,-9.899999999999999,-2.715,8.9,6.1850000000000005,3.0925000000000002,gamble,lose,6.1850000000000005,66.17083333333335,1920.5767513819155,None,1920.5767513819155,None,1920.5767513819155,None,1920.5767513819155,None,1920.5767513819155,None,1920.5767513819155,None,1920.5767513819155,None,1,1.3174731015169527,1920.5767513819155,None,1921.9272015167226,None,1921.9272015167226,None,1921.9272015167226,None,1921.9272015167226,None,1921.9272015167226,None,1921.9272015167226,None,1921.9272015167226,None,1925.9121022022737,None,1925.9121022022737,None,1925.9121022022737,None,1925.9121022022737,None,1925.9121022022737,None,1925.9121022022737,None,1925.9121022022737,None,1926.9124941803166,None,,,,,,,,,,,,,,,,,,,,,,,,,,,,,,22293,2019_Nov_27_1438,Mmi_3levels,3.1.5,59.98900103417146,
,,,3,1,-0.5,,,,,,,,,0,2,2,2,0,21,21,25,,,,,,,,,,,,,,,,,,,,,,,,,,,,,,,,,,,,,,,,,,,,,,,,,,,,,,,,,,,True,False,False,0.46,-0.54,-10.439999999999998,-2.76,-0.5,-3.26,-1.88,certain,certain,-1.88,64.29083333333335,1928.9299242442357,None,1928.9299242442357,None,1928.9299242442357,None,1928.9299242442357,None,1928.9299242442357,None,1928.9299242442357,None,1928.9299242442357,None,3,1.6175737358571496,1928.9299242442357,None,1930.5805367699359,None,1930.5805367699359,None,1930.5805367699359,None,1930.5805367699359,None,1930.5805367699359,None,1930.5805367699359,None,1930.5805367699359,None,1934.5820701240737,None,1934.5820701240737,None,1934.5820701240737,None,1934.5820701240737,None,1934.5820701240737,None,1934.5820701240737,None,1934.5820701240737,None,1935.5657651171496,None,,,,,,,,,,,,,,,,,,,,,,,,,,,,,,22293,2019_Nov_27_1438,Mmi_3levels,3.1.5,59.98900103417146,
,,,3,1,4.1,,,,,,,,,0,2,2,2,0,22,22,14,,,,,,,,,,,,,,,,,,,,,,,,,,,,,,,,,,,,,,,,,,,,,,,,,,,,,,,,,,,True,True,False,0.46,-0.54,-10.979999999999997,18.54,4.1,-14.44,-5.17,certain,certain,-5.17,59.12083333333335,1937.583211820136,None,1937.583211820136,None,1937.583211820136,None,1937.583211820136,None,1937.583211820136,None,1937.583211820136,None,1937.583211820136,None,3,1.9509397073707078,1937.583211820136,None,1939.5672901517537,None,1939.5672901517537,None,1939.5672901517537,None,1939.5672901517537,None,1939.5672901517537,None,1939.5672901517537,None,1939.5672901517537,None,1943.568801107147,None,1943.568801107147,None,1943.568801107147,None,1943.568801107147,None,1943.568801107147,None,1943.568801107147,None,1943.568801107147,None,1953.0557191197295,None,1944.5525655363454,None,1945.552939275396,None,0.5,7.502755845693173,1948.5540377738944,None,None,1948.5540377738944,None,,,,,,,,,,,,,,,,,,,22293,2019_Nov_27_1438,Mmi_3levels,3.1.5,59.98900103417146,
,,,3,1,3.7,,,,,,,,,0,2,2,2,0,23,23,15,,,,,,,,,,,,,,,,,,,,,,,,,,,,,,,,,,,,,,,,,,,,,,,,,,,,,,,,,,,True,True,False,0.5,-0.5,-11.479999999999997,18.479999999999997,3.7,-14.779999999999998,-5.539999999999999,gamble,win,3.7,62.820833333333354,1955.0731523834693,None,1955.0731523834693,None,1955.0731523834693,None,1955.0731523834693,None,1955.0731523834693,None,1955.0731523834693,None,1955.0731523834693,None,1,1.9676616509386804,1955.0731523834693,None,1957.0739721775753,None,1957.0739721775753,None,1957.0739721775753,None,1957.0739721775753,None,1957.0739721775753,None,1957.0739721775753,None,1957.0739721775753,None,1961.0754252162005,None,1961.0754252162005,None,1961.0754252162005,None,1961.0754252162005,None,1961.0754252162005,None,1961.0754252162005,None,1961.0754252162005,None,1962.0591282088135,None,,,,,,,,,,,,,,,,,,,,,,,,,,,,,,22293,2019_Nov_27_1438,Mmi_3levels,3.1.5,59.98900103417146,
,,,3,1,1.3,,,,,,,,,0,2,2,2,0,24,24,4,,,,,,,,,,,,,,,,,,,,,,,,,,,,,,,,,,,,,,,,,,,,,,,,,,,,,,,,,,,True,True,False,0.5,-0.5,-11.979999999999997,18.979999999999997,1.3,-17.679999999999996,-8.189999999999998,certain,certain,-8.189999999999998,54.63083333333336,1964.0765605126217,None,1964.0765605126217,None,1964.0765605126217,None,1964.0765605126217,None,1964.0765605126217,None,1964.0765605126217,None,1964.0765605126217,None,3,1.6341836857027374,1964.0765605126217,None,1965.7437801083142,None,1965.7437801083142,None,1965.7437801083142,None,1965.7437801083142,None,1965.7437801083142,None,1965.7437801083142,None,1965.7437801083142,None,1969.7453688193636,None,1969.7453688193636,None,1969.7453688193636,None,1969.7453688193636,None,1969.7453688193636,None,1969.7453688193636,None,1969.7453688193636,None,1979.2322970713722,None,1970.729078851582,None,1971.729436271562,None,0.54,7.502780484268442,1974.7305466093821,None,None,1974.7305466093821,None,,,,,,,,,,,,,,,,,,,22293,2019_Nov_27_1438,Mmi_3levels,3.1.5,59.98900103417146,
,,,3,1,7.7,,,,,,,,,0,2,2,2,0,25,25,19,,,,,,,,,,,,,,,,,,,,,,,,,,,,,,,,,,,,,,,,,,,,,,,,,,,,,,,,,,,True,True,True,0.54,-0.45999999999999996,-12.439999999999998,18.879999999999995,7.7,-11.179999999999996,-1.739999999999998,gamble,win,7.7,62.33083333333336,1981.2497568936087,None,1981.2497568936087,None,1981.2497568936087,None,1981.2497568936087,None,1981.2497568936087,None,1981.2497568936087,None,1981.2497568936087,None,1,1.1838175462326035,1981.2497568936087,None,1982.466879774729,None,1982.466879774729,None,1982.466879774729,None,1982.466879774729,None,1982.466879774729,None,1982.466879774729,None,1982.466879774729,None,1986.4683680113812,None,1986.4683680113812,None,1986.4683680113812,None,1986.4683680113812,None,1986.4683680113812,None,1986.4683680113812,None,1986.4683680113812,None,1987.4520735638798,None,,,,,,,,,,,,,,,,,,,,,,,,,,,,,,22293,2019_Nov_27_1438,Mmi_3levels,3.1.5,59.98900103417146,
,,,3,1,7.9,,,,,,,,,0,2,2,2,0,26,26,22,,,,,,,,,,,,,,,,,,,,,,,,,,,,,,,,,,,,,,,,,,,,,,,,,,,,,,,,,,,True,True,True,0.54,-0.45999999999999996,-12.899999999999999,19.339999999999996,7.9,-11.439999999999996,-1.7699999999999978,gamble,win,7.9,70.23083333333336,1989.4695289063966,None,1989.4695289063966,None,1989.4695289063966,None,1989.4695289063966,None,1989.4695289063966,None,1989.4695289063966,None,1989.4695289063966,None,1,1.4341254489554558,1989.4695289063966,None,1990.936720343656,None,1990.936720343656,None,1990.936720343656,None,1990.936720343656,None,1990.936720343656,None,1990.936720343656,None,1990.936720343656,None,1994.9382380186871,None,1994.9382380186871,None,1994.9382380186871,None,1994.9382380186871,None,1994.9382380186871,None,1994.9382380186871,None,1994.9382380186871,None,2004.4251691505197,None,1995.9219467709772,None,1996.9223246698093,None,0.54,7.502742726413999,1999.9234436471597,None,None,1999.9234436471597,None,,,,,,,,,,,,,,,,,,,22293,2019_Nov_27_1438,Mmi_3levels,3.1.5,59.98900103417146,
,,,,,,,,,,,,,,,,,,,,,,,,,,,,,,0,0,0,0,,,,,,,,,,,,,,,,,,,,,,,,,,,,,,,,,,,,,,,,,,,,,,,,,,,,,,,,,,,,,,,,,,,,,,,,,,,,,,,,,,,,,,,,,,,,,,,,,,,,,,,,,,,,,,,,,,,,,,,,2006.4259147087869,None,4,3.7184564064373262,2006.4259147087869,None,70.23083333333336,3,2010.1773727871187,None,2010.1773727871187,None,2010.1773727871187,None,4,5.652354828140233,2010.1773727871187,None,22293,2019_Nov_27_1438,Mmi_3levels,3.1.5,59.98900103417146,
