currSlide,currImage,currText,blockNum,targetHappiness,highAmount,instructionLoop1.thisRepN,instructionLoop1.thisTrialN,instructionLoop1.thisN,instructionLoop1.thisIndex,instructionLoop2.thisRepN,instructionLoop2.thisTrialN,instructionLoop2.thisN,instructionLoop2.thisIndex,blockLoop.thisRepN,blockLoop.thisTrialN,blockLoop.thisN,blockLoop.thisIndex,trialLoop.thisRepN,trialLoop.thisTrialN,trialLoop.thisN,trialLoop.thisIndex,doRatingLoop.thisRepN,doRatingLoop.thisTrialN,doRatingLoop.thisN,doRatingLoop.thisIndex,trialHappyLoop.thisRepN,trialHappyLoop.thisTrialN,trialHappyLoop.thisN,trialHappyLoop.thisIndex,logWinningsLoop.thisRepN,logWinningsLoop.thisTrialN,logWinningsLoop.thisN,logWinningsLoop.thisIndex,instrImage.started,instrImage.stopped,instrText.started,instrText.stopped,instrContinueText.started,instrContinueText.stopped,instrKeyResp.keys,instrKeyResp.rt,instrKeyResp.started,instrKeyResp.stopped,lifeHappyText.started,lifeHappyText.stopped,lifeHappySlider.response,lifeHappySlider.rt,lifeHappySlider.started,lifeHappySlider.stopped,lifeHappyResp.keys,lifeHappyResp.rt,lifeHappyResp.started,lifeHappyResp.stopped,instrImage_2.started,instrImage_2.stopped,instrText_2.started,instrText_2.stopped,instrContinueText_2.started,instrContinueText_2.stopped,instrKeyResp_2.keys,instrKeyResp_2.rt,instrKeyResp_2.started,instrKeyResp_2.stopped,localizing.started,localizing.stopped,start_exp.keys,start_exp.rt,start_exp.started,start_exp.stopped,blockHappyText.started,blockHappyText.stopped,blockHappySlider.response,blockHappySlider.rt,blockHappySlider.started,blockHappySlider.stopped,blockHappyResp.keys,blockHappyResp.rt,blockHappyResp.started,blockHappyResp.stopped,blankText.started,blankText.stopped,isHappyBlock,isCongruent,isWinOnTop,lastHappyRating,diff,sumDiff,RPE,winAmount,loseAmount,certainAmount,choice,outcome,outcomeAmount,currentWinnings,fixCross.started,fixCross.stopped,certainBox.started,certainBox.stopped,outcome1Box.started,outcome1Box.stopped,outcome2Box.started,outcome2Box.stopped,certainText.started,certainText.stopped,outcome1Text.started,outcome1Text.stopped,outcome2Text.started,outcome2Text.stopped,choiceKey.keys,choiceKey.rt,choiceKey.started,choiceKey.stopped,fixCross_2.started,fixCross_2.stopped,certainBox_2.started,certainBox_2.stopped,outcome1Box_2.started,outcome1Box_2.stopped,outcome2Box_2.started,outcome2Box_2.stopped,certainText_2.started,certainText_2.stopped,outcome1Text_2.started,outcome1Text_2.stopped,outcome2Text_2.started,outcome2Text_2.stopped,fixCross_3.started,fixCross_3.stopped,certainBox_3.started,certainBox_3.stopped,outcome1Box_3.started,outcome1Box_3.stopped,outcome2Box_3.started,outcome2Box_3.stopped,certainText_3.started,certainText_3.stopped,outcome1Text_3.started,outcome1Text_3.stopped,outcome2Text_3.started,outcome2Text_3.stopped,fixCross_ITI.started,fixCross_ITI.stopped,fixCross_ISI.started,fixCross_ISI.stopped,happyText.started,happyText.stopped,happySlider.response,happySlider.rt,happySlider.started,happySlider.stopped,happyResp.keys,happyResp.started,happyResp.stopped,endOfBlockText.started,endOfBlockText.stopped,restKeyResp.keys,restKeyResp.rt,restKeyResp.started,restKeyResp.stopped,finalWinnings,cashBonus,goodbyeText.started,goodbyeText.stopped,finalWinningsText.started,finalWinningsText.stopped,spaceToContinue.started,spaceToContinue.stopped,goodbyeKeyResp_2.keys,goodbyeKeyResp_2.rt,goodbyeKeyResp_2.started,goodbyeKeyResp_2.stopped,participant,date,expName,psychopyVersion,frameRate,
1,black.png,"Welcome! You are about to play our gambling task.
This task has 3 blocks and takes about 15 minutes.",,,,0,0,0,0,,,,,,,,,,,,,,,,,,,,,,,,,15.370789396718465,None,15.370789396718465,None,15.370789396718465,None,4,3.6694468034456804,15.370789396718465,None,,,,,,,,,,,,,,,,,,,,,,,,,,,,,,,,,,,,,,,,,,,,,,,,,,,,,,,,,,,,,,,,,,,,,,,,,,,,,,,,,,,,,,,,,,,,,,,,,,,,,,,,,,,,,,,,,,,,,,,,,,,,,,,,,,23777,2019_Nov_15_1104,Mmi_3levels,3.1.5,59.96760940909425,
2,black.png,"In this game, you may win or lose points. Your goal is to get as many points as possible. These points will be converted to a cash bonus at the end.
Sometimes we will ask you to rate your mood.",,,,0,1,1,1,,,,,,,,,,,,,,,,,,,,,,,,,19.08998683581558,None,19.08998683581558,None,19.08998683581558,None,4,2.9847699915444537,19.08998683581558,None,,,,,,,,,,,,,,,,,,,,,,,,,,,,,,,,,,,,,,,,,,,,,,,,,,,,,,,,,,,,,,,,,,,,,,,,,,,,,,,,,,,,,,,,,,,,,,,,,,,,,,,,,,,,,,,,,,,,,,,,,,,,,,,,,,23777,2019_Nov_15_1104,Mmi_3levels,3.1.5,59.96760940909425,
3,black.png,"On the next screen, please rate how you feel about your life these days. Use the LEFT (green) and RIGHT (blue) buttons to move the slider (you can press and hold them to slide gradually) and the TOP (red) button to lock in your response.
Make your rating as accurately and quickly as you can!",,,,0,2,2,2,,,,,,,,,,,,,,,,,,,,,,,,,22.124565380305285,None,22.124565380305285,None,22.124565380305285,None,4,9.020412166342794,22.124565380305285,None,,,,,,,,,,,,,,,,,,,,,,,,,,,,,,,,,,,,,,,,,,,,,,,,,,,,,,,,,,,,,,,,,,,,,,,,,,,,,,,,,,,,,,,,,,,,,,,,,,,,,,,,,,,,,,,,,,,,,,,,,,,,,,,,,,23777,2019_Nov_15_1104,Mmi_3levels,3.1.5,59.96760940909425,
,,,,,,,,,,,,,,,,,,,,,,,,,,,,,,,,,,,,,,,,,,,,31.161451656978898,None,0.24,8.085493285752818,35.16295206687937,None,4,4.068459841557342,35.16295206687937,None,,,,,,,,,,,,,,,,,,,,,,,,,,,,,,,,,,,,,,,,,,,,,,,,,,,,,,,,,,,,,,,,,,,,,,,,,,,,,,,,,,,,,,,,,,,,,,,,,,,,,,,,,,,,,,,,,,,,,,,,23777,2019_Nov_15_1104,Mmi_3levels,3.1.5,59.96760940909425,
4,black.png,"In this game you can win money by earning points according to your choices. You will decide whether to gamble a number of points or stick with a guaranteed number of points. 
Make your choice by pressing the left or right arrow key once. An example of one trial is shown on the next screen.",,,,,,,,0,0,0,0,,,,,,,,,,,,,,,,,,,,,,,,,,,,,,,,,,,,,,,,,39.29798255825517,None,39.29798255825517,None,39.29798255825517,None,4,1.3339562375658716,39.29798255825517,None,,,,,,,,,,,,,,,,,,,,,,,,,,,,,,,,,,,,,,,,,,,,,,,,,,,,,,,,,,,,,,,,,,,,,,,,,,,,,,,,,,,,,,,,,,,,,,,,,,,,,,,,,,,,,,23777,2019_Nov_15_1104,Mmi_3levels,3.1.5,59.96760940909425,
5,example_start.png,"The GAMBLING OPTION will be shown on the RIGHT SIDE. 
Select this option using the RIGHT (blue) button on your keypad.",,,,,,,,0,1,1,1,,,,,,,,,,,,,,,,,,,,,,,,,,,,,,,,,,,,,,,,,40.698416649973296,None,40.698416649973296,None,40.698416649973296,None,4,11.371352250424025,40.698416649973296,None,,,,,,,,,,,,,,,,,,,,,,,,,,,,,,,,,,,,,,,,,,,,,,,,,,,,,,,,,,,,,,,,,,,,,,,,,,,,,,,,,,,,,,,,,,,,,,,,,,,,,,,,,,,,,,23777,2019_Nov_15_1104,Mmi_3levels,3.1.5,59.96760940909425,
6,example_gamble.png,"Once you select the gambling choice, the choice you made will remain on the screen.",,,,,,,,0,2,2,2,,,,,,,,,,,,,,,,,,,,,,,,,,,,,,,,,,,,,,,,,52.10289535272932,None,52.10289535272932,None,52.10289535272932,None,4,3.168107026040161,52.10289535272932,None,,,,,,,,,,,,,,,,,,,,,,,,,,,,,,,,,,,,,,,,,,,,,,,,,,,,,,,,,,,,,,,,,,,,,,,,,,,,,,,,,,,,,,,,,,,,,,,,,,,,,,,,,,,,,,23777,2019_Nov_15_1104,Mmi_3levels,3.1.5,59.96760940909425,
7,example_win.png,"The outcome you received will then be shown on the screen. In this example , you WON 10 points.",,,,,,,,0,3,3,3,,,,,,,,,,,,,,,,,,,,,,,,,,,,,,,,,,,,,,,,,55.304139390607816,None,55.304139390607816,None,55.304139390607816,None,4,3.151272612543835,55.304139390607816,None,,,,,,,,,,,,,,,,,,,,,,,,,,,,,,,,,,,,,,,,,,,,,,,,,,,,,,,,,,,,,,,,,,,,,,,,,,,,,,,,,,,,,,,,,,,,,,,,,,,,,,,,,,,,,,23777,2019_Nov_15_1104,Mmi_3levels,3.1.5,59.96760940909425,
8,example_start.png,"The GUARANTEED OPTION will be shown on the LEFT SIDE. You are 100% guaranteed to gain or lose this amount. In this example, you have a 100% chance of winning 1 point. Select this option using the LEFT (green) button on your keyboard.",,,,,,,,0,4,4,4,,,,,,,,,,,,,,,,,,,,,,,,,,,,,,,,,,,,,,,,,58.505382468531025,None,58.505382468531025,None,58.505382468531025,None,4,2.1176927413944213,58.505382468531025,None,,,,,,,,,,,,,,,,,,,,,,,,,,,,,,,,,,,,,,,,,,,,,,,,,,,,,,,,,,,,,,,,,,,,,,,,,,,,,,,,,,,,,,,,,,,,,,,,,,,,,,,,,,,,,,23777,2019_Nov_15_1104,Mmi_3levels,3.1.5,59.96760940909425,
9,example_certain.png,"Once you select the guaranteed choice, your selection will remain on the screen.",,,,,,,,0,5,5,5,,,,,,,,,,,,,,,,,,,,,,,,,,,,,,,,,,,,,,,,,60.656176703423625,None,60.656176703423625,None,60.656176703423625,None,4,1.5508414646865276,60.656176703423625,None,,,,,,,,,,,,,,,,,,,,,,,,,,,,,,,,,,,,,,,,,,,,,,,,,,,,,,,,,,,,,,,,,,,,,,,,,,,,,,,,,,,,,,,,,,,,,,,,,,,,,,,,,,,,,,23777,2019_Nov_15_1104,Mmi_3levels,3.1.5,59.96760940909425,
10,black.png,"Please make your choices as fast as possible.
You will be given a break at the end of each block.
Let's play!",,,,,,,,0,6,6,6,,,,,,,,,,,,,,,,,,,,,,,,,,,,,,,,,,,,,,,,,62.24016637942623,None,62.24016637942623,None,62.24016637942623,None,4,2.917950713343089,62.24016637942623,None,,,,,,,,,,,,,,,,,,,,,,,,,,,,,,,,,,,,,,,,,,,,,,,,,,,,,,,,,,,,,,,,,,,,,,,,,,,,,,,,,,,,,,,,,,,,,,,,,,,,,,,,,,,,,,23777,2019_Nov_15_1104,Mmi_3levels,3.1.5,59.96760940909425,
,,,,,,,,,,,,,,,,,,,,,,,,,,,,,,,,,,,,,,,,,,,,,,,,,,,,,,,,,,,,,,,,65.17455088498173,None,space,20.441586089098564,65.17455088498173,None,,,,,,,,,,,,,,,,,,,,,,,,,,,,,,,,,,,,,,,,,,,,,,,,,,,,,,,,,,,,,,,,,,,,,,,,,,,,,,,,,,,,,,,,,,,,,,,,,,,,,,,,23777,2019_Nov_15_1104,Mmi_3levels,3.1.5,59.96760940909425,
,,,1,1,-0.9,,,,,,,,,0,0,0,0,0,0,0,7,,,,,,,,,,,,,,,,,,,,,,,,,,,,,,,,,,,,,,,,,,,,,,,,,85.63252820828166,None,0.43,5.109439047007982,88.6504262520848,None,4,2.0842418242227723,88.6504262520848,None,90.75123082249593,None,True,False,False,0.43,-0.5700000000000001,-0.5700000000000001,-2.0425,-0.9,-2.9425,-1.92125,gamble,lose,-2.9425,-2.9425,93.78576392910873,None,93.78576392910873,None,93.78576392910873,None,93.78576392910873,None,93.78576392910873,None,93.78576392910873,None,93.78576392910873,None,1,2.867979288008428,93.78576392910873,None,96.68683735095874,None,96.68683735095874,None,96.68683735095874,None,96.68683735095874,None,96.68683735095874,None,96.68683735095874,None,96.68683735095874,None,100.67176029535949,None,100.67176029535949,None,100.67176029535949,None,100.67176029535949,None,100.67176029535949,None,100.67176029535949,None,100.67176029535949,None,101.67216539643232,None,,,,,,,,,,,,,,,,,,,,,,,,,,,,,,23777,2019_Nov_15_1104,Mmi_3levels,3.1.5,59.96760940909425,
,,,1,1,2.3,,,,,,,,,0,0,0,0,0,1,1,5,,,,,,,,,,,,,,,,,,,,,,,,,,,,,,,,,,,,,,,,,,,,,,,,,,,,,,,,,,,,,True,True,True,0.43,-0.5700000000000001,-1.1400000000000001,9.120000000000001,2.3,-6.820000000000001,-2.2600000000000007,gamble,win,2.3,-0.6425000000000001,103.68960266176327,None,103.68960266176327,None,103.68960266176327,None,103.68960266176327,None,103.68960266176327,None,103.68960266176327,None,103.68960266176327,None,1,2.0843970169717068,103.68960266176327,None,105.80708901280195,None,105.80708901280195,None,105.80708901280195,None,105.80708901280195,None,105.80708901280195,None,105.80708901280195,None,105.80708901280195,None,109.80864638004095,None,109.80864638004095,None,109.80864638004095,None,109.80864638004095,None,109.80864638004095,None,109.80864638004095,None,109.80864638004095,None,110.79235818102643,None,,,,,,,,,,,,,,,,,,,,,,,,,,,,,,23777,2019_Nov_15_1104,Mmi_3levels,3.1.5,59.96760940909425,
,,,1,1,4.7,,,,,,,,,0,0,0,0,0,2,2,21,,,,,,,,,,,,,,,,,,,,,,,,,,,,,,,,,,,,,,,,,,,,,,,,,,,,,,,,,,,,,True,True,True,0.43,-0.5700000000000001,-1.7100000000000002,9.690000000000001,4.7,-4.990000000000001,-0.14500000000000046,gamble,win,4.7,4.0575,112.80980952569917,None,112.80980952569917,None,112.80980952569917,None,112.80980952569917,None,112.80980952569917,None,112.80980952569917,None,112.80980952569917,None,1,2.801339841402296,112.80980952569917,None,115.64425246052451,None,115.64425246052451,None,115.64425246052451,None,115.64425246052451,None,115.64425246052451,None,115.64425246052451,None,115.64425246052451,None,119.64580662791377,None,119.64580662791377,None,119.64580662791377,None,119.64580662791377,None,119.64580662791377,None,119.64580662791377,None,119.64580662791377,None,129.13281171503695,None,120.62950498952705,None,121.6299081706893,None,0.46,7.502839867322109,124.63105691702003,None,None,124.63105691702003,None,,,,,,,,,,,,,,,,,,,23777,2019_Nov_15_1104,Mmi_3levels,3.1.5,59.96760940909425,
,,,1,1,2.9,,,,,,,,,0,0,0,0,0,3,3,11,,,,,,,,,,,,,,,,,,,,,,,,,,,,,,,,,,,,,,,,,,,,,,,,,,,,,,,,,,,,,True,True,True,0.46,-0.54,-2.25,9.81,2.9,-6.91,-2.005,gamble,win,2.9,6.9575,131.15027105933586,None,131.15027105933586,None,131.15027105933586,None,131.15027105933586,None,131.15027105933586,None,131.15027105933586,None,131.15027105933586,None,1,2.3344787731512042,131.15027105933586,None,133.51785164597095,None,133.51785164597095,None,133.51785164597095,None,133.51785164597095,None,133.51785164597095,None,133.51785164597095,None,133.51785164597095,None,137.5027614709834,None,137.5027614709834,None,137.5027614709834,None,137.5027614709834,None,137.5027614709834,None,137.5027614709834,None,137.5027614709834,None,138.5031166543904,None,,,,,,,,,,,,,,,,,,,,,,,,,,,,,,23777,2019_Nov_15_1104,Mmi_3levels,3.1.5,59.96760940909425,
,,,1,1,11.1,,,,,,,,,0,0,0,0,0,4,4,25,,,,,,,,,,,,,,,,,,,,,,,,,,,,,,,,,,,,,,,,,,,,,,,,,,,,,,,,,,,,,True,True,False,0.46,-0.54,-2.79,10.350000000000001,11.1,0.7499999999999982,0.3749999999999991,gamble,win,11.1,18.057499999999997,140.52052000130607,None,140.52052000130607,None,140.52052000130607,None,140.52052000130607,None,140.52052000130607,None,140.52052000130607,None,140.52052000130607,None,1,1.901040143404316,140.52052000130607,None,142.45464883880595,None,142.45464883880595,None,142.45464883880595,None,142.45464883880595,None,142.45464883880595,None,142.45464883880595,None,142.45464883880595,None,146.43947738761563,None,146.43947738761563,None,146.43947738761563,None,146.43947738761563,None,146.43947738761563,None,146.43947738761563,None,146.43947738761563,None,155.94322505252603,None,147.4399208868963,None,148.4403147884932,None,0.52,7.502884025259846,151.44146097494377,None,None,151.44146097494377,None,,,,,,,,,,,,,,,,,,,23777,2019_Nov_15_1104,Mmi_3levels,3.1.5,59.96760940909425,
,,,1,1,5.5,,,,,,,,,0,0,0,0,0,5,5,6,,,,,,,,,,,,,,,,,,,,,,,,,,,,,,,,,,,,,,,,,,,,,,,,,,,,,,,,,,,,,True,True,True,0.52,-0.48,-3.27,9.99,5.5,-4.49,0.5049999999999999,gamble,win,5.5,23.557499999999997,157.96069655625615,None,157.96069655625615,None,157.96069655625615,None,157.96069655625615,None,157.96069655625615,None,157.96069655625615,None,157.96069655625615,None,1,1.9843456913695263,157.96069655625615,None,159.9781203822149,None,159.9781203822149,None,159.9781203822149,None,159.9781203822149,None,159.9781203822149,None,159.9781203822149,None,159.9781203822149,None,163.97967006981344,None,163.97967006981344,None,163.97967006981344,None,163.97967006981344,None,163.97967006981344,None,163.97967006981344,None,163.97967006981344,None,164.9633953101711,None,,,,,,,,,,,,,,,,,,,,,,,,,,,,,,23777,2019_Nov_15_1104,Mmi_3levels,3.1.5,59.96760940909425,
,,,1,1,7.9,,,,,,,,,0,0,0,0,0,6,6,17,,,,,,,,,,,,,,,,,,,,,,,,,,,,,,,,,,,,,,,,,,,,,,,,,,,,,,,,,,,,,True,True,True,0.52,-0.48,-3.75,10.469999999999999,7.9,-2.5699999999999985,-1.2849999999999993,gamble,win,7.9,31.457499999999996,166.9808434549941,None,166.9808434549941,None,166.9808434549941,None,166.9808434549941,None,166.9808434549941,None,166.9808434549941,None,166.9808434549941,None,1,2.0677149163584545,166.9808434549941,None,169.08165858491157,None,169.08165858491157,None,169.08165858491157,None,169.08165858491157,None,169.08165858491157,None,169.08165858491157,None,169.08165858491157,None,173.06653961126904,None,173.06653961126904,None,173.06653961126904,None,173.06653961126904,None,173.06653961126904,None,173.06653961126904,None,173.06653961126904,None,174.06692455328448,None,,,,,,,,,,,,,,,,,,,,,,,,,,,,,,23777,2019_Nov_15_1104,Mmi_3levels,3.1.5,59.96760940909425,
,,,1,1,13.5,,,,,,,,,0,0,0,0,0,7,7,19,,,,,,,,,,,,,,,,,,,,,,,,,,,,,,,,,,,,,,,,,,,,,,,,,,,,,,,,,,,,,True,True,False,0.52,-0.48,-4.23,10.95,13.5,2.5500000000000007,1.2750000000000004,gamble,win,13.5,44.957499999999996,176.08437493800193,None,176.08437493800193,None,176.08437493800193,None,176.08437493800193,None,176.08437493800193,None,176.08437493800193,None,176.08437493800193,None,1,1.5675395645521348,176.08437493800193,None,177.68500127674088,None,177.68500127674088,None,177.68500127674088,None,177.68500127674088,None,177.68500127674088,None,177.68500127674088,None,177.68500127674088,None,181.66986950369756,None,181.66986950369756,None,181.66986950369756,None,181.66986950369756,None,181.66986950369756,None,181.66986950369756,None,181.66986950369756,None,191.17353141261265,None,182.67026820506908,None,183.6706073892219,None,0.55,7.502892024886023,186.6717990135494,None,None,186.6717990135494,None,,,,,,,,,,,,,,,,,,,23777,2019_Nov_15_1104,Mmi_3levels,3.1.5,59.96760940909425,
,,,1,1,12.1,,,,,,,,,0,0,0,0,0,8,8,13,,,,,,,,,,,,,,,,,,,,,,,,,,,,,,,,,,,,,,,,,,,,,,,,,,,,,,,,,,,,,True,False,False,0.55,-0.44999999999999996,-4.680000000000001,-1.9649999999999999,12.1,10.135,5.0675,gamble,lose,10.135,55.092499999999994,193.19101603573108,None,193.19101603573108,None,193.19101603573108,None,193.19101603573108,None,193.19101603573108,None,193.19101603573108,None,193.19101603573108,None,1,1.4174646560513793,193.19101603573108,None,194.64157546559363,None,194.64157546559363,None,194.64157546559363,None,194.64157546559363,None,194.64157546559363,None,194.64157546559363,None,194.64157546559363,None,198.64313219286305,None,198.64313219286305,None,198.64313219286305,None,198.64313219286305,None,198.64313219286305,None,198.64313219286305,None,198.64313219286305,None,199.62679599609146,None,,,,,,,,,,,,,,,,,,,,,,,,,,,,,,23777,2019_Nov_15_1104,Mmi_3levels,3.1.5,59.96760940909425,
,,,1,1,7.5,,,,,,,,,0,0,0,0,0,9,9,1,,,,,,,,,,,,,,,,,,,,,,,,,,,,,,,,,,,,,,,,,,,,,,,,,,,,,,,,,,,,,True,False,True,0.55,-0.44999999999999996,-5.130000000000001,-2.0025,7.5,5.4975000000000005,2.7487500000000002,gamble,lose,5.4975000000000005,60.589999999999996,201.64430077826728,None,201.64430077826728,None,201.64430077826728,None,201.64430077826728,None,201.64430077826728,None,201.64430077826728,None,201.64430077826728,None,1,1.4341464366789296,201.64430077826728,None,203.1115346291026,None,203.1115346291026,None,203.1115346291026,None,203.1115346291026,None,203.1115346291026,None,203.1115346291026,None,203.1115346291026,None,207.0964066958786,None,207.0964066958786,None,207.0964066958786,None,207.0964066958786,None,207.0964066958786,None,207.0964066958786,None,207.0964066958786,None,216.60009836340396,None,208.09682683625033,None,209.0971900192817,None,0.59,7.502821308187777,212.09828756800562,None,None,212.09828756800562,None,,,,,,,,,,,,,,,,,,,23777,2019_Nov_15_1104,Mmi_3levels,3.1.5,59.96760940909425,
,,,1,1,11.7,,,,,,,,,0,0,0,0,0,10,10,24,,,,,,,,,,,,,,,,,,,,,,,,,,,,,,,,,,,,,,,,,,,,,,,,,,,,,,,,,,,,,True,True,True,0.59,-0.41000000000000003,-5.540000000000001,11.280000000000001,11.7,0.41999999999999815,0.20999999999999908,gamble,win,11.7,72.28999999999999,218.6175375486455,None,218.6175375486455,None,218.6175375486455,None,218.6175375486455,None,218.6175375486455,None,218.6175375486455,None,218.6175375486455,None,1,1.4840071471862757,218.6175375486455,None,220.13480554188573,None,220.13480554188573,None,220.13480554188573,None,220.13480554188573,None,220.13480554188573,None,220.13480554188573,None,220.13480554188573,None,224.11967632872256,None,224.11967632872256,None,224.11967632872256,None,224.11967632872256,None,224.11967632872256,None,224.11967632872256,None,224.11967632872256,None,225.12007503009409,None,,,,,,,,,,,,,,,,,,,,,,,,,,,,,,23777,2019_Nov_15_1104,Mmi_3levels,3.1.5,59.96760940909425,
,,,1,1,11.3,,,,,,,,,0,0,0,0,0,11,11,18,,,,,,,,,,,,,,,,,,,,,,,,,,,,,,,,,,,,,,,,,,,,,,,,,,,,,,,,,,,,,True,True,False,0.59,-0.41000000000000003,-5.950000000000001,11.690000000000001,11.3,-0.39000000000000057,-0.19500000000000028,gamble,win,11.3,83.58999999999999,227.13751741518718,None,227.13751741518718,None,227.13751741518718,None,227.13751741518718,None,227.13751741518718,None,227.13751741518718,None,227.13751741518718,None,1,1.8508021705220017,227.13751741518718,None,229.02158107173273,None,229.02158107173273,None,229.02158107173273,None,229.02158107173273,None,229.02158107173273,None,229.02158107173273,None,229.02158107173273,None,233.02313811898784,None,233.02313811898784,None,233.02313811898784,None,233.02313811898784,None,233.02313811898784,None,233.02313811898784,None,233.02313811898784,None,242.51015376561554,None,234.0068569596424,None,235.00724318159882,None,0.59,7.50276467083313,238.00839096797426,None,None,238.00839096797426,None,,,,,,,,,,,,,,,,,,,23777,2019_Nov_15_1104,Mmi_3levels,3.1.5,59.96760940909425,
,,,1,1,6.3,,,,,,,,,0,0,0,0,0,12,12,9,,,,,,,,,,,,,,,,,,,,,,,,,,,,,,,,,,,,,,,,,,,,,,,,,,,,,,,,,,,,,True,True,False,0.59,-0.41000000000000003,-6.360000000000001,12.100000000000001,6.3,-5.800000000000002,0.2499999999999991,gamble,win,6.3,89.88999999999999,244.52760895010942,None,244.52760895010942,None,244.52760895010942,None,244.52760895010942,None,244.52760895010942,None,244.52760895010942,None,244.52760895010942,None,1,1.2340661844282295,244.52760895010942,None,245.79476254869405,None,245.79476254869405,None,245.79476254869405,None,245.79476254869405,None,245.79476254869405,None,245.79476254869405,None,245.79476254869405,None,249.7963163960976,None,249.7963163960976,None,249.7963163960976,None,249.7963163960976,None,249.7963163960976,None,249.7963163960976,None,249.7963163960976,None,250.78001603765006,None,,,,,,,,,,,,,,,,,,,,,,,,,,,,,,23777,2019_Nov_15_1104,Mmi_3levels,3.1.5,59.96760940909425,
,,,1,1,1.3,,,,,,,,,0,0,0,0,0,13,13,0,,,,,,,,,,,,,,,,,,,,,,,,,,,,,,,,,,,,,,,,,,,,,,,,,,,,,,,,,,,,,True,True,True,0.59,-0.41000000000000003,-6.770000000000001,12.510000000000002,1.3,-11.21,-4.955,gamble,win,1.3,91.18999999999998,252.79747986174152,None,252.79747986174152,None,252.79747986174152,None,252.79747986174152,None,252.79747986174152,None,252.79747986174152,None,252.79747986174152,None,1,2.7513117787129886,252.79747986174152,None,255.5818934539384,None,255.5818934539384,None,255.5818934539384,None,255.5818934539384,None,255.5818934539384,None,255.5818934539384,None,255.5818934539384,None,259.56676872056596,None,259.56676872056596,None,259.56676872056596,None,259.56676872056596,None,259.56676872056596,None,259.56676872056596,None,259.56676872056596,None,260.56715078271554,None,,,,,,,,,,,,,,,,,,,,,,,,,,,,,,23777,2019_Nov_15_1104,Mmi_3levels,3.1.5,59.96760940909425,
,,,1,1,9.9,,,,,,,,,0,0,0,0,0,14,14,4,,,,,,,,,,,,,,,,,,,,,,,,,,,,,,,,,,,,,,,,,,,,,,,,,,,,,,,,,,,,,True,True,True,0.59,-0.41000000000000003,-7.1800000000000015,12.920000000000002,9.9,-3.0200000000000014,-1.5100000000000007,gamble,win,9.9,101.08999999999999,262.5846142868213,None,262.5846142868213,None,262.5846142868213,None,262.5846142868213,None,262.5846142868213,None,262.5846142868213,None,262.5846142868213,None,1,1.41746049624453,262.5846142868213,None,264.03517339669816,None,264.03517339669816,None,264.03517339669816,None,264.03517339669816,None,264.03517339669816,None,264.03517339669816,None,264.03517339669816,None,268.0367282040588,None,268.0367282040588,None,268.0367282040588,None,268.0367282040588,None,268.0367282040588,None,268.0367282040588,None,268.0367282040588,None,277.52373425113547,None,269.02043392532687,None,270.02082942684865,None,0.64,7.5028321876798145,273.02197977310425,None,None,273.02197977310425,None,,,,,,,,,,,,,,,,,,,23777,2019_Nov_15_1104,Mmi_3levels,3.1.5,59.96760940909425,
,,,1,1,10.9,,,,,,,,,0,0,0,0,0,15,15,22,,,,,,,,,,,,,,,,,,,,,,,,,,,,,,,,,,,,,,,,,,,,,,,,,,,,,,,,,,,,,True,True,False,0.64,-0.36,-7.540000000000002,12.580000000000002,10.9,-1.6800000000000015,-0.8400000000000007,gamble,win,10.9,111.99,279.54118911564365,None,279.54118911564365,None,279.54118911564365,None,279.54118911564365,None,279.54118911564365,None,279.54118911564365,None,279.54118911564365,None,1,1.50085244017464,279.54118911564365,None,281.0751264100945,None,281.0751264100945,None,281.0751264100945,None,281.0751264100945,None,281.0751264100945,None,281.0751264100945,None,281.0751264100945,None,285.0766661781563,None,285.0766661781563,None,285.0766661781563,None,285.0766661781563,None,285.0766661781563,None,285.0766661781563,None,285.0766661781563,None,286.06038533879655,None,,,,,,,,,,,,,,,,,,,,,,,,,,,,,,23777,2019_Nov_15_1104,Mmi_3levels,3.1.5,59.96760940909425,
,,,1,1,0.5,,,,,,,,,0,0,0,0,0,16,16,12,,,,,,,,,,,,,,,,,,,,,,,,,,,,,,,,,,,,,,,,,,,,,,,,,,,,,,,,,,,,,True,True,False,0.64,-0.36,-7.900000000000002,12.940000000000001,0.5,-12.440000000000001,-5.970000000000001,certain,certain,-5.970000000000001,106.02,288.07783476356053,None,288.07783476356053,None,288.07783476356053,None,288.07783476356053,None,288.07783476356053,None,288.07783476356053,None,288.07783476356053,None,3,1.917650567364035,288.07783476356053,None,290.02858618445316,None,290.02858618445316,None,290.02858618445316,None,290.02858618445316,None,290.02858618445316,None,290.02858618445316,None,290.02858618445316,None,294.03013971187283,None,294.03013971187283,None,294.03013971187283,None,294.03013971187283,None,294.03013971187283,None,294.03013971187283,None,294.03013971187283,None,303.51710736074347,None,295.01385503269194,None,296.0141983766516,None,0.6,7.5028584264528035,299.01539480075553,None,None,299.01539480075553,None,,,,,,,,,,,,,,,,,,,23777,2019_Nov_15_1104,Mmi_3levels,3.1.5,59.96760940909425,
,,,1,1,7.7,,,,,,,,,0,0,0,0,0,17,17,2,,,,,,,,,,,,,,,,,,,,,,,,,,,,,,,,,,,,,,,,,,,,,,,,,,,,,,,,,,,,,True,True,False,0.6,-0.4,-8.300000000000002,13.900000000000002,7.7,-6.200000000000002,0.7499999999999991,gamble,win,7.7,113.72,305.5346121429211,None,305.5346121429211,None,305.5346121429211,None,305.5346121429211,None,305.5346121429211,None,305.5346121429211,None,305.5346121429211,None,1,1.484168099666931,305.5346121429211,None,307.05185965711644,None,307.05185965711644,None,307.05185965711644,None,307.05185965711644,None,307.05185965711644,None,307.05185965711644,None,307.05185965711644,None,311.053418944266,None,311.053418944266,None,311.053418944266,None,311.053418944266,None,311.053418944266,None,311.053418944266,None,311.053418944266,None,312.03714066478824,None,,,,,,,,,,,,,,,,,,,,,,,,,,,,,,23777,2019_Nov_15_1104,Mmi_3levels,3.1.5,59.96760940909425,
,,,1,1,13.1,,,,,,,,,0,0,0,0,0,18,18,3,,,,,,,,,,,,,,,,,,,,,,,,,,,,,,,,,,,,,,,,,,,,,,,,,,,,,,,,,,,,,True,True,True,0.6,-0.4,-8.700000000000003,14.300000000000004,13.1,-1.2000000000000046,-0.6000000000000023,gamble,win,13.1,126.82,314.05458017001365,None,314.05458017001365,None,314.05458017001365,None,314.05458017001365,None,314.05458017001365,None,314.05458017001365,None,314.05458017001365,None,1,1.284087527430529,314.05458017001365,None,315.3717608713323,None,315.3717608713323,None,315.3717608713323,None,315.3717608713323,None,315.3717608713323,None,315.3717608713323,None,315.3717608713323,None,319.37331407876627,None,319.37331407876627,None,319.37331407876627,None,319.37331407876627,None,319.37331407876627,None,319.37331407876627,None,319.37331407876627,None,320.3570002809465,None,,,,,,,,,,,,,,,,,,,,,,,,,,,,,,23777,2019_Nov_15_1104,Mmi_3levels,3.1.5,59.96760940909425,
,,,1,1,8.7,,,,,,,,,0,0,0,0,0,19,19,23,,,,,,,,,,,,,,,,,,,,,,,,,,,,,,,,,,,,,,,,,,,,,,,,,,,,,,,,,,,,,True,False,True,0.6,-0.4,-9.100000000000003,-2.1583333333333337,8.7,6.541666666666666,3.270833333333333,gamble,lose,6.541666666666666,133.36166666666665,322.37442666678544,None,322.37442666678544,None,322.37442666678544,None,322.37442666678544,None,322.37442666678544,None,322.37442666678544,None,322.37442666678544,None,1,1.16743409747869,322.37442666678544,None,323.5749420987049,None,323.5749420987049,None,323.5749420987049,None,323.5749420987049,None,323.5749420987049,None,323.5749420987049,None,323.5749420987049,None,327.55981960522877,None,327.55981960522877,None,327.55981960522877,None,327.55981960522877,None,327.55981960522877,None,327.55981960522877,None,327.55981960522877,None,337.06350743293297,None,328.56020966700453,None,329.56059044921494,None,0.62,7.5028373074419505,332.5617564747372,None,None,332.5617564747372,None,,,,,,,,,,,,,,,,,,,23777,2019_Nov_15_1104,Mmi_3levels,3.1.5,59.96760940909425,
,,,1,1,9.7,,,,,,,,,0,0,0,0,0,20,20,16,,,,,,,,,,,,,,,,,,,,,,,,,,,,,,,,,,,,,,,,,,,,,,,,,,,,,,,,,,,,,True,False,True,0.62,-0.38,-9.480000000000004,-2.1200000000000006,9.7,7.579999999999998,3.789999999999999,gamble,lose,7.579999999999998,140.94166666666666,339.0809178195195,None,339.0809178195195,None,339.0809178195195,None,339.0809178195195,None,339.0809178195195,None,339.0809178195195,None,339.0809178195195,None,1,1.2341141821852943,339.0809178195195,None,340.34811653599536,None,340.34811653599536,None,340.34811653599536,None,340.34811653599536,None,340.34811653599536,None,340.34811653599536,None,340.34811653599536,None,344.3329863628769,None,344.3329863628769,None,344.3329863628769,None,344.3329863628769,None,344.3329863628769,None,344.3329863628769,None,344.3329863628769,None,345.33338538423413,None,,,,,,,,,,,,,,,,,,,,,,,,,,,,,,23777,2019_Nov_15_1104,Mmi_3levels,3.1.5,59.96760940909425,
,,,1,1,4.3,,,,,,,,,0,0,0,0,0,21,21,26,,,,,,,,,,,,,,,,,,,,,,,,,,,,,,,,,,,,,,,,,,,,,,,,,,,,,,,,,,,,,True,False,False,0.62,-0.38,-9.860000000000005,-2.1516666666666673,4.3,2.1483333333333325,1.0741666666666663,gamble,lose,2.1483333333333325,143.09,347.350807610268,None,347.350807610268,None,347.350807610268,None,347.350807610268,None,347.350807610268,None,347.350807610268,None,347.350807610268,None,1,1.1672222673751094,347.350807610268,None,348.55126832474343,None,348.55126832474343,None,348.55126832474343,None,348.55126832474343,None,348.55126832474343,None,348.55126832474343,None,348.55126832474343,None,352.536138151625,None,352.536138151625,None,352.536138151625,None,352.536138151625,None,352.536138151625,None,352.536138151625,None,352.536138151625,None,362.03983493891246,None,353.536559251952,None,354.53696211313036,None,0.56,7.5028110686671425,357.53803278310806,None,None,357.53803278310806,None,,,,,,,,,,,,,,,,,,,23777,2019_Nov_15_1104,Mmi_3levels,3.1.5,59.96760940909425,
,,,1,1,3.1,,,,,,,,,0,0,0,0,0,22,22,8,,,,,,,,,,,,,,,,,,,,,,,,,,,,,,,,,,,,,,,,,,,,,,,,,,,,,,,,,,,,,True,True,True,0.56,-0.43999999999999995,-10.300000000000004,16.460000000000004,3.1,-13.360000000000005,-5.130000000000003,certain,certain,-5.130000000000003,137.96,364.0572798838839,None,364.0572798838839,None,364.0572798838839,None,364.0572798838839,None,364.0572798838839,None,364.0572798838839,None,364.0572798838839,None,3,2.067734115460553,364.0572798838839,None,366.1581039733828,None,366.1581039733828,None,366.1581039733828,None,366.1581039733828,None,366.1581039733828,None,366.1581039733828,None,366.1581039733828,None,370.15965398096523,None,370.15965398096523,None,370.15965398096523,None,370.15965398096523,None,370.15965398096523,None,370.15965398096523,None,370.15965398096523,None,371.1433664219203,None,,,,,,,,,,,,,,,,,,,,,,,,,,,,,,23777,2019_Nov_15_1104,Mmi_3levels,3.1.5,59.96760940909425,
,,,1,1,-0.5,,,,,,,,,0,0,0,0,0,23,23,20,,,,,,,,,,,,,,,,,,,,,,,,,,,,,,,,,,,,,,,,,,,,,,,,,,,,,,,,,,,,,True,True,False,0.56,-0.43999999999999995,-10.740000000000004,16.900000000000002,-0.5,-17.400000000000002,-8.950000000000001,gamble,win,-0.5,137.46,373.16085712475433,None,373.16085712475433,None,373.16085712475433,None,373.16085712475433,None,373.16085712475433,None,373.16085712475433,None,373.16085712475433,None,1,2.517687493640551,373.16085712475433,None,375.7118073843594,None,375.7118073843594,None,375.7118073843594,None,375.7118073843594,None,375.7118073843594,None,375.7118073843594,None,375.7118073843594,None,379.7133593118524,None,379.7133593118524,None,379.7133593118524,None,379.7133593118524,None,379.7133593118524,None,379.7133593118524,None,379.7133593118524,None,389.20040503707605,None,380.69706663304714,None,381.6974621345689,None,0.63,7.502529161838538,384.698555523486,None,None,384.698555523486,None,,,,,,,,,,,,,,,,,,,23777,2019_Nov_15_1104,Mmi_3levels,3.1.5,59.96760940909425,
,,,1,1,-0.7,,,,,,,,,0,0,0,0,0,24,24,14,,,,,,,,,,,,,,,,,,,,,,,,,,,,,,,,,,,,,,,,,,,,,,,,,,,,,,,,,,,,,True,False,True,0.63,-0.37,-11.110000000000003,-2.2208333333333337,-0.7,-2.9208333333333334,-1.8104166666666668,certain,certain,-1.8104166666666668,135.64958333333334,391.2178234232888,None,391.2178234232888,None,391.2178234232888,None,391.2178234232888,None,391.2178234232888,None,391.2178234232888,None,391.2178234232888,None,3,1.7842254409879388,391.2178234232888,None,393.0351449180289,None,393.0351449180289,None,393.0351449180289,None,393.0351449180289,None,393.0351449180289,None,393.0351449180289,None,393.0351449180289,None,397.0200816217857,None,397.0200816217857,None,397.0200816217857,None,397.0200816217857,None,397.0200816217857,None,397.0200816217857,None,397.0200816217857,None,398.02046048408556,None,,,,,,,,,,,,,,,,,,,,,,,,,,,,,,23777,2019_Nov_15_1104,Mmi_3levels,3.1.5,59.96760940909425,
,,,1,1,-1.3,,,,,,,,,0,0,0,0,0,25,25,10,,,,,,,,,,,,,,,,,,,,,,,,,,,,,,,,,,,,,,,,,,,,,,,,,,,,,,,,,,,,,True,True,True,0.63,-0.37,-11.480000000000002,16.660000000000004,-1.3,-17.960000000000004,-9.630000000000003,gamble,win,-1.3,134.34958333333333,400.03785519140547,None,400.03785519140547,None,400.03785519140547,None,400.03785519140547,None,400.03785519140547,None,400.03785519140547,None,400.03785519140547,None,1,1.784335195859967,400.03785519140547,None,401.8552810012716,None,401.8552810012716,None,401.8552810012716,None,401.8552810012716,None,401.8552810012716,None,401.8552810012716,None,401.8552810012716,None,405.8568300489005,None,405.8568300489005,None,405.8568300489005,None,405.8568300489005,None,405.8568300489005,None,405.8568300489005,None,405.8568300489005,None,406.84058312795605,None,,,,,,,,,,,,,,,,,,,,,,,,,,,,,,23777,2019_Nov_15_1104,Mmi_3levels,3.1.5,59.96760940909425,
,,,1,1,2.5,,,,,,,,,0,0,0,0,0,26,26,15,,,,,,,,,,,,,,,,,,,,,,,,,,,,,,,,,,,,,,,,,,,,,,,,,,,,,,,,,,,,,True,True,False,0.63,-0.37,-11.850000000000001,17.03,2.5,-14.530000000000001,-6.015000000000001,gamble,win,2.5,136.84958333333333,408.8580594314626,None,408.8580594314626,None,408.8580594314626,None,408.8580594314626,None,408.8580594314626,None,408.8580594314626,None,408.8580594314626,None,1,1.3340503131694277,408.8580594314626,None,410.225192359012,None,410.225192359012,None,410.225192359012,None,410.225192359012,None,410.225192359012,None,410.225192359012,None,410.225192359012,None,414.2267458864317,None,414.2267458864317,None,414.2267458864317,None,414.2267458864317,None,414.2267458864317,None,414.2267458864317,None,414.2267458864317,None,423.7137989713119,None,415.2104589673563,None,416.2108531889389,None,0.6,7.502836987456249,419.2119990554038,None,None,419.2119990554038,None,,,,,,,,,,,,,,,,,,,23777,2019_Nov_15_1104,Mmi_3levels,3.1.5,59.96760940909425,
,,,2,0,0.5,,,,,,,,,0,1,1,1,0,0,0,22,,,,,,,,,,,,,,,,,,,,,,,,,,,,,,,,,,,,,,,,,,,,,,,,,430.83322795159074,None,0.57,7.501750958193952,433.85101016080444,None,None,,433.85101016080444,None,438.33608573807396,None,False,True,False,0.57,0.57,0.57,-8.549999999999999,0.5,-8.049999999999999,-3.7749999999999995,gamble,lose,-8.049999999999999,128.79958333333332,441.3706089251518,None,441.3706089251518,None,441.3706089251518,None,441.3706089251518,None,441.3706089251518,None,441.3706089251518,None,441.3706089251518,None,1,1.784292317863219,441.3706089251518,None,443.18797521779743,None,443.18797521779743,None,443.18797521779743,None,443.18797521779743,None,443.18797521779743,None,443.18797521779743,None,443.18797521779743,None,447.18953162508296,None,447.18953162508296,None,447.18953162508296,None,447.18953162508296,None,447.18953162508296,None,447.18953162508296,None,447.18953162508296,None,448.17329238377897,None,,,,,,,,,,,,425.7145314170921,None,4,5.102230423795845,425.7145314170921,None,,,,,,,,,,,,,23777,2019_Nov_15_1104,Mmi_3levels,3.1.5,59.96760940909425,
,,,2,0,9.1,,,,,,,,,0,1,1,1,0,1,1,0,,,,,,,,,,,,,,,,,,,,,,,,,,,,,,,,,,,,,,,,,,,,,,,,,,,,,,,,,,,,,False,True,True,0.57,0.57,1.14,-9.12,9.1,-0.019999999999999574,-0.009999999999999787,gamble,lose,-0.019999999999999574,128.7795833333333,450.1906387733561,None,450.1906387733561,None,450.1906387733561,None,450.1906387733561,None,450.1906387733561,None,450.1906387733561,None,450.1906387733561,None,1,2.1845350585226697,450.1906387733561,None,452.4082206079329,None,452.4082206079329,None,452.4082206079329,None,452.4082206079329,None,452.4082206079329,None,452.4082206079329,None,452.4082206079329,None,456.4097779751737,None,456.4097779751737,None,456.4097779751737,None,456.4097779751737,None,456.4097779751737,None,456.4097779751737,None,456.4097779751737,None,465.8967805024149,None,457.3934798566206,None,458.393922395946,None,0.52,7.502844987082426,461.39499178598453,None,None,461.39499178598453,None,,,,,,,,,,,,,,,,,,,23777,2019_Nov_15_1104,Mmi_3levels,3.1.5,59.96760940909425,
,,,2,0,-1.3,,,,,,,,,0,1,1,1,0,2,2,25,,,,,,,,,,,,,,,,,,,,,,,,,,,,,,,,,,,,,,,,,,,,,,,,,,,,,,,,,,,,,False,False,True,0.52,0.52,1.66,1.9583333333333335,-0.325,-2.2833333333333337,-1.304166666666667,certain,certain,-1.304166666666667,127.47541666666665,467.91423696684797,None,467.91423696684797,None,467.91423696684797,None,467.91423696684797,None,467.91423696684797,None,467.91423696684797,None,467.91423696684797,None,3,2.217595913918558,467.91423696684797,None,470.1651078061641,None,470.1651078061641,None,470.1651078061641,None,470.1651078061641,None,470.1651078061641,None,470.1651078061641,None,470.1651078061641,None,474.1499984320726,None,474.1499984320726,None,474.1499984320726,None,474.1499984320726,None,474.1499984320726,None,474.1499984320726,None,474.1499984320726,None,475.18372773623923,None,,,,,,,,,,,,,,,,,,,,,,,,,,,,,,23777,2019_Nov_15_1104,Mmi_3levels,3.1.5,59.96760940909425,
,,,2,0,13.5,,,,,,,,,0,1,1,1,0,3,3,12,,,,,,,,,,,,,,,,,,,,,,,,,,,,,,,,,,,,,,,,,,,,,,,,,,,,,,,,,,,,,False,True,True,0.52,0.52,2.1799999999999997,-9.46,13.5,4.039999999999999,2.0199999999999996,gamble,lose,4.039999999999999,131.51541666666665,477.20122035898385,None,477.20122035898385,None,477.20122035898385,None,477.20122035898385,None,477.20122035898385,None,477.20122035898385,None,477.20122035898385,None,1,1.2507370855619229,477.20122035898385,None,478.4850128601993,None,478.4850128601993,None,478.4850128601993,None,478.4850128601993,None,478.4850128601993,None,478.4850128601993,None,478.4850128601993,None,482.4865903864975,None,482.4865903864975,None,482.4865903864975,None,482.4865903864975,None,482.4865903864975,None,482.4865903864975,None,482.4865903864975,None,491.97360763305187,None,483.470266669141,None,484.470658970813,None,0.56,7.50285522660306,487.47176643907187,None,None,487.47176643907187,None,,,,,,,,,,,,,,,,,,,23777,2019_Nov_15_1104,Mmi_3levels,3.1.5,59.96760940909425,
,,,2,0,7.5,,,,,,,,,0,1,1,1,0,4,4,24,,,,,,,,,,,,,,,,,,,,,,,,,,,,,,,,,,,,,,,,,,,,,,,,,,,,,,,,,,,,,False,False,False,0.56,0.56,2.7399999999999998,2.1883333333333335,1.875,-0.31333333333333346,0.7808333333333333,gamble,win,1.875,133.39041666666665,493.99102985908576,None,493.99102985908576,None,493.99102985908576,None,493.99102985908576,None,493.99102985908576,None,493.99102985908576,None,493.99102985908576,None,1,2.0510516948634177,493.99102985908576,None,496.0751606484937,None,496.0751606484937,None,496.0751606484937,None,496.0751606484937,None,496.0751606484937,None,496.0751606484937,None,496.0751606484937,None,500.07671641580964,None,500.07671641580964,None,500.07671641580964,None,500.07671641580964,None,500.07671641580964,None,500.07671641580964,None,500.07671641580964,None,501.0604333365536,None,,,,,,,,,,,,,,,,,,,,,,,,,,,,,,23777,2019_Nov_15_1104,Mmi_3levels,3.1.5,59.96760940909425,
,,,2,0,0.9,,,,,,,,,0,1,1,1,0,5,5,8,,,,,,,,,,,,,,,,,,,,,,,,,,,,,,,,,,,,,,,,,,,,,,,,,,,,,,,,,,,,,False,True,False,0.56,0.56,3.3,-11.14,0.9,-10.24,-4.67,certain,certain,-4.67,128.72041666666667,503.07788532119775,None,503.07788532119775,None,503.07788532119775,None,503.07788532119775,None,503.07788532119775,None,503.07788532119775,None,503.07788532119775,None,3,1.7676380559496465,503.07788532119775,None,504.8785771928742,None,504.8785771928742,None,504.8785771928742,None,504.8785771928742,None,504.8785771928742,None,504.8785771928742,None,504.8785771928742,None,508.8800830425207,None,508.8800830425207,None,508.8800830425207,None,508.8800830425207,None,508.8800830425207,None,508.8800830425207,None,508.8800830425207,None,509.8638518008429,None,,,,,,,,,,,,,,,,,,,,,,,,,,,,,,23777,2019_Nov_15_1104,Mmi_3levels,3.1.5,59.96760940909425,
,,,2,0,13.1,,,,,,,,,0,1,1,1,0,6,6,26,,,,,,,,,,,,,,,,,,,,,,,,,,,,,,,,,,,,,,,,,,,,,,,,,,,,,,,,,,,,,False,True,False,0.56,0.56,3.86,-11.700000000000001,13.1,1.3999999999999986,0.6999999999999993,gamble,lose,1.3999999999999986,130.12041666666667,511.8812925860111,None,511.8812925860111,None,511.8812925860111,None,511.8812925860111,None,511.8812925860111,None,511.8812925860111,None,511.8812925860111,None,1,1.1507737558495137,511.8812925860111,None,513.0651275172422,None,513.0651275172422,None,513.0651275172422,None,513.0651275172422,None,513.0651275172422,None,513.0651275172422,None,513.0651275172422,None,517.0666868043918,None,517.0666868043918,None,517.0666868043918,None,517.0666868043918,None,517.0666868043918,None,517.0666868043918,None,517.0666868043918,None,526.5536509334288,None,518.050398925363,None,519.0507480290526,None,0.58,7.502947382297862,522.051884935936,None,None,522.051884935936,None,,,,,,,,,,,,,,,,,,,23777,2019_Nov_15_1104,Mmi_3levels,3.1.5,59.96760940909425,
,,,2,0,3.7,,,,,,,,,0,1,1,1,0,7,7,19,,,,,,,,,,,,,,,,,,,,,,,,,,,,,,,,,,,,,,,,,,,,,,,,,,,,,,,,,,,,,False,False,True,0.58,0.58,4.4399999999999995,2.4,0.925,-1.4749999999999999,-0.2749999999999999,certain,certain,-0.2749999999999999,129.84541666666667,528.5710993982357,None,528.5710993982357,None,528.5710993982357,None,528.5710993982357,None,528.5710993982357,None,528.5710993982357,None,528.5710993982357,None,3,2.28449166854989,528.5710993982357,None,530.888655122033,None,530.888655122033,None,530.888655122033,None,530.888655122033,None,530.888655122033,None,530.888655122033,None,530.888655122033,None,534.8902387280468,None,534.8902387280468,None,534.8902387280468,None,534.8902387280468,None,534.8902387280468,None,534.8902387280468,None,534.8902387280468,None,535.8739322898837,None,,,,,,,,,,,,,,,,,,,,,,,,,,,,,,23777,2019_Nov_15_1104,Mmi_3levels,3.1.5,59.96760940909425,
,,,2,0,8.7,,,,,,,,,0,1,1,1,0,8,8,21,,,,,,,,,,,,,,,,,,,,,,,,,,,,,,,,,,,,,,,,,,,,,,,,,,,,,,,,,,,,,False,False,True,0.58,0.58,5.02,2.4483333333333333,2.175,-0.27333333333333343,0.9508333333333332,gamble,win,2.175,132.02041666666668,537.8913826746011,None,537.8913826746011,None,537.8913826746011,None,537.8913826746011,None,537.8913826746011,None,537.8913826746011,None,537.8913826746011,None,1,2.034386873443509,537.8913826746011,None,539.9588515224568,None,539.9588515224568,None,539.9588515224568,None,539.9588515224568,None,539.9588515224568,None,539.9588515224568,None,539.9588515224568,None,543.9604050498765,None,543.9604050498765,None,543.9604050498765,None,543.9604050498765,None,543.9604050498765,None,543.9604050498765,None,543.9604050498765,None,553.44745653483,None,544.9441590888873,None,545.9445069126377,None,0.61,7.502786429819025,548.9456505392063,None,None,548.9456505392063,None,,,,,,,,,,,,,,,,,,,23777,2019_Nov_15_1104,Mmi_3levels,3.1.5,59.96760940909425,
,,,2,0,10.7,,,,,,,,,0,1,1,1,0,9,9,2,,,,,,,,,,,,,,,,,,,,,,,,,,,,,,,,,,,,,,,,,,,,,,,,,,,,,,,,,,,,,False,True,True,0.61,0.61,5.63,-14.169999999999998,10.7,-3.469999999999999,-1.7349999999999994,gamble,lose,-3.469999999999999,128.55041666666668,555.464867561388,None,555.464867561388,None,555.464867561388,None,555.464867561388,None,555.464867561388,None,555.464867561388,None,555.464867561388,None,1,1.9176646467076353,555.464867561388,None,557.4155441057792,None,557.4155441057792,None,557.4155441057792,None,557.4155441057792,None,557.4155441057792,None,557.4155441057792,None,557.4155441057792,None,561.4171763495215,None,561.4171763495215,None,561.4171763495215,None,561.4171763495215,None,561.4171763495215,None,561.4171763495215,None,561.4171763495215,None,562.400913109339,None,,,,,,,,,,,,,,,,,,,,,,,,,,,,,,23777,2019_Nov_15_1104,Mmi_3levels,3.1.5,59.96760940909425,
,,,2,0,6.1,,,,,,,,,0,1,1,1,0,10,10,10,,,,,,,,,,,,,,,,,,,,,,,,,,,,,,,,,,,,,,,,,,,,,,,,,,,,,,,,,,,,,False,True,False,0.61,0.61,6.24,-14.78,6.1,-8.68,-1.29,certain,certain,-1.29,127.26041666666667,564.4183292556572,None,564.4183292556572,None,564.4183292556572,None,564.4183292556572,None,564.4183292556572,None,564.4183292556572,None,564.4183292556572,None,3,1.9009950255131116,564.4183292556572,None,566.3524216148617,None,566.3524216148617,None,566.3524216148617,None,566.3524216148617,None,566.3524216148617,None,566.3524216148617,None,566.3524216148617,None,570.337306801026,None,570.337306801026,None,570.337306801026,None,570.337306801026,None,570.337306801026,None,570.337306801026,None,570.337306801026,None,571.3376799035941,None,,,,,,,,,,,,,,,,,,,,,,,,,,,,,,23777,2019_Nov_15_1104,Mmi_3levels,3.1.5,59.96760940909425,
,,,2,0,7.3,,,,,,,,,0,1,1,1,0,11,11,18,,,,,,,,,,,,,,,,,,,,,,,,,,,,,,,,,,,,,,,,,,,,,,,,,,,,,,,,,,,,,False,True,False,0.61,0.61,6.8500000000000005,-15.39,7.3,-8.09,-0.395,certain,certain,-0.395,126.86541666666668,573.3551427677303,None,573.3551427677303,None,573.3551427677303,None,573.3551427677303,None,573.3551427677303,None,573.3551427677303,None,573.3551427677303,None,3,2.3344973322837177,573.3551427677303,None,575.7227204744995,None,575.7227204744995,None,575.7227204744995,None,575.7227204744995,None,575.7227204744995,None,575.7227204744995,None,575.7227204744995,None,579.7242759218279,None,579.7242759218279,None,579.7242759218279,None,579.7242759218279,None,579.7242759218279,None,579.7242759218279,None,579.7242759218279,None,589.2112960482482,None,580.7080270809747,None,581.7083838643066,None,0.53,7.502791549579342,584.7095246110093,None,None,584.7095246110093,None,,,,,,,,,,,,,,,,,,,23777,2019_Nov_15_1104,Mmi_3levels,3.1.5,59.96760940909425,
,,,2,0,13.7,,,,,,,,,0,1,1,1,0,12,12,9,,,,,,,,,,,,,,,,,,,,,,,,,,,,,,,,,,,,,,,,,,,,,,,,,,,,,,,,,,,,,False,True,True,0.53,0.53,7.380000000000001,-14.8,13.7,-1.1000000000000014,-0.5500000000000007,gamble,lose,-1.1000000000000014,125.76541666666668,591.2287262739083,None,591.2287262739083,None,591.2287262739083,None,591.2287262739083,None,591.2287262739083,None,591.2287262739083,None,591.2287262739083,None,1,1.484169059620399,591.2287262739083,None,592.7459949071181,None,592.7459949071181,None,592.7459949071181,None,592.7459949071181,None,592.7459949071181,None,592.7459949071181,None,592.7459949071181,None,596.7475436347613,None,596.7475436347613,None,596.7475436347613,None,596.7475436347613,None,596.7475436347613,None,596.7475436347613,None,596.7475436347613,None,597.7312669552084,None,,,,,,,,,,,,,,,,,,,,,,,,,,,,,,23777,2019_Nov_15_1104,Mmi_3levels,3.1.5,59.96760940909425,
,,,2,0,11.3,,,,,,,,,0,1,1,1,0,13,13,7,,,,,,,,,,,,,,,,,,,,,,,,,,,,,,,,,,,,,,,,,,,,,,,,,,,,,,,,,,,,,False,True,False,0.53,0.53,7.910000000000001,-15.330000000000002,11.3,-4.030000000000001,-2.0150000000000006,gamble,lose,-4.030000000000001,121.73541666666668,599.7487087003301,None,599.7487087003301,None,599.7487087003301,None,599.7487087003301,None,599.7487087003301,None,599.7487087003301,None,599.7487087003301,None,1,2.3178206714183034,599.7487087003301,None,602.0996238255739,None,602.0996238255739,None,602.0996238255739,None,602.0996238255739,None,602.0996238255739,None,602.0996238255739,None,602.0996238255739,None,606.1011690333835,None,606.1011690333835,None,606.1011690333835,None,606.1011690333835,None,606.1011690333835,None,606.1011690333835,None,606.1011690333835,None,615.5881840400416,None,607.0848881940237,None,608.0852667363379,None,0.52,7.5028376274258335,611.0864250822196,None,None,611.0864250822196,None,,,,,,,,,,,,,,,,,,,23777,2019_Nov_15_1104,Mmi_3levels,3.1.5,59.96760940909425,
,,,2,0,6.7,,,,,,,,,0,1,1,1,0,14,14,14,,,,,,,,,,,,,,,,,,,,,,,,,,,,,,,,,,,,,,,,,,,,,,,,,,,,,,,,,,,,,False,False,True,0.52,0.52,8.430000000000001,2.5225,1.675,-0.8474999999999999,0.41375000000000006,gamble,win,1.675,123.41041666666668,617.6056369846392,None,617.6056369846392,None,617.6056369846392,None,617.6056369846392,None,617.6056369846392,None,617.6056369846392,None,617.6056369846392,None,1,2.167591210140017,617.6056369846392,None,619.8064829611158,None,619.8064829611158,None,619.8064829611158,None,619.8064829611158,None,619.8064829611158,None,619.8064829611158,None,619.8064829611158,None,623.8080422482653,None,623.8080422482653,None,623.8080422482653,None,623.8080422482653,None,623.8080422482653,None,623.8080422482653,None,623.8080422482653,None,624.7917569291167,None,,,,,,,,,,,,,,,,,,,,,,,,,,,,,,23777,2019_Nov_15_1104,Mmi_3levels,3.1.5,59.96760940909425,
,,,2,0,-1.1,,,,,,,,,0,1,1,1,0,15,15,15,,,,,,,,,,,,,,,,,,,,,,,,,,,,,,,,,,,,,,,,,,,,,,,,,,,,,,,,,,,,,False,False,False,0.52,0.52,8.950000000000001,2.5658333333333334,-0.275,-2.8408333333333333,-1.5579166666666666,gamble,win,-0.275,123.13541666666667,626.8092073138341,None,626.8092073138341,None,626.8092073138341,None,626.8092073138341,None,626.8092073138341,None,626.8092073138341,None,626.8092073138341,None,1,2.8013456011321978,626.8092073138341,None,629.6436432089886,None,629.6436432089886,None,629.6436432089886,None,629.6436432089886,None,629.6436432089886,None,629.6436432089886,None,629.6436432089886,None,633.6451900167231,None,633.6451900167231,None,633.6451900167231,None,633.6451900167231,None,633.6451900167231,None,633.6451900167231,None,633.6451900167231,None,643.1322015035457,None,634.6288906182308,None,635.6292451616664,None,0.56,7.502900024510382,638.6304412657846,None,None,638.6304412657846,None,,,,,,,,,,,,,,,,,,,23777,2019_Nov_15_1104,Mmi_3levels,3.1.5,59.96760940909425,
,,,2,0,8.1,,,,,,,,,0,1,1,1,0,16,16,17,,,,,,,,,,,,,,,,,,,,,,,,,,,,,,,,,,,,,,,,,,,,,,,,,,,,,,,,,,,,,False,True,False,0.56,0.56,9.510000000000002,-17.35,8.1,-9.250000000000002,-0.5750000000000011,certain,certain,-0.5750000000000011,122.56041666666667,645.1496256494902,None,645.1496256494902,None,645.1496256494902,None,645.1496256494902,None,645.1496256494902,None,645.1496256494902,None,645.1496256494902,None,3,2.6679115151746373,645.1496256494902,None,647.8506972154264,None,647.8506972154264,None,647.8506972154264,None,647.8506972154264,None,647.8506972154264,None,647.8506972154264,None,647.8506972154264,None,651.8522513828157,None,651.8522513828157,None,651.8522513828157,None,651.8522513828157,None,651.8522513828157,None,651.8522513828157,None,651.8522513828157,None,652.8359654236956,None,,,,,,,,,,,,,,,,,,,,,,,,,,,,,,23777,2019_Nov_15_1104,Mmi_3levels,3.1.5,59.96760940909425,
,,,2,0,11.7,,,,,,,,,0,1,1,1,0,17,17,23,,,,,,,,,,,,,,,,,,,,,,,,,,,,,,,,,,,,,,,,,,,,,,,,,,,,,,,,,,,,,False,True,False,0.56,0.56,10.070000000000002,-17.910000000000004,11.7,-6.210000000000004,-3.105000000000002,gamble,lose,-6.210000000000004,116.35041666666666,654.8534209281734,None,654.8534209281734,None,654.8534209281734,None,654.8534209281734,None,654.8534209281734,None,654.8534209281734,None,654.8534209281734,None,1,2.4011809368275863,654.8534209281734,None,657.2877350370181,None,657.2877350370181,None,657.2877350370181,None,657.2877350370181,None,657.2877350370181,None,657.2877350370181,None,657.2877350370181,None,661.2892504862175,None,661.2892504862175,None,661.2892504862175,None,661.2892504862175,None,661.2892504862175,None,661.2892504862175,None,661.2892504862175,None,662.2729558875017,None,,,,,,,,,,,,,,,,,,,,,,,,,,,,,,23777,2019_Nov_15_1104,Mmi_3levels,3.1.5,59.96760940909425,
,,,2,0,8.9,,,,,,,,,0,1,1,1,0,18,18,13,,,,,,,,,,,,,,,,,,,,,,,,,,,,,,,,,,,,,,,,,,,,,,,,,,,,,,,,,,,,,False,True,False,0.56,0.56,10.630000000000003,-18.470000000000002,8.9,-9.570000000000002,-0.33500000000000085,gamble,lose,-9.570000000000002,106.78041666666665,664.2904142718453,None,664.2904142718453,None,664.2904142718453,None,664.2904142718453,None,664.2904142718453,None,664.2904142718453,None,664.2904142718453,None,1,1.967727267781811,664.2904142718453,None,666.2912244739928,None,666.2912244739928,None,666.2912244739928,None,666.2912244739928,None,666.2912244739928,None,666.2912244739928,None,666.2912244739928,None,670.29273480343,None,670.29273480343,None,670.29273480343,None,670.29273480343,None,670.29273480343,None,670.29273480343,None,670.29273480343,None,679.7796973325403,None,671.2764549240255,None,672.2768491456081,None,0.53,7.502793149504214,675.2779966119979,None,None,675.2779966119979,None,,,,,,,,,,,,,,,,,,,23777,2019_Nov_15_1104,Mmi_3levels,3.1.5,59.96760940909425,
,,,2,0,12.3,,,,,,,,,0,1,1,1,0,19,19,11,,,,,,,,,,,,,,,,,,,,,,,,,,,,,,,,,,,,,,,,,,,,,,,,,,,,,,,,,,,,,False,True,False,0.53,0.53,11.160000000000002,-18.580000000000002,12.3,-6.280000000000001,-3.1400000000000006,gamble,lose,-6.280000000000001,100.50041666666665,681.7971976349272,None,681.7971976349272,None,681.7971976349272,None,681.7971976349272,None,681.7971976349272,None,681.7971976349272,None,681.7971976349272,None,1,1.8676513033296942,681.7971976349272,None,683.6979401922345,None,683.6979401922345,None,683.6979401922345,None,683.6979401922345,None,683.6979401922345,None,683.6979401922345,None,683.6979401922345,None,687.6995289180086,None,687.6995289180086,None,687.6995289180086,None,687.6995289180086,None,687.6995289180086,None,687.6995289180086,None,687.6995289180086,None,688.6831991209365,None,,,,,,,,,,,,,,,,,,,,,,,,,,,,,,23777,2019_Nov_15_1104,Mmi_3levels,3.1.5,59.96760940909425,
,,,2,0,3.3,,,,,,,,,0,1,1,1,0,20,20,20,,,,,,,,,,,,,,,,,,,,,,,,,,,,,,,,,,,,,,,,,,,,,,,,,,,,,,,,,,,,,False,False,False,0.53,0.53,11.690000000000001,2.8291666666666666,0.825,-2.0041666666666664,-0.5895833333333332,gamble,win,0.825,101.32541666666665,690.7006527055055,None,690.7006527055055,None,690.7006527055055,None,690.7006527055055,None,690.7006527055055,None,690.7006527055055,None,690.7006527055055,None,1,2.284307997129872,690.7006527055055,None,693.018220588734,None,693.018220588734,None,693.018220588734,None,693.018220588734,None,693.018220588734,None,693.018220588734,None,693.018220588734,None,697.019764196617,None,697.019764196617,None,697.019764196617,None,697.019764196617,None,697.019764196617,None,697.019764196617,None,697.019764196617,None,706.5067801632304,None,698.0034804773913,None,699.0038692592279,None,0.52,7.502955061940156,702.0049972065299,None,None,702.0049972065299,None,,,,,,,,,,,,,,,,,,,23777,2019_Nov_15_1104,Mmi_3levels,3.1.5,59.96760940909425,
,,,2,0,10.5,,,,,,,,,0,1,1,1,0,21,21,5,,,,,,,,,,,,,,,,,,,,,,,,,,,,,,,,,,,,,,,,,,,,,,,,,,,,,,,,,,,,,False,True,False,0.52,0.52,12.21,-19.490000000000002,10.5,-8.990000000000002,0.754999999999999,gamble,lose,-8.990000000000002,92.33541666666665,708.5242379076044,None,708.5242379076044,None,708.5242379076044,None,708.5242379076044,None,708.5242379076044,None,708.5242379076044,None,708.5242379076044,None,1,2.0676451596173138,708.5242379076044,None,710.6251032751752,None,710.6251032751752,None,710.6251032751752,None,710.6251032751752,None,710.6251032751752,None,710.6251032751752,None,710.6251032751752,None,714.6266027251204,None,714.6266027251204,None,714.6266027251204,None,714.6266027251204,None,714.6266027251204,None,714.6266027251204,None,714.6266027251204,None,715.6103132461649,None,,,,,,,,,,,,,,,,,,,,,,,,,,,,,,23777,2019_Nov_15_1104,Mmi_3levels,3.1.5,59.96760940909425,
,,,2,0,-0.7,,,,,,,,,0,1,1,1,0,22,22,6,,,,,,,,,,,,,,,,,,,,,,,,,,,,,,,,,,,,,,,,,,,,,,,,,,,,,,,,,,,,,False,True,False,0.52,0.52,12.73,-20.01,-0.7,-20.71,-10.705,certain,certain,-10.705,81.63041666666665,717.6277741903905,None,717.6277741903905,None,717.6277741903905,None,717.6277741903905,None,717.6277741903905,None,717.6277741903905,None,717.6277741903905,None,3,2.4343310680524155,717.6277741903905,None,720.0954457807729,None,720.0954457807729,None,720.0954457807729,None,720.0954457807729,None,720.0954457807729,None,720.0954457807729,None,720.0954457807729,None,724.0969410709131,None,724.0969410709131,None,724.0969410709131,None,724.0969410709131,None,724.0969410709131,None,724.0969410709131,None,724.0969410709131,None,733.5839499978556,None,725.080650951988,None,726.0810429336743,None,0.53,7.5028270679194975,729.0822003196008,None,None,729.0822003196008,None,,,,,,,,,,,,,,,,,,,23777,2019_Nov_15_1104,Mmi_3levels,3.1.5,59.96760940909425,
,,,2,0,4.7,,,,,,,,,0,1,1,1,0,23,23,1,,,,,,,,,,,,,,,,,,,,,,,,,,,,,,,,,,,,,,,,,,,,,,,,,,,,,,,,,,,,,False,True,True,0.53,0.53,13.26,-20.68,4.7,-15.98,-5.640000000000001,certain,certain,-5.640000000000001,75.99041666666665,735.6013997426035,None,735.6013997426035,None,735.6013997426035,None,735.6013997426035,None,735.6013997426035,None,735.6013997426035,None,735.6013997426035,None,3,2.084401176776737,735.6013997426035,None,737.7188979330876,None,737.7188979330876,None,737.7188979330876,None,737.7188979330876,None,737.7188979330876,None,737.7188979330876,None,737.7188979330876,None,741.720451780493,None,741.720451780493,None,741.720451780493,None,741.720451780493,None,741.720451780493,None,741.720451780493,None,741.720451780493,None,742.7041581417307,None,,,,,,,,,,,,,,,,,,,,,,,,,,,,,,23777,2019_Nov_15_1104,Mmi_3levels,3.1.5,59.96760940909425,
,,,2,0,7.9,,,,,,,,,0,1,1,1,0,24,24,16,,,,,,,,,,,,,,,,,,,,,,,,,,,,,,,,,,,,,,,,,,,,,,,,,,,,,,,,,,,,,False,False,True,0.53,0.53,13.79,3.0041666666666664,1.975,-1.0291666666666663,0.4729166666666669,gamble,win,1.975,77.96541666666664,744.721618126001,None,744.721618126001,None,744.721618126001,None,744.721618126001,None,744.721618126001,None,744.721618126001,None,744.721618126001,None,1,1.450886134600296,744.721618126001,None,746.2055087986282,None,746.2055087986282,None,746.2055087986282,None,746.2055087986282,None,746.2055087986282,None,746.2055087986282,None,746.2055087986282,None,750.1903904649571,None,750.1903904649571,None,750.1903904649571,None,750.1903904649571,None,750.1903904649571,None,750.1903904649571,None,750.1903904649571,None,751.1907814866881,None,,,,,,,,,,,,,,,,,,,,,,,,,,,,,,23777,2019_Nov_15_1104,Mmi_3levels,3.1.5,59.96760940909425,
,,,2,0,6.5,,,,,,,,,0,1,1,1,0,25,25,3,,,,,,,,,,,,,,,,,,,,,,,,,,,,,,,,,,,,,,,,,,,,,,,,,,,,,,,,,,,,,False,True,False,0.53,0.53,14.319999999999999,-21.74,6.5,-15.239999999999998,-4.369999999999999,certain,certain,-4.369999999999999,73.59541666666664,753.2082344312876,None,753.2082344312876,None,753.2082344312876,None,753.2082344312876,None,753.2082344312876,None,753.2082344312876,None,753.2082344312876,None,3,2.1511334190472553,753.2082344312876,None,755.3924072667323,None,755.3924072667323,None,755.3924072667323,None,755.3924072667323,None,755.3924072667323,None,755.3924072667323,None,755.3924072667323,None,759.3940039921326,None,759.3940039921326,None,759.3940039921326,None,759.3940039921326,None,759.3940039921326,None,759.3940039921326,None,759.3940039921326,None,768.8809806005866,None,760.3776847545687,None,761.3780693765984,None,0.55,7.502762110952972,764.3792158830347,None,None,764.3792158830347,None,,,,,,,,,,,,,,,,,,,23777,2019_Nov_15_1104,Mmi_3levels,3.1.5,59.96760940909425,
,,,2,0,1.3,,,,,,,,,0,1,1,1,0,26,26,4,,,,,,,,,,,,,,,,,,,,,,,,,,,,,,,,,,,,,,,,,,,,,,,,,,,,,,,,,,,,,False,False,True,0.55,0.55,14.87,3.1641666666666666,0.325,-2.8391666666666664,-1.257083333333333,certain,certain,-1.257083333333333,72.33833333333331,770.8984901825388,None,770.8984901825388,None,770.8984901825388,None,770.8984901825388,None,770.8984901825388,None,770.8984901825388,None,770.8984901825388,None,3,1.8342253449918644,770.8984901825388,None,772.7658109413132,None,772.7658109413132,None,772.7658109413132,None,772.7658109413132,None,772.7658109413132,None,772.7658109413132,None,772.7658109413132,None,776.7506970874329,None,776.7506970874329,None,776.7506970874329,None,776.7506970874329,None,776.7506970874329,None,776.7506970874329,None,776.7506970874329,None,777.7510916289993,None,,,,,,,,,,,,,,,,,,,,,,,,,,,,,,23777,2019_Nov_15_1104,Mmi_3levels,3.1.5,59.96760940909425,
,,,3,1,12.5,,,,,,,,,0,2,2,2,0,0,0,11,,,,,,,,,,,,,,,,,,,,,,,,,,,,,,,,,,,,,,,,,,,,,,,,,784.987222356971,None,0.53,7.502128860538505,787.9883784629583,None,None,,787.9883784629583,None,792.4901188616459,None,True,True,True,0.53,-0.47,-0.47,7.05,12.5,5.45,2.725,gamble,win,12.5,84.83833333333331,795.5246878065864,None,795.5246878065864,None,795.5246878065864,None,795.5246878065864,None,795.5246878065864,None,795.5246878065864,None,795.5246878065864,None,1,1.5508222655826103,795.5246878065864,None,797.1085939664899,None,797.1085939664899,None,797.1085939664899,None,797.1085939664899,None,797.1085939664899,None,797.1085939664899,None,797.1085939664899,None,801.0934650733125,None,801.0934650733125,None,801.0934650733125,None,801.0934650733125,None,801.0934650733125,None,801.0934650733125,None,801.0934650733125,None,810.5971183426318,None,802.0938103371809,None,803.0942762354134,None,0.61,7.502829627799656,806.0954000229103,None,None,806.0954000229103,None,779.7518973513561,None,4,5.218863054718895,779.7518973513561,None,,,,,,,,,,,,,23777,2019_Nov_15_1104,Mmi_3levels,3.1.5,59.96760940909425,
,,,3,1,6.7,,,,,,,,,0,2,2,2,0,1,1,13,,,,,,,,,,,,,,,,,,,,,,,,,,,,,,,,,,,,,,,,,,,,,,,,,,,,,,,,,,,,,True,True,False,0.61,-0.39,-0.86,6.32,6.7,0.3799999999999999,0.18999999999999995,gamble,win,6.7,91.53833333333331,812.6146125653013,None,812.6146125653013,None,812.6146125653013,None,812.6146125653013,None,812.6146125653013,None,812.6146125653013,None,812.6146125653013,None,1,1.734090183306762,812.6146125653013,None,814.3819639146459,None,814.3819639146459,None,814.3819639146459,None,814.3819639146459,None,814.3819639146459,None,814.3819639146459,None,814.3819639146459,None,818.3668820592702,None,818.3668820592702,None,818.3668820592702,None,818.3668820592702,None,818.3668820592702,None,818.3668820592702,None,818.3668820592702,None,819.3672481221674,None,,,,,,,,,,,,,,,,,,,,,,,,,,,,,,23777,2019_Nov_15_1104,Mmi_3levels,3.1.5,59.96760940909425,
,,,3,1,12.9,,,,,,,,,0,2,2,2,0,2,2,23,,,,,,,,,,,,,,,,,,,,,,,,,,,,,,,,,,,,,,,,,,,,,,,,,,,,,,,,,,,,,True,False,False,0.61,-0.39,-1.25,-1.4691666666666667,12.9,11.430833333333334,5.715416666666667,gamble,lose,11.430833333333334,102.96916666666665,821.3846745080064,None,821.3846745080064,None,821.3846745080064,None,821.3846745080064,None,821.3846745080064,None,821.3846745080064,None,821.3846745080064,None,1,1.4007956748246215,821.3846745080064,None,822.8185710363614,None,822.8185710363614,None,822.8185710363614,None,822.8185710363614,None,822.8185710363614,None,822.8185710363614,None,822.8185710363614,None,826.8034440630927,None,826.8034440630927,None,826.8034440630927,None,826.8034440630927,None,826.8034440630927,None,826.8034440630927,None,826.8034440630927,None,827.8038418045107,None,,,,,,,,,,,,,,,,,,,,,,,,,,,,,,23777,2019_Nov_15_1104,Mmi_3levels,3.1.5,59.96760940909425,
,,,3,1,-1.3,,,,,,,,,0,2,2,2,0,3,3,19,,,,,,,,,,,,,,,,,,,,,,,,,,,,,,,,,,,,,,,,,,,,,,,,,,,,,,,,,,,,,True,True,False,0.61,-0.39,-1.6400000000000001,7.1,-1.3,-8.4,-4.8500000000000005,gamble,win,-1.3,101.66916666666665,829.8212832296467,None,829.8212832296467,None,829.8212832296467,None,829.8212832296467,None,829.8212832296467,None,829.8212832296467,None,829.8212832296467,None,1,2.084354138974959,829.8212832296467,None,831.938775660401,None,831.938775660401,None,831.938775660401,None,831.938775660401,None,831.938775660401,None,831.938775660401,None,831.938775660401,None,835.9403291878207,None,835.9403291878207,None,835.9403291878207,None,835.9403291878207,None,835.9403291878207,None,835.9403291878207,None,835.9403291878207,None,845.4273403546576,None,836.9240365090136,None,837.9244361703422,None,0.66,7.502959221745186,840.9256162752081,None,None,840.9256162752081,None,,,,,,,,,,,,,,,,,,,23777,2019_Nov_15_1104,Mmi_3levels,3.1.5,59.96760940909425,
,,,3,1,7.9,,,,,,,,,0,2,2,2,0,4,4,8,,,,,,,,,,,,,,,,,,,,,,,,,,,,,,,,,,,,,,,,,,,,,,,,,,,,,,,,,,,,,True,False,True,0.66,-0.33999999999999997,-1.98,-1.355,7.9,6.545,3.2725,gamble,lose,6.545,108.21416666666666,847.444787859511,None,847.444787859511,None,847.444787859511,None,847.444787859511,None,847.444787859511,None,847.444787859511,None,847.444787859511,None,1,1.1673809799613082,847.444787859511,None,848.6452620133587,None,848.6452620133587,None,848.6452620133587,None,848.6452620133587,None,848.6452620133587,None,848.6452620133587,None,848.6452620133587,None,852.630090882154,None,852.630090882154,None,852.630090882154,None,852.630090882154,None,852.630090882154,None,852.630090882154,None,852.630090882154,None,853.6305174222252,None,,,,,,,,,,,,,,,,,,,,,,,,,,,,,,23777,2019_Nov_15_1104,Mmi_3levels,3.1.5,59.96760940909425,
,,,3,1,11.1,,,,,,,,,0,2,2,2,0,5,5,9,,,,,,,,,,,,,,,,,,,,,,,,,,,,,,,,,,,,,,,,,,,,,,,,,,,,,,,,,,,,,True,True,True,0.66,-0.33999999999999997,-2.32,7.08,11.1,4.02,2.01,gamble,win,11.1,119.31416666666665,855.6479770865099,None,855.6479770865099,None,855.6479770865099,None,855.6479770865099,None,855.6479770865099,None,855.6479770865099,None,855.6479770865099,None,1,1.2005298312469677,855.6479770865099,None,856.8817808831973,None,856.8817808831973,None,856.8817808831973,None,856.8817808831973,None,856.8817808831973,None,856.8817808831973,None,856.8817808831973,None,860.883338570422,None,860.883338570422,None,860.883338570422,None,860.883338570422,None,860.883338570422,None,860.883338570422,None,860.883338570422,None,870.3703951751377,None,861.8670820499265,None,862.8674369133478,None,0.63,7.502857466499336,865.8685872596034,None,None,865.8685872596034,None,,,,,,,,,,,,,,,,,,,23777,2019_Nov_15_1104,Mmi_3levels,3.1.5,59.96760940909425,
,,,3,1,3.3,,,,,,,,,0,2,2,2,0,6,6,0,,,,,,,,,,,,,,,,,,,,,,,,,,,,,,,,,,,,,,,,,,,,,,,,,,,,,,,,,,,,,True,True,True,0.63,-0.37,-2.69,7.869999999999999,3.3,-4.569999999999999,-0.6349999999999998,gamble,win,3.3,122.61416666666665,872.3877988420372,None,872.3877988420372,None,872.3877988420372,None,872.3877988420372,None,872.3877988420372,None,872.3877988420372,None,872.3877988420372,None,1,1.9675083980091586,872.3877988420372,None,874.3885815254707,None,874.3885815254707,None,874.3885815254707,None,874.3885815254707,None,874.3885815254707,None,874.3885815254707,None,874.3885815254707,None,878.3901264132946,None,878.3901264132946,None,878.3901264132946,None,878.3901264132946,None,878.3901264132946,None,878.3901264132946,None,878.3901264132946,None,879.3738401341889,None,,,,,,,,,,,,,,,,,,,,,,,,,,,,,,23777,2019_Nov_15_1104,Mmi_3levels,3.1.5,59.96760940909425,
,,,3,1,9.9,,,,,,,,,0,2,2,2,0,7,7,17,,,,,,,,,,,,,,,,,,,,,,,,,,,,,,,,,,,,,,,,,,,,,,,,,,,,,,,,,,,,,True,False,False,0.63,-0.37,-3.06,-1.5499999999999998,9.9,8.350000000000001,4.175000000000001,gamble,lose,8.350000000000001,130.96416666666664,881.3913330769192,None,881.3913330769192,None,881.3913330769192,None,881.3913330769192,None,881.3913330769192,None,881.3913330769192,None,881.3913330769192,None,1,1.0673450136400788,881.3913330769192,None,882.4917200668388,None,882.4917200668388,None,882.4917200668388,None,882.4917200668388,None,882.4917200668388,None,882.4917200668388,None,882.4917200668388,None,886.4765908536756,None,886.4765908536756,None,886.4765908536756,None,886.4765908536756,None,886.4765908536756,None,886.4765908536756,None,886.4765908536756,None,895.9802806012904,None,887.4769345176192,None,888.4773194596346,None,0.63,7.502876025631849,891.4785251633039,None,None,891.4785251633039,None,,,,,,,,,,,,,,,,,,,23777,2019_Nov_15_1104,Mmi_3levels,3.1.5,59.96760940909425,
,,,3,1,7.5,,,,,,,,,0,2,2,2,0,8,8,12,,,,,,,,,,,,,,,,,,,,,,,,,,,,,,,,,,,,,,,,,,,,,,,,,,,,,,,,,,,,,True,False,True,0.63,-0.37,-3.43,-1.5808333333333333,7.5,5.9191666666666665,2.9595833333333332,gamble,lose,5.9191666666666665,136.8833333333333,897.99773610577,None,897.99773610577,None,897.99773610577,None,897.99773610577,None,897.99773610577,None,897.99773610577,None,897.99773610577,None,1,1.0339936118180049,897.99773610577,None,899.0648353708912,None,899.0648353708912,None,899.0648353708912,None,899.0648353708912,None,899.0648353708912,None,899.0648353708912,None,899.0648353708912,None,903.0496792789836,None,903.0496792789836,None,903.0496792789836,None,903.0496792789836,None,903.0496792789836,None,903.0496792789836,None,903.0496792789836,None,904.0500840600725,None,,,,,,,,,,,,,,,,,,,,,,,,,,,,,,23777,2019_Nov_15_1104,Mmi_3levels,3.1.5,59.96760940909425,
,,,3,1,4.5,,,,,,,,,0,2,2,2,0,9,9,22,,,,,,,,,,,,,,,,,,,,,,,,,,,,,,,,,,,,,,,,,,,,,,,,,,,,,,,,,,,,,True,True,True,0.63,-0.37,-3.8000000000000003,8.98,4.5,-4.48,0.009999999999999787,certain,certain,0.009999999999999787,136.8933333333333,906.067530284985,None,906.067530284985,None,906.067530284985,None,906.067530284985,None,906.067530284985,None,906.067530284985,None,906.067530284985,None,3,2.7013141146053385,906.067530284985,None,908.8019257340293,None,908.8019257340293,None,908.8019257340293,None,908.8019257340293,None,908.8019257340293,None,908.8019257340293,None,908.8019257340293,None,912.803466782032,None,912.803466782032,None,912.803466782032,None,912.803466782032,None,912.803466782032,None,912.803466782032,None,912.803466782032,None,913.7872294606386,None,,,,,,,,,,,,,,,,,,,,,,,,,,,,,,23777,2019_Nov_15_1104,Mmi_3levels,3.1.5,59.96760940909425,
,,,3,1,9.1,,,,,,,,,0,2,2,2,0,10,10,5,,,,,,,,,,,,,,,,,,,,,,,,,,,,,,,,,,,,,,,,,,,,,,,,,,,,,,,,,,,,,True,False,False,0.63,-0.37,-4.17,-1.6424999999999998,9.1,7.4575,3.72875,gamble,lose,7.4575,144.3508333333333,915.8046616062093,None,915.8046616062093,None,915.8046616062093,None,915.8046616062093,None,915.8046616062093,None,915.8046616062093,None,915.8046616062093,None,1,1.1173231586617476,915.8046616062093,None,916.9550872183245,None,916.9550872183245,None,916.9550872183245,None,916.9550872183245,None,916.9550872183245,None,916.9550872183245,None,916.9550872183245,None,920.9399618449825,None,920.9399618449825,None,920.9399618449825,None,920.9399618449825,None,920.9399618449825,None,920.9399618449825,None,920.9399618449825,None,930.4436480727618,None,921.9403503068334,None,922.9407358888184,None,0.65,7.502735872179983,925.9418913548361,None,None,925.9418913548361,None,,,,,,,,,,,,,,,,,,,23777,2019_Nov_15_1104,Mmi_3levels,3.1.5,59.96760940909425,
,,,3,1,1.9,,,,,,,,,0,2,2,2,0,11,11,25,,,,,,,,,,,,,,,,,,,,,,,,,,,,,,,,,,,,,,,,,,,,,,,,,,,,,,,,,,,,,True,True,False,0.65,-0.35,-4.52,9.419999999999998,1.9,-7.519999999999998,-2.8099999999999987,gamble,win,1.9,146.2508333333333,932.4610949376438,None,932.4610949376438,None,932.4610949376438,None,932.4610949376438,None,932.4610949376438,None,932.4610949376438,None,932.4610949376438,None,1,2.451206439634916,932.4610949376438,None,934.9453951911364,None,934.9453951911364,None,934.9453951911364,None,934.9453951911364,None,934.9453951911364,None,934.9453951911364,None,934.9453951911364,None,938.9469448787349,None,938.9469448787349,None,938.9469448787349,None,938.9469448787349,None,938.9469448787349,None,938.9469448787349,None,938.9469448787349,None,939.930658599631,None,,,,,,,,,,,,,,,,,,,,,,,,,,,,,,23777,2019_Nov_15_1104,Mmi_3levels,3.1.5,59.96760940909425,
,,,3,1,10.3,,,,,,,,,0,2,2,2,0,12,12,4,,,,,,,,,,,,,,,,,,,,,,,,,,,,,,,,,,,,,,,,,,,,,,,,,,,,,,,,,,,,,True,False,False,0.65,-0.35,-4.869999999999999,-1.6308333333333331,10.3,8.669166666666667,4.334583333333334,gamble,lose,8.669166666666667,154.91999999999996,941.9481192238691,None,941.9481192238691,None,941.9481192238691,None,941.9481192238691,None,941.9481192238691,None,941.9481192238691,None,941.9481192238691,None,1,1.067333814164158,941.9481192238691,None,943.0485414121449,None,943.0485414121449,None,943.0485414121449,None,943.0485414121449,None,943.0485414121449,None,943.0485414121449,None,943.0485414121449,None,947.0500898198043,None,947.0500898198043,None,947.0500898198043,None,947.0500898198043,None,947.0500898198043,None,947.0500898198043,None,947.0500898198043,None,956.5371448245933,None,948.0338093004302,None,949.0342028820414,None,0.64,7.502833787604686,952.035342348805,None,None,952.035342348805,None,,,,,,,,,,,,,,,,,,,23777,2019_Nov_15_1104,Mmi_3levels,3.1.5,59.96760940909425,
,,,3,1,4.9,,,,,,,,,0,2,2,2,0,13,13,7,,,,,,,,,,,,,,,,,,,,,,,,,,,,,,,,,,,,,,,,,,,,,,,,,,,,,,,,,,,,,True,True,False,0.64,-0.36,-5.2299999999999995,10.27,4.9,-5.369999999999999,-0.23499999999999943,gamble,win,4.9,159.81999999999996,958.5545952093125,None,958.5545952093125,None,958.5545952093125,None,958.5545952093125,None,958.5545952093125,None,958.5545952093125,None,958.5545952093125,None,1,1.9343013094421622,958.5545952093125,None,960.5219807330595,None,960.5219807330595,None,960.5219807330595,None,960.5219807330595,None,960.5219807330595,None,960.5219807330595,None,960.5219807330595,None,964.5235342604792,None,964.5235342604792,None,964.5235342604792,None,964.5235342604792,None,964.5235342604792,None,964.5235342604792,None,964.5235342604792,None,965.5072559809996,None,,,,,,,,,,,,,,,,,,,,,,,,,,,,,,23777,2019_Nov_15_1104,Mmi_3levels,3.1.5,59.96760940909425,
,,,3,1,-1.1,,,,,,,,,0,2,2,2,0,14,14,1,,,,,,,,,,,,,,,,,,,,,,,,,,,,,,,,,,,,,,,,,,,,,,,,,,,,,,,,,,,,,True,True,True,0.64,-0.36,-5.59,10.629999999999999,-1.1,-11.729999999999999,-6.414999999999999,gamble,win,-1.1,158.71999999999997,967.524736444313,None,967.524736444313,None,967.524736444313,None,967.524736444313,None,967.524736444313,None,967.524736444313,None,967.524736444313,None,1,2.117751618645343,967.524736444313,None,969.6755540381146,None,969.6755540381146,None,969.6755540381146,None,969.6755540381146,None,969.6755540381146,None,969.6755540381146,None,969.6755540381146,None,973.6770944461477,None,973.6770944461477,None,973.6770944461477,None,973.6770944461477,None,973.6770944461477,None,973.6770944461477,None,973.6770944461477,None,974.6607918478039,None,,,,,,,,,,,,,,,,,,,,,,,,,,,,,,23777,2019_Nov_15_1104,Mmi_3levels,3.1.5,59.96760940909425,
,,,3,1,2.1,,,,,,,,,0,2,2,2,0,15,15,21,,,,,,,,,,,,,,,,,,,,,,,,,,,,,,,,,,,,,,,,,,,,,,,,,,,,,,,,,,,,,True,False,False,0.64,-0.36,-5.95,-1.7558333333333334,2.1,0.34416666666666673,1.2220833333333334,certain,certain,1.2220833333333334,159.9420833333333,976.6782537519848,None,976.6782537519848,None,976.6782537519848,None,976.6782537519848,None,976.6782537519848,None,976.6782537519848,None,976.6782537519848,None,3,1.567517805568059,976.6782537519848,None,978.2622040698261,None,978.2622040698261,None,978.2622040698261,None,978.2622040698261,None,978.2622040698261,None,978.2622040698261,None,978.2622040698261,None,982.2637524774836,None,982.2637524774836,None,982.2637524774836,None,982.2637524774836,None,982.2637524774836,None,982.2637524774836,None,982.2637524774836,None,991.767438705263,None,983.2641380594705,None,984.2645230014859,None,0.63,7.502847546962585,987.2656832672783,None,None,987.2656832672783,None,,,,,,,,,,,,,,,,,,,23777,2019_Nov_15_1104,Mmi_3levels,3.1.5,59.96760940909425,
,,,3,1,9.7,,,,,,,,,0,2,2,2,0,16,16,15,,,,,,,,,,,,,,,,,,,,,,,,,,,,,,,,,,,,,,,,,,,,,,,,,,,,,,,,,,,,,True,False,True,0.63,-0.37,-6.32,-1.8216666666666668,9.7,7.878333333333332,3.939166666666666,gamble,lose,7.878333333333332,167.82041666666663,993.7848871700717,None,993.7848871700717,None,993.7848871700717,None,993.7848871700717,None,993.7848871700717,None,993.7848871700717,None,993.7848871700717,None,1,1.267420146130462,993.7848871700717,None,995.0853947303585,None,995.0853947303585,None,995.0853947303585,None,995.0853947303585,None,995.0853947303585,None,995.0853947303585,None,995.0853947303585,None,999.0702747967607,None,999.0702747967607,None,999.0702747967607,None,999.0702747967607,None,999.0702747967607,None,999.0702747967607,None,999.0702747967607,None,1000.0706523791214,None,,,,,,,,,,,,,,,,,,,,,,,,,,,,,,23777,2019_Nov_15_1104,Mmi_3levels,3.1.5,59.96760940909425,
,,,3,1,6.5,,,,,,,,,0,2,2,2,0,17,17,18,,,,,,,,,,,,,,,,,,,,,,,,,,,,,,,,,,,,,,,,,,,,,,,,,,,,,,,,,,,,,True,True,True,0.63,-0.37,-6.69,11.870000000000001,6.5,-5.370000000000001,0.5649999999999995,gamble,win,6.5,174.32041666666663,1002.0881619610736,None,1002.0881619610736,None,1002.0881619610736,None,1002.0881619610736,None,1002.0881619610736,None,1002.0881619610736,None,1002.0881619610736,None,1,1.6675172935920273,1002.0881619610736,None,1003.7887653888811,None,1003.7887653888811,None,1003.7887653888811,None,1003.7887653888811,None,1003.7887653888811,None,1003.7887653888811,None,1003.7887653888811,None,1007.7903614743118,None,1007.7903614743118,None,1007.7903614743118,None,1007.7903614743118,None,1007.7903614743118,None,1007.7903614743118,None,1007.7903614743118,None,1017.2773320030483,None,1008.7740179178836,None,1009.7744242988974,None,0.63,7.502789949652652,1012.7755775250171,None,None,1012.7755775250171,None,,,,,,,,,,,,,,,,,,,23777,2019_Nov_15_1104,Mmi_3levels,3.1.5,59.96760940909425,
,,,3,1,5.9,,,,,,,,,0,2,2,2,0,18,18,6,,,,,,,,,,,,,,,,,,,,,,,,,,,,,,,,,,,,,,,,,,,,,,,,,,,,,,,,,,,,,True,True,False,0.63,-0.37,-7.0600000000000005,12.24,5.9,-6.34,-0.21999999999999975,gamble,win,5.9,180.22041666666664,1019.2947862275869,None,1019.2947862275869,None,1019.2947862275869,None,1019.2947862275869,None,1019.2947862275869,None,1019.2947862275869,None,1019.2947862275869,None,1,1.2840680083427287,1019.2947862275869,None,1020.6119733286068,None,1020.6119733286068,None,1020.6119733286068,None,1020.6119733286068,None,1020.6119733286068,None,1020.6119733286068,None,1020.6119733286068,None,1024.6135079769065,None,1024.6135079769065,None,1024.6135079769065,None,1024.6135079769065,None,1024.6135079769065,None,1024.6135079769065,None,1024.6135079769065,None,1025.597223937697,None,,,,,,,,,,,,,,,,,,,,,,,,,,,,,,23777,2019_Nov_15_1104,Mmi_3levels,3.1.5,59.96760940909425,
,,,3,1,11.5,,,,,,,,,0,2,2,2,0,19,19,24,,,,,,,,,,,,,,,,,,,,,,,,,,,,,,,,,,,,,,,,,,,,,,,,,,,,,,,,,,,,,True,True,True,0.63,-0.37,-7.430000000000001,12.61,11.5,-1.1099999999999994,-0.5549999999999997,gamble,win,11.5,191.72041666666664,1027.6147248800535,None,1027.6147248800535,None,1027.6147248800535,None,1027.6147248800535,None,1027.6147248800535,None,1027.6147248800535,None,1027.6147248800535,None,1,1.984294813746601,1027.6147248800535,None,1029.6321797445617,None,1029.6321797445617,None,1029.6321797445617,None,1029.6321797445617,None,1029.6321797445617,None,1029.6321797445617,None,1029.6321797445617,None,1033.6170073334179,None,1033.6170073334179,None,1033.6170073334179,None,1033.6170073334179,None,1033.6170073334179,None,1033.6170073334179,None,1033.6170073334179,None,1043.1206922812562,None,1034.6173868356873,None,1035.617773057642,None,0.61,7.502842107216566,1038.618937483241,None,None,1038.618937483241,None,,,,,,,,,,,,,,,,,,,23777,2019_Nov_15_1104,Mmi_3levels,3.1.5,59.96760940909425,
,,,3,1,6.1,,,,,,,,,0,2,2,2,0,20,20,14,,,,,,,,,,,,,,,,,,,,,,,,,,,,,,,,,,,,,,,,,,,,,,,,,,,,,,,,,,,,,True,True,False,0.61,-0.39,-7.82,13.280000000000001,6.1,-7.1800000000000015,-0.5400000000000009,gamble,win,6.1,197.82041666666663,1045.1380943482327,None,1045.1380943482327,None,1045.1380943482327,None,1045.1380943482327,None,1045.1380943482327,None,1045.1380943482327,None,1045.1380943482327,None,1,1.550907701592223,1045.1380943482327,None,1046.7220917038758,None,1046.7220917038758,None,1046.7220917038758,None,1046.7220917038758,None,1046.7220917038758,None,1046.7220917038758,None,1046.7220917038758,None,1050.7236189925206,None,1050.7236189925206,None,1050.7236189925206,None,1050.7236189925206,None,1050.7236189925206,None,1050.7236189925206,None,1050.7236189925206,None,1051.7073471127424,None,,,,,,,,,,,,,,,,,,,,,,,,,,,,,,23777,2019_Nov_15_1104,Mmi_3levels,3.1.5,59.96760940909425,
,,,3,1,13.7,,,,,,,,,0,2,2,2,0,21,21,20,,,,,,,,,,,,,,,,,,,,,,,,,,,,,,,,,,,,,,,,,,,,,,,,,,,,,,,,,,,,,True,True,False,0.61,-0.39,-8.21,13.670000000000002,13.7,0.029999999999997584,0.014999999999998792,gamble,win,13.7,211.52041666666662,1053.7248330158018,None,1053.7248330158018,None,1053.7248330158018,None,1053.7248330158018,None,1053.7248330158018,None,1053.7248330158018,None,1053.7248330158018,None,1,0.9339266069491714,1053.7248330158018,None,1054.6918457569664,None,1054.6918457569664,None,1054.6918457569664,None,1054.6918457569664,None,1054.6918457569664,None,1054.6918457569664,None,1054.6918457569664,None,1058.6933954445649,None,1058.6933954445649,None,1058.6933954445649,None,1058.6933954445649,None,1058.6933954445649,None,1058.6933954445649,None,1058.6933954445649,None,1059.6771261246668,None,,,,,,,,,,,,,,,,,,,,,,,,,,,,,,23777,2019_Nov_15_1104,Mmi_3levels,3.1.5,59.96760940909425,
,,,3,1,5.1,,,,,,,,,0,2,2,2,0,22,22,26,,,,,,,,,,,,,,,,,,,,,,,,,,,,,,,,,,,,,,,,,,,,,,,,,,,,,,,,,,,,,True,True,False,0.61,-0.39,-8.600000000000001,14.060000000000002,5.1,-8.960000000000003,-1.9300000000000015,gamble,win,5.1,216.6204166666666,1061.6946088278746,None,1061.6946088278746,None,1061.6946088278746,None,1061.6946088278746,None,1061.6946088278746,None,1061.6946088278746,None,1061.6946088278746,None,1,1.1505952041934506,1061.6946088278746,None,1062.8783260046093,None,1062.8783260046093,None,1062.8783260046093,None,1062.8783260046093,None,1062.8783260046093,None,1062.8783260046093,None,1062.8783260046093,None,1066.8798788920576,None,1066.8798788920576,None,1066.8798788920576,None,1066.8798788920576,None,1066.8798788920576,None,1066.8798788920576,None,1066.8798788920576,None,1076.3669159776855,None,1067.8635673341341,None,1068.8640060336384,None,0.62,7.502844027127139,1071.8651579798188,None,None,1071.8651579798188,None,,,,,,,,,,,,,,,,,,,23777,2019_Nov_15_1104,Mmi_3levels,3.1.5,59.96760940909425,
,,,3,1,11.3,,,,,,,,,0,2,2,2,0,23,23,10,,,,,,,,,,,,,,,,,,,,,,,,,,,,,,,,,,,,,,,,,,,,,,,,,,,,,,,,,,,,,True,True,False,0.62,-0.38,-8.980000000000002,14.300000000000002,11.3,-3.0000000000000018,-1.5000000000000009,gamble,win,11.3,227.92041666666663,1078.384363482539,None,1078.384363482539,None,1078.384363482539,None,1078.384363482539,None,1078.384363482539,None,1078.384363482539,None,1078.384363482539,None,1,1.1173602769267745,1078.384363482539,None,1079.534811173622,None,1079.534811173622,None,1079.534811173622,None,1079.534811173622,None,1079.534811173622,None,1079.534811173622,None,1079.534811173622,None,1083.536369820802,None,1083.536369820802,None,1083.536369820802,None,1083.536369820802,None,1083.536369820802,None,1083.536369820802,None,1083.536369820802,None,1084.5200800218608,None,,,,,,,,,,,,,,,,,,,,,,,,,,,,,,23777,2019_Nov_15_1104,Mmi_3levels,3.1.5,59.96760940909425,
,,,3,1,4.3,,,,,,,,,0,2,2,2,0,24,24,2,,,,,,,,,,,,,,,,,,,,,,,,,,,,,,,,,,,,,,,,,,,,,,,,,,,,,,,,,,,,,True,True,False,0.62,-0.38,-9.360000000000003,14.680000000000003,4.3,-10.380000000000003,-3.0400000000000014,gamble,win,4.3,232.22041666666664,1086.537530726564,None,1086.537530726564,None,1086.537530726564,None,1086.537530726564,None,1086.537530726564,None,1086.537530726564,None,1086.537530726564,None,1,1.2007285419622349,1086.537530726564,None,1087.7713815610532,None,1087.7713815610532,None,1087.7713815610532,None,1087.7713815610532,None,1087.7713815610532,None,1087.7713815610532,None,1087.7713815610532,None,1091.7729174892957,None,1091.7729174892957,None,1091.7729174892957,None,1091.7729174892957,None,1091.7729174892957,None,1091.7729174892957,None,1091.7729174892957,None,1101.259908817059,None,1092.756604971415,None,1093.7569943932212,None,0.67,7.502852026753317,1096.758141539627,None,None,1096.758141539627,None,,,,,,,,,,,,,,,,,,,23777,2019_Nov_15_1104,Mmi_3levels,3.1.5,59.96760940909425,
,,,3,1,-0.9,,,,,,,,,0,2,2,2,0,25,25,3,,,,,,,,,,,,,,,,,,,,,,,,,,,,,,,,,,,,,,,,,,,,,,,,,,,,,,,,,,,,,True,False,False,0.67,-0.32999999999999996,-9.690000000000003,-1.9625,-0.9,-2.8625,-1.8812499999999999,gamble,lose,-2.8625,229.35791666666663,1103.2773601617337,None,1103.2773601617337,None,1103.2773601617337,None,1103.2773601617337,None,1103.2773601617337,None,1103.2773601617337,None,1103.2773601617337,None,1,2.267851805963801,1103.2773601617337,None,1105.5782904222706,None,1105.5782904222706,None,1105.5782904222706,None,1105.5782904222706,None,1105.5782904222706,None,1105.5782904222706,None,1105.5782904222706,None,1109.579800431724,None,1109.579800431724,None,1109.579800431724,None,1109.579800431724,None,1109.579800431724,None,1109.579800431724,None,1109.579800431724,None,1110.5635173524697,None,,,,,,,,,,,,,,,,,,,,,,,,,,,,,,23777,2019_Nov_15_1104,Mmi_3levels,3.1.5,59.96760940909425,
,,,3,1,-0.7,,,,,,,,,0,2,2,2,0,26,26,16,,,,,,,,,,,,,,,,,,,,,,,,,,,,,,,,,,,,,,,,,,,,,,,,,,,,,,,,,,,,,True,True,True,0.67,-0.32999999999999996,-10.020000000000003,14.640000000000002,-0.7,-15.340000000000002,-8.020000000000001,certain,certain,-8.020000000000001,221.33791666666662,1112.5809661372623,None,1112.5809661372623,None,1112.5809661372623,None,1112.5809661372623,None,1112.5809661372623,None,1112.5809661372623,None,1112.5809661372623,None,3,2.034377913863864,1112.5809661372623,None,1114.6484321052521,None,1114.6484321052521,None,1114.6484321052521,None,1114.6484321052521,None,1114.6484321052521,None,1114.6484321052521,None,1114.6484321052521,None,1118.6500227509368,None,1118.6500227509368,None,1118.6500227509368,None,1118.6500227509368,None,1118.6500227509368,None,1118.6500227509368,None,1118.6500227509368,None,1128.1369980794498,None,1119.6336983936108,None,1120.6340852555368,None,0.54,7.502813628547301,1123.635232081957,None,None,1123.635232081957,None,,,,,,,,,,,,,,,,,,,23777,2019_Nov_15_1104,Mmi_3levels,3.1.5,59.96760940909425,
,,,,,,,,,,,,,,,,,,,,,,,,,,,,,,0,0,0,0,,,,,,,,,,,,,,,,,,,,,,,,,,,,,,,,,,,,,,,,,,,,,,,,,,,,,,,,,,,,,,,,,,,,,,,,,,,,,,,,,,,,,,,,,,,,,,,,,,,,,,,,,,,,,,,,,,,,,,,,,,1130.1377871625846,None,4,5.785771928734903,1130.1377871625846,None,221.33791666666662,5,1135.9566967431274,None,1135.9566967431274,None,1135.9566967431274,None,4,7.56964058639096,1135.9566967431274,None,23777,2019_Nov_15_1104,Mmi_3levels,3.1.5,59.96760940909425,
