currSlide,currImage,currText,blockNum,targetHappiness,highAmount,instructionLoop1.thisRepN,instructionLoop1.thisTrialN,instructionLoop1.thisN,instructionLoop1.thisIndex,instructionLoop2.thisRepN,instructionLoop2.thisTrialN,instructionLoop2.thisN,instructionLoop2.thisIndex,blockLoop.thisRepN,blockLoop.thisTrialN,blockLoop.thisN,blockLoop.thisIndex,trialLoop.thisRepN,trialLoop.thisTrialN,trialLoop.thisN,trialLoop.thisIndex,doRatingLoop.thisRepN,doRatingLoop.thisTrialN,doRatingLoop.thisN,doRatingLoop.thisIndex,trialHappyLoop.thisRepN,trialHappyLoop.thisTrialN,trialHappyLoop.thisN,trialHappyLoop.thisIndex,logWinningsLoop.thisRepN,logWinningsLoop.thisTrialN,logWinningsLoop.thisN,logWinningsLoop.thisIndex,instrImage.started,instrImage.stopped,instrText.started,instrText.stopped,instrContinueText.started,instrContinueText.stopped,instrKeyResp.keys,instrKeyResp.rt,instrKeyResp.started,instrKeyResp.stopped,lifeHappyText.started,lifeHappyText.stopped,lifeHappySlider.response,lifeHappySlider.rt,lifeHappySlider.started,lifeHappySlider.stopped,lifeHappyResp.keys,lifeHappyResp.rt,lifeHappyResp.started,lifeHappyResp.stopped,instrImage_2.started,instrImage_2.stopped,instrText_2.started,instrText_2.stopped,instrContinueText_2.started,instrContinueText_2.stopped,instrKeyResp_2.keys,instrKeyResp_2.rt,instrKeyResp_2.started,instrKeyResp_2.stopped,localizing.started,localizing.stopped,start_exp.keys,start_exp.rt,start_exp.started,start_exp.stopped,blockHappyText.started,blockHappyText.stopped,blockHappySlider.response,blockHappySlider.rt,blockHappySlider.started,blockHappySlider.stopped,blockHappyResp.keys,blockHappyResp.started,blockHappyResp.stopped,blankText.started,blankText.stopped,isHappyBlock,isCongruent,isWinOnTop,lastHappyRating,diff,sumDiff,RPE,winAmount,loseAmount,certainAmount,choice,outcome,outcomeAmount,currentWinnings,fixCross.started,fixCross.stopped,certainBox.started,certainBox.stopped,outcome1Box.started,outcome1Box.stopped,outcome2Box.started,outcome2Box.stopped,certainText.started,certainText.stopped,outcome1Text.started,outcome1Text.stopped,outcome2Text.started,outcome2Text.stopped,choiceKey.keys,choiceKey.rt,choiceKey.started,choiceKey.stopped,fixCross_2.started,fixCross_2.stopped,certainBox_2.started,certainBox_2.stopped,outcome1Box_2.started,outcome1Box_2.stopped,outcome2Box_2.started,outcome2Box_2.stopped,certainText_2.started,certainText_2.stopped,outcome1Text_2.started,outcome1Text_2.stopped,outcome2Text_2.started,outcome2Text_2.stopped,fixCross_3.started,fixCross_3.stopped,certainBox_3.started,certainBox_3.stopped,outcome1Box_3.started,outcome1Box_3.stopped,outcome2Box_3.started,outcome2Box_3.stopped,certainText_3.started,certainText_3.stopped,outcome1Text_3.started,outcome1Text_3.stopped,outcome2Text_3.started,outcome2Text_3.stopped,fixCross_ITI.started,fixCross_ITI.stopped,fixCross_ISI.started,fixCross_ISI.stopped,happyText.started,happyText.stopped,happySlider.response,happySlider.rt,happySlider.started,happySlider.stopped,happyResp.keys,happyResp.started,happyResp.stopped,endOfBlockText.started,endOfBlockText.stopped,restKeyResp.keys,restKeyResp.rt,restKeyResp.started,restKeyResp.stopped,blockHappyResp.rt,finalWinnings,cashBonus,goodbyeText.started,goodbyeText.stopped,finalWinningsText.started,finalWinningsText.stopped,spaceToContinue.started,spaceToContinue.stopped,goodbyeKeyResp_2.keys,goodbyeKeyResp_2.rt,goodbyeKeyResp_2.started,goodbyeKeyResp_2.stopped,participant,date,expName,psychopyVersion,frameRate,
1,black.png,"Welcome! You are about to play our gambling task.
This task has 3 blocks and takes about 15 minutes.",,,,0,0,0,0,,,,,,,,,,,,,,,,,,,,,,,,,13.776612506344463,None,13.776612506344463,None,13.776612506344463,None,4,3.0860242303915584,13.776612506344463,None,,,,,,,,,,,,,,,,,,,,,,,,,,,,,,,,,,,,,,,,,,,,,,,,,,,,,,,,,,,,,,,,,,,,,,,,,,,,,,,,,,,,,,,,,,,,,,,,,,,,,,,,,,,,,,,,,,,,,,,,,,,,,,,,,,24252,2019_Dec_11_1635,Mmi_3levels,3.1.5,59.97294164579859,
2,black.png,"In this game, you may win or lose points. Your goal is to get as many points as possible. These points will be converted to a cash bonus at the end.
Sometimes we will ask you to rate your mood.",,,,0,1,1,1,,,,,,,,,,,,,,,,,,,,,,,,,16.91238001437341,None,16.91238001437341,None,16.91238001437341,None,4,5.085417222637261,16.91238001437341,None,,,,,,,,,,,,,,,,,,,,,,,,,,,,,,,,,,,,,,,,,,,,,,,,,,,,,,,,,,,,,,,,,,,,,,,,,,,,,,,,,,,,,,,,,,,,,,,,,,,,,,,,,,,,,,,,,,,,,,,,,,,,,,,,,,24252,2019_Dec_11_1635,Mmi_3levels,3.1.5,59.97294164579859,
3,black.png,"On the next screen, please rate how you feel about your life these days. Use the LEFT (green) and RIGHT (blue) buttons to move the slider (you can press and hold them to slide gradually) and the TOP (red) button to lock in your response.
Make your rating as accurately and quickly as you can!",,,,0,2,2,2,,,,,,,,,,,,,,,,,,,,,,,,,22.047599711504517,None,22.047599711504517,None,22.047599711504517,None,4,6.936301623658437,22.047599711504517,None,,,,,,,,,,,,,,,,,,,,,,,,,,,,,,,,,,,,,,,,,,,,,,,,,,,,,,,,,,,,,,,,,,,,,,,,,,,,,,,,,,,,,,,,,,,,,,,,,,,,,,,,,,,,,,,,,,,,,,,,,,,,,,,,,,24252,2019_Dec_11_1635,Mmi_3levels,3.1.5,59.97294164579859,
,,,,,,,,,,,,,,,,,,,,,,,,,,,,,,,,,,,,,,,,,,,,29.000329262509695,None,0.56,9.069213923356074,33.00179126484909,None,4,5.052221865973479,33.00179126484909,None,,,,,,,,,,,,,,,,,,,,,,,,,,,,,,,,,,,,,,,,,,,,,,,,,,,,,,,,,,,,,,,,,,,,,,,,,,,,,,,,,,,,,,,,,,,,,,,,,,,,,,,,,,,,,,,,,,,,,,,,24252,2019_Dec_11_1635,Mmi_3levels,3.1.5,59.97294164579859,
4,black.png,"In this game you can win money by earning points according to your choices. You will decide whether to gamble a number of points or stick with a guaranteed number of points. 
Make your choice by pressing the left or right arrow key once. An example of one trial is shown on the next screen.",,,,,,,,0,0,0,0,,,,,,,,,,,,,,,,,,,,,,,,,,,,,,,,,,,,,,,,,38.12049663921971,None,38.12049663921971,None,38.12049663921971,None,4,7.25299488091332,38.12049663921971,None,,,,,,,,,,,,,,,,,,,,,,,,,,,,,,,,,,,,,,,,,,,,,,,,,,,,,,,,,,,,,,,,,,,,,,,,,,,,,,,,,,,,,,,,,,,,,,,,,,,,,,,,,,,,,,24252,2019_Dec_11_1635,Mmi_3levels,3.1.5,59.97294164579859,
5,example_start.png,"The GAMBLING OPTION will be shown on the RIGHT SIDE. 
Select this option using the RIGHT (blue) button on your keypad.",,,,,,,,0,1,1,1,,,,,,,,,,,,,,,,,,,,,,,,,,,,,,,,,,,,,,,,,45.43991615165396,None,45.43991615165396,None,45.43991615165396,None,4,9.370361766383212,45.43991615165396,None,,,,,,,,,,,,,,,,,,,,,,,,,,,,,,,,,,,,,,,,,,,,,,,,,,,,,,,,,,,,,,,,,,,,,,,,,,,,,,,,,,,,,,,,,,,,,,,,,,,,,,,,,,,,,,24252,2019_Dec_11_1635,Mmi_3levels,3.1.5,59.97294164579859,
6,example_gamble.png,"Once you select the gambling choice, the choice you made will remain on the screen.",,,,,,,,0,2,2,2,,,,,,,,,,,,,,,,,,,,,,,,,,,,,,,,,,,,,,,,,54.84350623294995,None,54.84350623294995,None,54.84350623294995,None,4,3.6182980360081274,54.84350623294995,None,,,,,,,,,,,,,,,,,,,,,,,,,,,,,,,,,,,,,,,,,,,,,,,,,,,,,,,,,,,,,,,,,,,,,,,,,,,,,,,,,,,,,,,,,,,,,,,,,,,,,,,,,,,,,,24252,2019_Dec_11_1635,Mmi_3levels,3.1.5,59.97294164579859,
7,example_win.png,"The outcome you received will then be shown on the screen. In this example , you WON 10 points.",,,,,,,,0,3,3,3,,,,,,,,,,,,,,,,,,,,,,,,,,,,,,,,,,,,,,,,,58.49490683054864,None,58.49490683054864,None,58.49490683054864,None,4,3.3015190233090834,58.49490683054864,None,,,,,,,,,,,,,,,,,,,,,,,,,,,,,,,,,,,,,,,,,,,,,,,,,,,,,,,,,,,,,,,,,,,,,,,,,,,,,,,,,,,,,,,,,,,,,,,,,,,,,,,,,,,,,,24252,2019_Dec_11_1635,Mmi_3levels,3.1.5,59.97294164579859,
8,example_start.png,"The GUARANTEED OPTION will be shown on the LEFT SIDE. You are 100% guaranteed to gain or lose this amount. In this example, you have a 100% chance of winning 1 point. Select this option using the LEFT (green) button on your keyboard.",,,,,,,,0,4,4,4,,,,,,,,,,,,,,,,,,,,,,,,,,,,,,,,,,,,,,,,,61.84618161083381,None,61.84618161083381,None,61.84618161083381,None,4,5.519032588988921,61.84618161083381,None,,,,,,,,,,,,,,,,,,,,,,,,,,,,,,,,,,,,,,,,,,,,,,,,,,,,,,,,,,,,,,,,,,,,,,,,,,,,,,,,,,,,,,,,,,,,,,,,,,,,,,,,,,,,,,24252,2019_Dec_11_1635,Mmi_3levels,3.1.5,59.97294164579859,
9,example_certain.png,"Once you select the guaranteed choice, your selection will remain on the screen.",,,,,,,,0,5,5,5,,,,,,,,,,,,,,,,,,,,,,,,,,,,,,,,,,,,,,,,,67.39830172221264,None,67.39830172221264,None,67.39830172221264,None,4,2.9011073331785155,67.39830172221264,None,,,,,,,,,,,,,,,,,,,,,,,,,,,,,,,,,,,,,,,,,,,,,,,,,,,,,,,,,,,,,,,,,,,,,,,,,,,,,,,,,,,,,,,,,,,,,,,,,,,,,,,,,,,,,,24252,2019_Dec_11_1635,Mmi_3levels,3.1.5,59.97294164579859,
10,black.png,"Please make your choices as fast as possible.
You will be given a break at the end of each block.
Let's play!",,,,,,,,0,6,6,6,,,,,,,,,,,,,,,,,,,,,,,,,,,,,,,,,,,,,,,,,70.3326837678378,None,70.3326837678378,None,70.3326837678378,None,4,3.268233751423395,70.3326837678378,None,,,,,,,,,,,,,,,,,,,,,,,,,,,,,,,,,,,,,,,,,,,,,,,,,,,,,,,,,,,,,,,,,,,,,,,,,,,,,,,,,,,,,,,,,,,,,,,,,,,,,,,,,,,,,,24252,2019_Dec_11_1635,Mmi_3levels,3.1.5,59.97294164579859,
,,,,,,,,,,,,,,,,,,,,,,,,,,,,,,,,,,,,,,,,,,,,,,,,,,,,,,,,,,,,,,,,73.61737712492686,None,space,21.858570072758084,73.61737712492686,None,,,,,,,,,,,,,,,,,,,,,,,,,,,,,,,,,,,,,,,,,,,,,,,,,,,,,,,,,,,,,,,,,,,,,,,,,,,,,,,,,,,,,,,,,,,,,,,,,,,,,,,,24252,2019_Dec_11_1635,Mmi_3levels,3.1.5,59.97294164579859,
,,,1,1,13.5,,,,,,,,,0,0,0,0,0,0,0,20,,,,,,,,,,,,,,,,,,,,,,,,,,,,,,,,,,,,,,,,,,,,,,,,,95.4923056887219,None,0.56,7.493597140119164,98.51018697886866,None,None,98.51018697886866,None,102.99517561627181,None,True,True,False,0.56,-0.43999999999999995,-0.43999999999999995,6.6,13.5,6.9,3.45,gamble,win,13.5,13.5,106.02974178011755,None,106.02974178011755,None,106.02974178011755,None,106.02974178011755,None,106.02974178011755,None,106.02974178011755,None,106.02974178011755,None,1,2.4343894052344695,106.02974178011755,None,108.49729390374887,None,108.49729390374887,None,108.49729390374887,None,108.49729390374887,None,108.49729390374887,None,108.49729390374887,None,108.49729390374887,None,112.48218334642115,None,112.48218334642115,None,112.48218334642115,None,112.48218334642115,None,112.48218334642115,None,112.48218334642115,None,112.48218334642115,None,113.48252988801323,None,,,,,,,,,,,,,,,,,,,,,,,,,,,,,,,24252,2019_Dec_11_1635,Mmi_3levels,3.1.5,59.97294164579859,
,,,1,1,0.5,,,,,,,,,0,0,0,0,0,1,1,26,,,,,,,,,,,,,,,,,,,,,,,,,,,,,,,,,,,,,,,,,,,,,,,,,,,,,,,,,,,,True,True,False,0.56,-0.43999999999999995,-0.8799999999999999,7.039999999999999,0.5,-6.539999999999999,-3.0199999999999996,gamble,win,0.5,14.0,115.49999168044269,None,115.49999168044269,None,115.49999168044269,None,115.49999168044269,None,115.49999168044269,None,115.49999168044269,None,115.49999168044269,None,None,,115.49999168044269,None,118.50114649909847,None,118.50114649909847,None,118.50114649909847,None,118.50114649909847,None,118.50114649909847,None,118.50114649909847,None,118.50114649909847,None,122.48590570868873,None,122.48590570868873,None,122.48590570868873,None,122.48590570868873,None,122.48590570868873,None,122.48590570868873,None,122.48590570868873,None,123.48629160818928,None,,,,,,,,,,,,,,,,,,,,,,,,,,,,,,,24252,2019_Dec_11_1635,Mmi_3levels,3.1.5,59.97294164579859,
,,,1,1,12.7,,,,,,,,,0,0,0,0,0,2,2,14,,,,,,,,,,,,,,,,,,,,,,,,,,,,,,,,,,,,,,,,,,,,,,,,,,,,,,,,,,,,True,True,True,0.56,-0.43999999999999995,-1.3199999999999998,7.479999999999999,12.7,5.220000000000001,2.6100000000000003,certain,certain,2.6100000000000003,16.61,125.50382475683,None,125.50382475683,None,125.50382475683,None,125.50382475683,None,125.50382475683,None,125.50382475683,None,125.50382475683,None,3,1.2840159530715027,125.50382475683,None,126.82103894641114,None,126.82103894641114,None,126.82103894641114,None,126.82103894641114,None,126.82103894641114,None,126.82103894641114,None,126.82103894641114,None,130.80584071374142,None,130.80584071374142,None,130.80584071374142,None,130.80584071374142,None,130.80584071374142,None,130.80584071374142,None,130.80584071374142,None,140.30947924046268,None,131.80623749266488,None,132.8065712349362,None,0.59,7.502902245832956,135.80770109491823,None,None,135.80770109491823,None,,,,,,,,,,,,,,,,,,,,24252,2019_Dec_11_1635,Mmi_3levels,3.1.5,59.97294164579859,
,,,1,1,1.1,,,,,,,,,0,0,0,0,0,3,3,22,,,,,,,,,,,,,,,,,,,,,,,,,,,,,,,,,,,,,,,,,,,,,,,,,,,,,,,,,,,,True,True,False,0.59,-0.41000000000000003,-1.73,7.470000000000001,1.1,-6.370000000000001,-2.6350000000000007,certain,certain,-2.6350000000000007,13.974999999999998,142.32690999454098,None,142.32690999454098,None,142.32690999454098,None,142.32690999454098,None,142.32690999454098,None,142.32690999454098,None,142.32690999454098,None,3,2.317878154313803,142.32690999454098,None,144.67781487447428,None,144.67781487447428,None,144.67781487447428,None,144.67781487447428,None,144.67781487447428,None,144.67781487447428,None,144.67781487447428,None,148.67933799356615,None,148.67933799356615,None,148.67933799356615,None,148.67933799356615,None,148.67933799356615,None,148.67933799356615,None,148.67933799356615,None,149.66304125924944,None,,,,,,,,,,,,,,,,,,,,,,,,,,,,,,,24252,2019_Dec_11_1635,Mmi_3levels,3.1.5,59.97294164579859,
,,,1,1,-0.7,,,,,,,,,0,0,0,0,0,4,4,13,,,,,,,,,,,,,,,,,,,,,,,,,,,,,,,,,,,,,,,,,,,,,,,,,,,,,,,,,,,,True,True,True,0.59,-0.41000000000000003,-2.14,7.880000000000001,-0.7,-8.58,-4.64,gamble,win,-0.7,13.274999999999999,151.68047905295316,None,151.68047905295316,None,151.68047905295316,None,151.68047905295316,None,151.68047905295316,None,151.68047905295316,None,151.68047905295316,None,None,,151.68047905295316,None,154.68162747194947,None,154.68162747194947,None,154.68162747194947,None,154.68162747194947,None,154.68162747194947,None,154.68162747194947,None,154.68162747194947,None,158.68308371459352,None,158.68308371459352,None,158.68308371459352,None,158.68308371459352,None,158.68308371459352,None,158.68308371459352,None,158.68308371459352,None,168.17006488615334,None,159.6668186585939,None,160.66720807790807,None,0.56,7.502803051100273,163.66837153610504,None,None,163.66837153610504,None,,,,,,,,,,,,,,,,,,,,24252,2019_Dec_11_1635,Mmi_3levels,3.1.5,59.97294164579859,
,,,1,1,4.7,,,,,,,,,0,0,0,0,0,5,5,8,,,,,,,,,,,,,,,,,,,,,,,,,,,,,,,,,,,,,,,,,,,,,,,,,,,,,,,,,,,,True,True,True,0.56,-0.43999999999999995,-2.58,8.739999999999998,4.7,-4.039999999999998,0.33000000000000096,certain,certain,0.33000000000000096,13.605,170.18753947790356,None,170.18753947790356,None,170.18753947790356,None,170.18753947790356,None,170.18753947790356,None,170.18753947790356,None,170.18753947790356,None,3,1.7675640269990254,170.18753947790356,None,171.98824030467586,None,171.98824030467586,None,171.98824030467586,None,171.98824030467586,None,171.98824030467586,None,171.98824030467586,None,171.98824030467586,None,175.97307951001676,None,175.97307951001676,None,175.97307951001676,None,175.97307951001676,None,175.97307951001676,None,175.97307951001676,None,175.97307951001676,None,176.97343053137047,None,,,,,,,,,,,,,,,,,,,,,,,,,,,,,,,24252,2019_Dec_11_1635,Mmi_3levels,3.1.5,59.97294164579859,
,,,1,1,8.3,,,,,,,,,0,0,0,0,0,6,6,18,,,,,,,,,,,,,,,,,,,,,,,,,,,,,,,,,,,,,,,,,,,,,,,,,,,,,,,,,,,,True,True,False,0.56,-0.43999999999999995,-3.02,9.18,8.3,-0.879999999999999,-0.4399999999999995,gamble,win,8.3,21.905,178.99086736512618,None,178.99086736512618,None,178.99086736512618,None,178.99086736512618,None,178.99086736512618,None,178.99086736512618,None,178.99086736512618,None,1,1.5509272147464799,178.99086736512618,None,180.57484306433616,None,180.57484306433616,None,180.57484306433616,None,180.57484306433616,None,180.57484306433616,None,180.57484306433616,None,180.57484306433616,None,184.55964611159834,None,184.55964611159834,None,184.55964611159834,None,184.55964611159834,None,184.55964611159834,None,184.55964611159834,None,184.55964611159834,None,185.56007616875468,None,,,,,,,,,,,,,,,,,,,,,,,,,,,,,,,24252,2019_Dec_11_1635,Mmi_3levels,3.1.5,59.97294164579859,
,,,1,1,-1.1,,,,,,,,,0,0,0,0,0,7,7,3,,,,,,,,,,,,,,,,,,,,,,,,,,,,,,,,,,,,,,,,,,,,,,,,,,,,,,,,,,,,True,False,True,0.56,-0.43999999999999995,-3.46,-1.8283333333333331,-1.1,-2.9283333333333332,-2.0141666666666667,certain,certain,-2.0141666666666667,19.890833333333333,187.57751236254444,None,187.57751236254444,None,187.57751236254444,None,187.57751236254444,None,187.57751236254444,None,187.57751236254444,None,187.57751236254444,None,3,1.8009868915760308,187.57751236254444,None,189.41154357880623,None,189.41154357880623,None,189.41154357880623,None,189.41154357880623,None,189.41154357880623,None,189.41154357880623,None,189.41154357880623,None,193.413068937778,None,193.413068937778,None,193.413068937778,None,193.413068937778,None,193.413068937778,None,193.413068937778,None,193.413068937778,None,202.90003123034148,None,194.39678276290033,None,195.39716898238476,None,0.56,7.502798571340463,198.39819644780437,None,None,198.39819644780437,None,,,,,,,,,,,,,,,,,,,,24252,2019_Dec_11_1635,Mmi_3levels,3.1.5,59.97294164579859,
,,,1,1,7.9,,,,,,,,,0,0,0,0,0,8,8,11,,,,,,,,,,,,,,,,,,,,,,,,,,,,,,,,,,,,,,,,,,,,,,,,,,,,,,,,,,,,True,True,True,0.56,-0.43999999999999995,-3.9,10.059999999999999,7.9,-2.1599999999999984,-1.0799999999999992,gamble,win,7.9,27.79083333333333,204.9174607044879,None,204.9174607044879,None,204.9174607044879,None,204.9174607044879,None,204.9174607044879,None,204.9174607044879,None,204.9174607044879,None,1,1.434137258629562,204.9174607044879,None,206.38462980846452,None,206.38462980846452,None,206.38462980846452,None,206.38462980846452,None,206.38462980846452,None,206.38462980846452,None,206.38462980846452,None,210.36954612971022,None,210.36954612971022,None,210.36954612971022,None,210.36954612971022,None,210.36954612971022,None,210.36954612971022,None,210.36954612971022,None,211.36993586900644,None,,,,,,,,,,,,,,,,,,,,,,,,,,,,,,,24252,2019_Dec_11_1635,Mmi_3levels,3.1.5,59.97294164579859,
,,,1,1,8.7,,,,,,,,,0,0,0,0,0,9,9,15,,,,,,,,,,,,,,,,,,,,,,,,,,,,,,,,,,,,,,,,,,,,,,,,,,,,,,,,,,,,True,False,True,0.56,-0.43999999999999995,-4.34,-1.9016666666666664,8.7,6.798333333333333,3.3991666666666664,gamble,lose,6.798333333333333,34.589166666666664,213.38736438320484,None,213.38736438320484,None,213.38736438320484,None,213.38736438320484,None,213.38736438320484,None,213.38736438320484,None,213.38736438320484,None,1,1.4674436493933172,213.38736438320484,None,214.88793619283024,None,214.88793619283024,None,214.88793619283024,None,214.88793619283024,None,214.88793619283024,None,214.88793619283024,None,214.88793619283024,None,218.8727843576944,None,218.8727843576944,None,218.8727843576944,None,218.8727843576944,None,218.8727843576944,None,218.8727843576944,None,218.8727843576944,None,228.37642320439954,None,219.87316641740108,None,220.87352895814183,None,0.57,7.502791851697111,223.874668097631,None,None,223.874668097631,None,,,,,,,,,,,,,,,,,,,,24252,2019_Dec_11_1635,Mmi_3levels,3.1.5,59.97294164579859,
,,,1,1,7.7,,,,,,,,,0,0,0,0,0,10,10,25,,,,,,,,,,,,,,,,,,,,,,,,,,,,,,,,,,,,,,,,,,,,,,,,,,,,,,,,,,,,True,True,False,0.57,-0.43000000000000005,-4.77,10.79,7.7,-3.089999999999999,-1.5449999999999995,gamble,win,7.7,42.28916666666667,230.39385267854595,None,230.39385267854595,None,230.39385267854595,None,230.39385267854595,None,230.39385267854595,None,230.39385267854595,None,230.39385267854595,None,1,1.5340769098347664,230.39385267854595,None,231.96101935065235,None,231.96101935065235,None,231.96101935065235,None,231.96101935065235,None,231.96101935065235,None,231.96101935065235,None,231.96101935065235,None,235.9459679901811,None,235.9459679901811,None,235.9459679901811,None,235.9459679901811,None,235.9459679901811,None,235.9459679901811,None,235.9459679901811,None,236.94634972990207,None,,,,,,,,,,,,,,,,,,,,,,,,,,,,,,,24252,2019_Dec_11_1635,Mmi_3levels,3.1.5,59.97294164579859,
,,,1,1,-0.3,,,,,,,,,0,0,0,0,0,11,11,0,,,,,,,,,,,,,,,,,,,,,,,,,,,,,,,,,,,,,,,,,,,,,,,,,,,,,,,,,,,,True,True,False,0.57,-0.43000000000000005,-5.199999999999999,11.219999999999999,-0.3,-11.52,-5.91,certain,certain,-5.91,36.37916666666666,238.96378432377787,None,238.96378432377787,None,238.96378432377787,None,238.96378432377787,None,238.96378432377787,None,238.96378432377787,None,238.96378432377787,None,3,1.7007797345795552,238.96378432377787,None,240.69778117386522,None,240.69778117386522,None,240.69778117386522,None,240.69778117386522,None,240.69778117386522,None,240.69778117386522,None,240.69778117386522,None,244.6993052529051,None,244.6993052529051,None,244.6993052529051,None,244.6993052529051,None,244.6993052529051,None,244.6993052529051,None,244.6993052529051,None,254.1862662655367,None,245.68300051901315,None,246.6834011377323,None,0.56,7.502910565390266,249.68449003989008,None,None,249.68449003989008,None,,,,,,,,,,,,,,,,,,,,24252,2019_Dec_11_1635,Mmi_3levels,3.1.5,59.97294164579859,
,,,1,1,5.9,,,,,,,,,0,0,0,0,0,12,12,4,,,,,,,,,,,,,,,,,,,,,,,,,,,,,,,,,,,,,,,,,,,,,,,,,,,,,,,,,,,,True,True,False,0.56,-0.43999999999999995,-5.639999999999999,11.799999999999997,5.9,-5.899999999999997,1.7763568394002505e-15,certain,certain,1.7763568394002505e-15,36.37916666666666,256.2036727009072,None,256.2036727009072,None,256.2036727009072,None,256.2036727009072,None,256.2036727009072,None,256.2036727009072,None,256.2036727009072,None,3,2.0343463355238782,256.2036727009072,None,258.2711094386668,None,258.2711094386668,None,258.2711094386668,None,258.2711094386668,None,258.2711094386668,None,258.2711094386668,None,258.2711094386668,None,262.25602415999674,None,262.25602415999674,None,262.25602415999674,None,262.25602415999674,None,262.25602415999674,None,262.25602415999674,None,262.25602415999674,None,263.25629966536144,None,,,,,,,,,,,,,,,,,,,,,,,,,,,,,,,24252,2019_Dec_11_1635,Mmi_3levels,3.1.5,59.97294164579859,
,,,1,1,5.7,,,,,,,,,0,0,0,0,0,13,13,6,,,,,,,,,,,,,,,,,,,,,,,,,,,,,,,,,,,,,,,,,,,,,,,,,,,,,,,,,,,,True,True,False,0.56,-0.43999999999999995,-6.079999999999998,12.239999999999998,5.7,-6.539999999999998,-0.41999999999999904,gamble,win,5.7,42.079166666666666,265.2737867364485,None,265.2737867364485,None,265.2737867364485,None,265.2737867364485,None,265.2737867364485,None,265.2737867364485,None,265.2737867364485,None,1,1.7676014650096477,265.2737867364485,None,267.07447380395206,None,267.07447380395206,None,267.07447380395206,None,267.07447380395206,None,267.07447380395206,None,267.07447380395206,None,267.07447380395206,None,271.05931588914063,None,271.05931588914063,None,271.05931588914063,None,271.05931588914063,None,271.05931588914063,None,271.05931588914063,None,271.05931588914063,None,272.05975202597256,None,,,,,,,,,,,,,,,,,,,,,,,,,,,,,,,24252,2019_Dec_11_1635,Mmi_3levels,3.1.5,59.97294164579859,
,,,1,1,10.7,,,,,,,,,0,0,0,0,0,14,14,2,,,,,,,,,,,,,,,,,,,,,,,,,,,,,,,,,,,,,,,,,,,,,,,,,,,,,,,,,,,,True,True,False,0.56,-0.43999999999999995,-6.519999999999998,12.679999999999996,10.7,-1.9799999999999969,-0.9899999999999984,gamble,win,10.7,52.77916666666667,274.12720156305295,None,274.12720156305295,None,274.12720156305295,None,274.12720156305295,None,274.12720156305295,None,274.12720156305295,None,274.12720156305295,None,1,1.7676405029360467,274.12720156305295,None,275.92789151040415,None,275.92789151040415,None,275.92789151040415,None,275.92789151040415,None,275.92789151040415,None,275.92789151040415,None,275.92789151040415,None,279.92941558944403,None,279.92941558944403,None,279.92941558944403,None,279.92941558944403,None,279.92941558944403,None,279.92941558944403,None,279.92941558944403,None,289.416372122314,None,280.9131300545323,None,281.91350603455976,None,0.56,7.502780652292131,284.9146477339127,None,None,284.9146477339127,None,,,,,,,,,,,,,,,,,,,,24252,2019_Dec_11_1635,Mmi_3levels,3.1.5,59.97294164579859,
,,,1,1,12.1,,,,,,,,,0,0,0,0,0,15,15,23,,,,,,,,,,,,,,,,,,,,,,,,,,,,,,,,,,,,,,,,,,,,,,,,,,,,,,,,,,,,True,True,False,0.56,-0.43999999999999995,-6.959999999999997,13.119999999999997,12.1,-1.0199999999999978,-0.5099999999999989,gamble,win,12.1,64.87916666666666,291.4338015964604,None,291.4338015964604,None,291.4338015964604,None,291.4338015964604,None,291.4338015964604,None,291.4338015964604,None,291.4338015964604,None,1,1.5340692302434036,291.4338015964604,None,293.0010677832797,None,293.0010677832797,None,293.0010677832797,None,293.0010677832797,None,293.0010677832797,None,293.0010677832797,None,293.0010677832797,None,297.00260338170847,None,297.00260338170847,None,297.00260338170847,None,297.00260338170847,None,297.00260338170847,None,297.00260338170847,None,297.00260338170847,None,297.9863060074258,None,,,,,,,,,,,,,,,,,,,,,,,,,,,,,,,24252,2019_Dec_11_1635,Mmi_3levels,3.1.5,59.97294164579859,
,,,1,1,8.9,,,,,,,,,0,0,0,0,0,16,16,17,,,,,,,,,,,,,,,,,,,,,,,,,,,,,,,,,,,,,,,,,,,,,,,,,,,,,,,,,,,,True,True,True,0.56,-0.43999999999999995,-7.399999999999997,13.559999999999995,8.9,-4.659999999999995,-2.3299999999999974,gamble,win,8.9,73.77916666666667,300.00374860087504,None,300.00374860087504,None,300.00374860087504,None,300.00374860087504,None,300.00374860087504,None,300.00374860087504,None,300.00374860087504,None,1,1.8343499193324533,300.00374860087504,None,301.871124285879,None,301.871124285879,None,301.871124285879,None,301.871124285879,None,301.871124285879,None,301.871124285879,None,301.871124285879,None,305.8559042943634,None,305.8559042943634,None,305.8559042943634,None,305.8559042943634,None,305.8559042943634,None,305.8559042943634,None,305.8559042943634,None,315.3596071376687,None,306.8563228321309,None,307.8567544892012,None,0.57,7.502789611815388,310.85782547231065,None,None,310.85782547231065,None,,,,,,,,,,,,,,,,,,,,24252,2019_Dec_11_1635,Mmi_3levels,3.1.5,59.97294164579859,
,,,1,1,3.5,,,,,,,,,0,0,0,0,0,17,17,5,,,,,,,,,,,,,,,,,,,,,,,,,,,,,,,,,,,,,,,,,,,,,,,,,,,,,,,,,,,,True,True,False,0.57,-0.43000000000000005,-7.8299999999999965,13.849999999999998,3.5,-10.349999999999998,-3.424999999999999,certain,certain,-3.424999999999999,70.35416666666667,317.37703309200333,None,317.37703309200333,None,317.37703309200333,None,317.37703309200333,None,317.37703309200333,None,317.37703309200333,None,317.37703309200333,None,3,2.0010812225664267,317.37703309200333,None,319.411145199967,None,319.411145199967,None,319.411145199967,None,319.411145199967,None,319.411145199967,None,319.411145199967,None,319.411145199967,None,323.3960042442541,None,323.3960042442541,None,323.3960042442541,None,323.3960042442541,None,323.3960042442541,None,323.3960042442541,None,323.3960042442541,None,324.3963818241973,None,,,,,,,,,,,,,,,,,,,,,,,,,,,,,,,24252,2019_Dec_11_1635,Mmi_3levels,3.1.5,59.97294164579859,
,,,1,1,11.9,,,,,,,,,0,0,0,0,0,18,18,21,,,,,,,,,,,,,,,,,,,,,,,,,,,,,,,,,,,,,,,,,,,,,,,,,,,,,,,,,,,,True,True,True,0.57,-0.43000000000000005,-8.259999999999996,14.279999999999998,11.9,-2.3799999999999972,-1.1899999999999986,gamble,win,11.9,82.25416666666668,326.41381353822544,None,326.41381353822544,None,326.41381353822544,None,326.41381353822544,None,326.41381353822544,None,326.41381353822544,None,326.41381353822544,None,1,1.4008353476256161,326.41381353822544,None,327.8477277687016,None,327.8477277687016,None,327.8477277687016,None,327.8477277687016,None,327.8477277687016,None,327.8477277687016,None,327.8477277687016,None,331.8492329687451,None,331.8492329687451,None,331.8492329687451,None,331.8492329687451,None,331.8492329687451,None,331.8492329687451,None,331.8492329687451,None,332.8328936766884,None,,,,,,,,,,,,,,,,,,,,,,,,,,,,,,,24252,2019_Dec_11_1635,Mmi_3levels,3.1.5,59.97294164579859,
,,,1,1,2.1,,,,,,,,,0,0,0,0,0,19,19,19,,,,,,,,,,,,,,,,,,,,,,,,,,,,,,,,,,,,,,,,,,,,,,,,,,,,,,,,,,,,True,False,True,0.57,-0.43000000000000005,-8.689999999999996,-2.2291666666666665,2.1,-0.12916666666666643,0.9854166666666668,gamble,lose,-0.12916666666666643,82.12500000000001,334.85038010780954,None,334.85038010780954,None,334.85038010780954,None,334.85038010780954,None,334.85038010780954,None,334.85038010780954,None,334.85038010780954,None,1,1.3508344836718607,334.85038010780954,None,336.23422627790023,None,336.23422627790023,None,336.23422627790023,None,336.23422627790023,None,336.23422627790023,None,336.23422627790023,None,336.23422627790023,None,340.23571483882733,None,340.23571483882733,None,340.23571483882733,None,340.23571483882733,None,340.23571483882733,None,340.23571483882733,None,340.23571483882733,None,349.7227200091129,None,341.2194245041701,None,342.2198452818193,None,0.57,7.502837609266862,345.220979941545,None,None,345.220979941545,None,,,,,,,,,,,,,,,,,,,,24252,2019_Dec_11_1635,Mmi_3levels,3.1.5,59.97294164579859,
,,,1,1,10.1,,,,,,,,,0,0,0,0,0,20,20,1,,,,,,,,,,,,,,,,,,,,,,,,,,,,,,,,,,,,,,,,,,,,,,,,,,,,,,,,,,,,True,True,True,0.57,-0.43000000000000005,-9.119999999999996,15.139999999999997,10.1,-5.039999999999997,-2.5199999999999987,gamble,win,10.1,92.22500000000001,351.7401424436339,None,351.7401424436339,None,351.7401424436339,None,351.7401424436339,None,351.7401424436339,None,351.7401424436339,None,351.7401424436339,None,1,1.7676363431583013,351.7401424436339,None,353.54078055373793,None,353.54078055373793,None,353.54078055373793,None,353.54078055373793,None,353.54078055373793,None,353.54078055373793,None,353.54078055373793,None,357.5423119923871,None,357.5423119923871,None,357.5423119923871,None,357.5423119923871,None,357.5423119923871,None,357.5423119923871,None,357.5423119923871,None,358.52600245874964,None,,,,,,,,,,,,,,,,,,,,,,,,,,,,,,,24252,2019_Dec_11_1635,Mmi_3levels,3.1.5,59.97294164579859,
,,,1,1,4.9,,,,,,,,,0,0,0,0,0,21,21,24,,,,,,,,,,,,,,,,,,,,,,,,,,,,,,,,,,,,,,,,,,,,,,,,,,,,,,,,,,,,True,False,True,0.57,-0.43000000000000005,-9.549999999999995,-2.3008333333333333,4.9,2.599166666666667,1.2995833333333335,gamble,lose,2.599166666666667,94.82416666666667,360.5434524118082,None,360.5434524118082,None,360.5434524118082,None,360.5434524118082,None,360.5434524118082,None,360.5434524118082,None,360.5434524118082,None,1,1.1007850462974602,360.5434524118082,None,361.6772683435065,None,361.6772683435065,None,361.6772683435065,None,361.6772683435065,None,361.6772683435065,None,361.6772683435065,None,361.6772683435065,None,365.66206819093713,None,365.66206819093713,None,365.66206819093713,None,365.66206819093713,None,365.66206819093713,None,365.66206819093713,None,365.66206819093713,None,375.16569647820324,None,366.66247200948783,None,367.6628284705512,None,0.58,7.502753453736659,370.6640229671011,None,None,370.6640229671011,None,,,,,,,,,,,,,,,,,,,,24252,2019_Dec_11_1635,Mmi_3levels,3.1.5,59.97294164579859,
,,,1,1,2.5,,,,,,,,,0,0,0,0,0,22,22,7,,,,,,,,,,,,,,,,,,,,,,,,,,,,,,,,,,,,,,,,,,,,,,,,,,,,,,,,,,,,True,True,False,0.58,-0.42000000000000004,-9.969999999999995,15.849999999999996,2.5,-13.349999999999996,-5.424999999999998,certain,certain,-5.424999999999998,89.39916666666667,377.18314771119367,None,377.18314771119367,None,377.18314771119367,None,377.18314771119367,None,377.18314771119367,None,377.18314771119367,None,377.18314771119367,None,3,1.0507393847237836,377.18314771119367,None,378.2669083818273,None,378.2669083818273,None,378.2669083818273,None,378.2669083818273,None,378.2669083818273,None,378.2669083818273,None,378.2669083818273,None,382.2517024695644,None,382.2517024695644,None,382.2517024695644,None,382.2517024695644,None,382.2517024695644,None,382.2517024695644,None,382.2517024695644,None,383.2520976485739,None,,,,,,,,,,,,,,,,,,,,,,,,,,,,,,,24252,2019_Dec_11_1635,Mmi_3levels,3.1.5,59.97294164579859,
,,,1,1,13.3,,,,,,,,,0,0,0,0,0,23,23,12,,,,,,,,,,,,,,,,,,,,,,,,,,,,,,,,,,,,,,,,,,,,,,,,,,,,,,,,,,,,True,True,True,0.58,-0.42000000000000004,-10.389999999999995,16.269999999999996,13.3,-2.9699999999999953,-1.4849999999999977,gamble,win,13.3,102.69916666666667,385.26951944312714,None,385.26951944312714,None,385.26951944312714,None,385.26951944312714,None,385.26951944312714,None,385.26951944312714,None,385.26951944312714,None,1,1.383930325620895,385.26951944312714,None,386.6867670389347,None,386.6867670389347,None,386.6867670389347,None,386.6867670389347,None,386.6867670389347,None,386.6867670389347,None,386.6867670389347,None,390.68831511670214,None,390.68831511670214,None,390.68831511670214,None,390.68831511670214,None,390.68831511670214,None,390.68831511670214,None,390.68831511670214,None,400.17523517150767,None,391.6719870240504,None,392.67242668069593,None,0.57,7.502798891324346,395.6735671001152,None,None,395.6735671001152,None,,,,,,,,,,,,,,,,,,,,24252,2019_Dec_11_1635,Mmi_3levels,3.1.5,59.97294164579859,
,,,1,1,12.5,,,,,,,,,0,0,0,0,0,24,24,10,,,,,,,,,,,,,,,,,,,,,,,,,,,,,,,,,,,,,,,,,,,,,,,,,,,,,,,,,,,,True,False,False,0.57,-0.43000000000000005,-10.819999999999995,-2.4066666666666663,12.5,10.093333333333334,5.046666666666667,gamble,lose,10.093333333333334,112.7925,402.19270304361453,None,402.19270304361453,None,402.19270304361453,None,402.19270304361453,None,402.19270304361453,None,402.19270304361453,None,402.19270304361453,None,1,1.2506906833095854,402.19270304361453,None,403.4764924487208,None,403.4764924487208,None,403.4764924487208,None,403.4764924487208,None,403.4764924487208,None,403.4764924487208,None,403.4764924487208,None,407.47802356738794,None,407.47802356738794,None,407.47802356738794,None,407.47802356738794,None,407.47802356738794,None,407.47802356738794,None,407.47802356738794,None,408.4617146737164,None,,,,,,,,,,,,,,,,,,,,,,,,,,,,,,,24252,2019_Dec_11_1635,Mmi_3levels,3.1.5,59.97294164579859,
,,,1,1,6.9,,,,,,,,,0,0,0,0,0,25,25,16,,,,,,,,,,,,,,,,,,,,,,,,,,,,,,,,,,,,,,,,,,,,,,,,,,,,,,,,,,,,True,True,True,0.57,-0.43000000000000005,-11.249999999999995,17.269999999999996,6.9,-10.369999999999996,-1.7349999999999977,certain,certain,-1.7349999999999977,111.0575,410.47916110696315,None,410.47916110696315,None,410.47916110696315,None,410.47916110696315,None,410.47916110696315,None,410.47916110696315,None,410.47916110696315,None,3,1.1840603027158068,410.47916110696315,None,411.69627245400807,None,411.69627245400807,None,411.69627245400807,None,411.69627245400807,None,411.69627245400807,None,411.69627245400807,None,411.69627245400807,None,415.6978154120461,None,415.6978154120461,None,415.6978154120461,None,415.6978154120461,None,415.6978154120461,None,415.6978154120461,None,415.6978154120461,None,416.6815065183746,None,,,,,,,,,,,,,,,,,,,,,,,,,,,,,,,24252,2019_Dec_11_1635,Mmi_3levels,3.1.5,59.97294164579859,
,,,1,1,3.3,,,,,,,,,0,0,0,0,0,26,26,9,,,,,,,,,,,,,,,,,,,,,,,,,,,,,,,,,,,,,,,,,,,,,,,,,,,,,,,,,,,,True,False,False,0.57,-0.43000000000000005,-11.679999999999994,-2.478333333333333,3.3,0.8216666666666668,0.4108333333333334,gamble,lose,0.8216666666666668,111.87916666666668,418.69892671301386,None,418.69892671301386,None,418.69892671301386,None,418.69892671301386,None,418.69892671301386,None,418.69892671301386,None,418.69892671301386,None,1,1.0506683484982204,418.69892671301386,None,419.7826909034593,None,419.7826909034593,None,419.7826909034593,None,419.7826909034593,None,419.7826909034593,None,419.7826909034593,None,419.7826909034593,None,423.76755154766215,None,423.76755154766215,None,423.76755154766215,None,423.76755154766215,None,423.76755154766215,None,423.76755154766215,None,423.76755154766215,None,433.2711417569499,None,424.76795504622896,None,425.76832430661307,None,0.56,7.502764973125522,428.7694637660843,None,None,428.7694637660843,None,,,,,,,,,,,,,,,,,,,,24252,2019_Dec_11_1635,Mmi_3levels,3.1.5,59.97294164579859,
,,,2,0,8.5,,,,,,,,,0,1,1,1,0,0,0,18,,,,,,,,,,,,,,,,,,,,,,,,,,,,,,,,,,,,,,,,,,,,,,,,,442.7414674932479,None,0.57,6.734965438636209,445.75927838713324,None,4,445.75927838713324,None,449.47734680333815,None,False,False,False,0.57,0.57,0.57,2.0425,2.125,0.08250000000000002,1.10375,gamble,win,2.125,114.00416666666668,452.51182209201033,None,452.51182209201033,None,452.51182209201033,None,452.51182209201033,None,452.51182209201033,None,452.51182209201033,None,452.51182209201033,None,1,1.7509780280470295,452.51182209201033,None,454.29590524151354,None,454.29590524151354,None,454.29590524151354,None,454.29590524151354,None,454.29590524151354,None,454.29590524151354,None,454.29590524151354,None,458.2807111686234,None,458.2807111686234,None,458.2807111686234,None,458.2807111686234,None,458.2807111686234,None,458.2807111686234,None,458.2807111686234,None,459.28111786701993,None,,,,,,,,,,,,435.2719266752556,None,4,7.453083132224492,435.2719266752556,None,3.701763362330894,,,,,,,,,,,,,24252,2019_Dec_11_1635,Mmi_3levels,3.1.5,59.97294164579859,
,,,2,0,9.3,,,,,,,,,0,1,1,1,0,1,1,5,,,,,,,,,,,,,,,,,,,,,,,,,,,,,,,,,,,,,,,,,,,,,,,,,,,,,,,,,,,,False,True,False,0.57,0.57,1.14,-9.12,9.3,0.1800000000000015,0.09000000000000075,gamble,lose,0.1800000000000015,114.18416666666668,461.2985479811323,None,461.2985479811323,None,461.2985479811323,None,461.2985479811323,None,461.2985479811323,None,461.2985479811323,None,461.2985479811323,None,1,1.8342974421193503,461.2985479811323,None,463.16591118679753,None,463.16591118679753,None,463.16591118679753,None,463.16591118679753,None,463.16591118679753,None,463.16591118679753,None,463.16591118679753,None,467.1507519920542,None,467.1507519920542,None,467.1507519920542,None,467.1507519920542,None,467.1507519920542,None,467.1507519920542,None,467.1507519920542,None,476.65440811784174,None,468.1511852490403,None,469.15151931129367,None,0.57,7.50282800977584,472.15267540988316,None,None,472.15267540988316,None,,,,,,,,,,,,,,,,,,,,24252,2019_Dec_11_1635,Mmi_3levels,3.1.5,59.97294164579859,
,,,2,0,-0.7,,,,,,,,,0,1,1,1,0,2,2,7,,,,,,,,,,,,,,,,,,,,,,,,,,,,,,,,,,,,,,,,,,,,,,,,,,,,,,,,,,,,False,False,False,0.57,0.57,1.71,2.1374999999999997,-0.175,-2.3124999999999996,-1.2437499999999997,certain,certain,-1.2437499999999997,112.94041666666668,478.67179823407787,None,478.67179823407787,None,478.67179823407787,None,478.67179823407787,None,478.67179823407787,None,478.67179823407787,None,478.67179823407787,None,3,1.967706995405024,478.67179823407787,None,480.67260299132977,None,480.67260299132977,None,480.67260299132977,None,480.67260299132977,None,480.67260299132977,None,480.67260299132977,None,480.67260299132977,None,484.67415778873874,None,484.67415778873874,None,484.67415778873874,None,484.67415778873874,None,484.67415778873874,None,484.67415778873874,None,484.67415778873874,None,485.6578383356282,None,,,,,,,,,,,,,,,,,,,,,,,,,,,,,,,24252,2019_Dec_11_1635,Mmi_3levels,3.1.5,59.97294164579859,
,,,2,0,12.1,,,,,,,,,0,1,1,1,0,3,3,14,,,,,,,,,,,,,,,,,,,,,,,,,,,,,,,,,,,,,,,,,,,,,,,,,,,,,,,,,,,,False,False,True,0.57,0.57,2.28,2.185,3.025,0.8399999999999999,1.9324999999999999,gamble,win,3.025,115.96541666666668,487.6752543704879,None,487.6752543704879,None,487.6752543704879,None,487.6752543704879,None,487.6752543704879,None,487.6752543704879,None,487.6752543704879,None,1,1.3841495139768085,487.6752543704879,None,489.09246068848915,None,489.09246068848915,None,489.09246068848915,None,489.09246068848915,None,489.09246068848915,None,489.09246068848915,None,489.09246068848915,None,493.0773312521651,None,493.0773312521651,None,493.0773312521651,None,493.0773312521651,None,493.0773312521651,None,493.0773312521651,None,493.0773312521651,None,502.58099185771243,None,494.0777149117839,None,495.07807521264476,None,0.57,7.502815210456902,498.0792098723723,None,None,498.0792098723723,None,,,,,,,,,,,,,,,,,,,,24252,2019_Dec_11_1635,Mmi_3levels,3.1.5,59.97294164579859,
,,,2,0,5.3,,,,,,,,,0,1,1,1,0,4,4,20,,,,,,,,,,,,,,,,,,,,,,,,,,,,,,,,,,,,,,,,,,,,,,,,,,,,,,,,,,,,False,True,False,0.57,0.57,2.8499999999999996,-10.829999999999998,5.3,-5.5299999999999985,-0.11499999999999932,certain,certain,-0.11499999999999932,115.85041666666669,504.5984267715703,None,504.5984267715703,None,504.5984267715703,None,504.5984267715703,None,504.5984267715703,None,504.5984267715703,None,504.5984267715703,None,3,1.8509218390317983,504.5984267715703,None,506.4824450925171,None,506.4824450925171,None,506.4824450925171,None,506.4824450925171,None,506.4824450925171,None,506.4824450925171,None,506.4824450925171,None,510.4672964572128,None,510.4672964572128,None,510.4672964572128,None,510.4672964572128,None,510.4672964572128,None,510.4672964572128,None,510.4672964572128,None,511.4676817167474,None,,,,,,,,,,,,,,,,,,,,,,,,,,,,,,,24252,2019_Dec_11_1635,Mmi_3levels,3.1.5,59.97294164579859,
,,,2,0,12.3,,,,,,,,,0,1,1,1,0,5,5,16,,,,,,,,,,,,,,,,,,,,,,,,,,,,,,,,,,,,,,,,,,,,,,,,,,,,,,,,,,,,False,True,False,0.57,0.57,3.4199999999999995,-11.399999999999999,12.3,0.9000000000000021,0.45000000000000107,gamble,lose,0.9000000000000021,116.7504166666667,513.4851220703167,None,513.4851220703167,None,513.4851220703167,None,513.4851220703167,None,513.4851220703167,None,513.4851220703167,None,513.4851220703167,None,1,1.4506384620835888,513.4851220703167,None,514.9690189257144,None,514.9690189257144,None,514.9690189257144,None,514.9690189257144,None,514.9690189257144,None,514.9690189257144,None,514.9690189257144,None,518.9705407648744,None,518.9705407648744,None,518.9705407648744,None,518.9705407648744,None,518.9705407648744,None,518.9705407648744,None,518.9705407648744,None,519.9542405107441,None,,,,,,,,,,,,,,,,,,,,,,,,,,,,,,,24252,2019_Dec_11_1635,Mmi_3levels,3.1.5,59.97294164579859,
,,,2,0,0.3,,,,,,,,,0,1,1,1,0,6,6,11,,,,,,,,,,,,,,,,,,,,,,,,,,,,,,,,,,,,,,,,,,,,,,,,,,,,,,,,,,,,False,True,True,0.57,0.57,3.9899999999999993,-11.969999999999999,0.3,-11.669999999999998,-5.684999999999999,certain,certain,-5.684999999999999,111.06541666666669,521.9717819789421,None,521.9717819789421,None,521.9717819789421,None,521.9717819789421,None,521.9717819789421,None,521.9717819789421,None,521.9717819789421,None,3,1.217261739056994,521.9717819789421,None,523.2221680384337,None,523.2221680384337,None,523.2221680384337,None,523.2221680384337,None,523.2221680384337,None,523.2221680384337,None,523.2221680384337,None,527.2236661988518,None,527.2236661988518,None,527.2236661988518,None,527.2236661988518,None,527.2236661988518,None,527.2236661988518,None,527.2236661988518,None,536.710642250684,None,528.2073496255889,None,529.2077588838492,None,0.57,7.502821930098435,532.2088887438294,None,None,532.2088887438294,None,,,,,,,,,,,,,,,,,,,,24252,2019_Dec_11_1635,Mmi_3levels,3.1.5,59.97294164579859,
,,,2,0,11.5,,,,,,,,,0,1,1,1,0,7,7,4,,,,,,,,,,,,,,,,,,,,,,,,,,,,,,,,,,,,,,,,,,,,,,,,,,,,,,,,,,,,False,True,False,0.57,0.57,4.56,-12.54,11.5,-1.0399999999999991,-0.5199999999999996,gamble,lose,-1.0399999999999991,110.0254166666667,538.7280736447283,None,538.7280736447283,None,538.7280736447283,None,538.7280736447283,None,538.7280736447283,None,538.7280736447283,None,538.7280736447283,None,1,1.400771351025469,538.7280736447283,None,540.1619648364285,None,540.1619648364285,None,540.1619648364285,None,540.1619648364285,None,540.1619648364285,None,540.1619648364285,None,540.1619648364285,None,544.163580110624,None,544.163580110624,None,544.163580110624,None,544.163580110624,None,544.163580110624,None,544.163580110624,None,544.163580110624,None,545.1471886613381,None,,,,,,,,,,,,,,,,,,,,,,,,,,,,,,,24252,2019_Dec_11_1635,Mmi_3levels,3.1.5,59.97294164579859,
,,,2,0,8.9,,,,,,,,,0,1,1,1,0,8,8,19,,,,,,,,,,,,,,,,,,,,,,,,,,,,,,,,,,,,,,,,,,,,,,,,,,,,,,,,,,,,False,False,True,0.57,0.57,5.13,2.4225,2.225,-0.1974999999999998,1.0137500000000002,gamble,win,2.225,112.2504166666667,547.1646062961136,None,547.1646062961136,None,547.1646062961136,None,547.1646062961136,None,547.1646062961136,None,547.1646062961136,None,547.1646062961136,None,1,1.334083373491012,547.1646062961136,None,548.5317963909765,None,548.5317963909765,None,548.5317963909765,None,548.5317963909765,None,548.5317963909765,None,548.5317963909765,None,548.5317963909765,None,552.5166695145163,None,552.5166695145163,None,552.5166695145163,None,552.5166695145163,None,552.5166695145163,None,552.5166695145163,None,552.5166695145163,None,562.0202958818827,None,553.5170467744756,None,554.5174550727861,None,0.57,7.502764973123703,557.5185638138901,None,None,557.5185638138901,None,,,,,,,,,,,,,,,,,,,,24252,2019_Dec_11_1635,Mmi_3levels,3.1.5,59.97294164579859,
,,,2,0,7.1,,,,,,,,,0,1,1,1,0,9,9,15,,,,,,,,,,,,,,,,,,,,,,,,,,,,,,,,,,,,,,,,,,,,,,,,,,,,,,,,,,,,False,True,True,0.57,0.57,5.7,-13.68,7.1,-6.58,0.2599999999999998,certain,certain,0.2599999999999998,112.5104166666667,564.0377275959108,None,564.0377275959108,None,564.0377275959108,None,564.0377275959108,None,564.0377275959108,None,564.0377275959108,None,564.0377275959108,None,3,1.967706035455194,564.0377275959108,None,566.0385214737398,None,566.0385214737398,None,566.0385214737398,None,566.0385214737398,None,566.0385214737398,None,566.0385214737398,None,566.0385214737398,None,570.0233465998281,None,570.0233465998281,None,570.0233465998281,None,570.0233465998281,None,570.0233465998281,None,570.0233465998281,None,570.0233465998281,None,571.0237276995849,None,,,,,,,,,,,,,,,,,,,,,,,,,,,,,,,24252,2019_Dec_11_1635,Mmi_3levels,3.1.5,59.97294164579859,
,,,2,0,9.5,,,,,,,,,0,1,1,1,0,10,10,21,,,,,,,,,,,,,,,,,,,,,,,,,,,,,,,,,,,,,,,,,,,,,,,,,,,,,,,,,,,,False,False,True,0.57,0.57,6.2700000000000005,2.5175,2.375,-0.14250000000000007,1.11625,certain,certain,1.11625,113.6266666666667,573.0412272500089,None,573.0412272500089,None,573.0412272500089,None,573.0412272500089,None,573.0412272500089,None,573.0412272500089,None,573.0412272500089,None,3,1.8676054327988822,573.0412272500089,None,574.9418738076638,None,574.9418738076638,None,574.9418738076638,None,574.9418738076638,None,574.9418738076638,None,574.9418738076638,None,574.9418738076638,None,578.9267024535657,None,578.9267024535657,None,578.9267024535657,None,578.9267024535657,None,578.9267024535657,None,578.9267024535657,None,578.9267024535657,None,579.9271264310446,None,,,,,,,,,,,,,,,,,,,,,,,,,,,,,,,24252,2019_Dec_11_1635,Mmi_3levels,3.1.5,59.97294164579859,
,,,2,0,3.3,,,,,,,,,0,1,1,1,0,11,11,8,,,,,,,,,,,,,,,,,,,,,,,,,,,,,,,,,,,,,,,,,,,,,,,,,,,,,,,,,,,,False,True,True,0.57,0.57,6.840000000000001,-14.82,3.3,-11.52,-4.109999999999999,certain,certain,-4.109999999999999,109.5166666666667,581.9445639047663,None,581.9445639047663,None,581.9445639047663,None,581.9445639047663,None,581.9445639047663,None,581.9445639047663,None,581.9445639047663,None,3,1.884276547229092,581.9445639047663,None,583.8619385338261,None,583.8619385338261,None,583.8619385338261,None,583.8619385338261,None,583.8619385338261,None,583.8619385338261,None,583.8619385338261,None,587.8468094174841,None,587.8468094174841,None,587.8468094174841,None,587.8468094174841,None,587.8468094174841,None,587.8468094174841,None,587.8468094174841,None,597.3504383447162,None,588.8471965969165,None,589.8475757767756,None,0.56,7.50275633358433,592.848744994666,None,None,592.848744994666,None,,,,,,,,,,,,,,,,,,,,24252,2019_Dec_11_1635,Mmi_3levels,3.1.5,59.97294164579859,
,,,2,0,3.7,,,,,,,,,0,1,1,1,0,12,12,22,,,,,,,,,,,,,,,,,,,,,,,,,,,,,,,,,,,,,,,,,,,,,,,,,,,,,,,,,,,,False,True,False,0.56,0.56,7.4,-15.240000000000002,3.7,-11.540000000000003,-3.9200000000000013,certain,certain,-3.9200000000000013,105.59666666666669,599.3678511797461,None,599.3678511797461,None,599.3678511797461,None,599.3678511797461,None,599.3678511797461,None,599.3678511797461,None,599.3678511797461,None,3,1.9343881253025756,599.3678511797461,None,601.3352692304979,None,601.3352692304979,None,601.3352692304979,None,601.3352692304979,None,601.3352692304979,None,601.3352692304979,None,601.3352692304979,None,605.3201177153478,None,605.3201177153478,None,605.3201177153478,None,605.3201177153478,None,605.3201177153478,None,605.3201177153478,None,605.3201177153478,None,606.3205564120435,None,,,,,,,,,,,,,,,,,,,,,,,,,,,,,,,24252,2019_Dec_11_1635,Mmi_3levels,3.1.5,59.97294164579859,
,,,2,0,12.7,,,,,,,,,0,1,1,1,0,13,13,3,,,,,,,,,,,,,,,,,,,,,,,,,,,,,,,,,,,,,,,,,,,,,,,,,,,,,,,,,,,,False,False,False,0.56,0.56,7.960000000000001,2.6233333333333335,3.175,0.5516666666666663,1.863333333333333,gamble,win,3.175,108.77166666666669,608.3379609275162,None,608.3379609275162,None,608.3379609275162,None,608.3379609275162,None,608.3379609275162,None,608.3379609275162,None,608.3379609275162,None,1,1.63422423000884,608.3379609275162,None,610.0053097979435,None,610.0053097979435,None,610.0053097979435,None,610.0053097979435,None,610.0053097979435,None,610.0053097979435,None,610.0053097979435,None,613.9901758818578,None,613.9901758818578,None,613.9901758818578,None,613.9901758818578,None,613.9901758818578,None,613.9901758818578,None,613.9901758818578,None,623.4937404925058,None,614.9904917050808,None,615.9908849641906,None,0.57,7.502807850847603,618.9920148241727,None,None,618.9920148241727,None,,,,,,,,,,,,,,,,,,,,24252,2019_Dec_11_1635,Mmi_3levels,3.1.5,59.97294164579859,
,,,2,0,-0.5,,,,,,,,,0,1,1,1,0,14,14,25,,,,,,,,,,,,,,,,,,,,,,,,,,,,,,,,,,,,,,,,,,,,,,,,,,,,,,,,,,,,False,True,False,0.57,0.57,8.530000000000001,-16.51,-0.5,-17.01,-8.755,certain,certain,-8.755,100.0166666666667,625.5111597271953,None,625.5111597271953,None,625.5111597271953,None,625.5111597271953,None,625.5111597271953,None,625.5111597271953,None,625.5111597271953,None,3,1.3674451213155407,625.5111597271953,None,626.9117067701372,None,626.9117067701372,None,626.9117067701372,None,626.9117067701372,None,626.9117067701372,None,626.9117067701372,None,626.9117067701372,None,630.9132698871035,None,630.9132698871035,None,630.9132698871035,None,630.9132698871035,None,630.9132698871035,None,630.9132698871035,None,630.9132698871035,None,631.8969254753192,None,,,,,,,,,,,,,,,,,,,,,,,,,,,,,,,24252,2019_Dec_11_1635,Mmi_3levels,3.1.5,59.97294164579859,
,,,2,0,10.3,,,,,,,,,0,1,1,1,0,15,15,12,,,,,,,,,,,,,,,,,,,,,,,,,,,,,,,,,,,,,,,,,,,,,,,,,,,,,,,,,,,,False,False,True,0.57,0.57,9.100000000000001,2.7533333333333334,2.575,-0.17833333333333323,1.1983333333333335,certain,certain,1.1983333333333335,101.21500000000003,633.9143687087344,None,633.9143687087344,None,633.9143687087344,None,633.9143687087344,None,633.9143687087344,None,633.9143687087344,None,633.9143687087344,None,3,2.3178083980183146,633.9143687087344,None,636.26529310763,None,636.26529310763,None,636.26529310763,None,636.26529310763,None,636.26529310763,None,636.26529310763,None,636.26529310763,None,640.2501355128024,None,640.2501355128024,None,640.2501355128024,None,640.2501355128024,None,640.2501355128024,None,640.2501355128024,None,640.2501355128024,None,649.753759640289,None,641.2505450910448,None,642.2509965870613,None,0.56,7.5028033710841555,645.2519846945725,None,None,645.2519846945725,None,,,,,,,,,,,,,,,,,,,,24252,2019_Dec_11_1635,Mmi_3levels,3.1.5,59.97294164579859,
,,,2,0,6.9,,,,,,,,,0,1,1,1,0,16,16,17,,,,,,,,,,,,,,,,,,,,,,,,,,,,,,,,,,,,,,,,,,,,,,,,,,,,,,,,,,,,False,False,False,0.56,0.56,9.660000000000002,2.7650000000000006,1.725,-1.0400000000000005,0.3424999999999998,gamble,win,1.725,102.94000000000003,651.7711945541469,None,651.7711945541469,None,651.7711945541469,None,651.7711945541469,None,651.7711945541469,None,651.7711945541469,None,651.7711945541469,None,1,1.584188167926186,651.7711945541469,None,653.3885108823033,None,653.3885108823033,None,653.3885108823033,None,653.3885108823033,None,653.3885108823033,None,653.3885108823033,None,653.3885108823033,None,657.3733254489507,None,657.3733254489507,None,657.3733254489507,None,657.3733254489507,None,657.3733254489507,None,657.3733254489507,None,657.3733254489507,None,658.3736831899496,None,,,,,,,,,,,,,,,,,,,,,,,,,,,,,,,24252,2019_Dec_11_1635,Mmi_3levels,3.1.5,59.97294164579859,
,,,2,0,4.7,,,,,,,,,0,1,1,1,0,17,17,2,,,,,,,,,,,,,,,,,,,,,,,,,,,,,,,,,,,,,,,,,,,,,,,,,,,,,,,,,,,,False,True,False,0.56,0.56,10.220000000000002,-18.060000000000002,4.7,-13.360000000000003,-4.330000000000002,certain,certain,-4.330000000000002,98.61000000000003,660.3911280232805,None,660.3911280232805,None,660.3911280232805,None,660.3911280232805,None,660.3911280232805,None,660.3911280232805,None,660.3911280232805,None,3,1.7676270636511617,660.3911280232805,None,662.1918864469935,None,662.1918864469935,None,662.1918864469935,None,662.1918864469935,None,662.1918864469935,None,662.1918864469935,None,662.1918864469935,None,666.1766872543722,None,666.1766872543722,None,666.1766872543722,None,666.1766872543722,None,666.1766872543722,None,666.1766872543722,None,666.1766872543722,None,667.1770702740268,None,,,,,,,,,,,,,,,,,,,,,,,,,,,,,,,24252,2019_Dec_11_1635,Mmi_3levels,3.1.5,59.97294164579859,
,,,2,0,-0.1,,,,,,,,,0,1,1,1,0,18,18,9,,,,,,,,,,,,,,,,,,,,,,,,,,,,,,,,,,,,,,,,,,,,,,,,,,,,,,,,,,,,False,True,False,0.56,0.56,10.780000000000003,-18.620000000000005,-0.1,-18.720000000000006,-9.410000000000004,gamble,lose,-18.720000000000006,79.89000000000001,669.1944984682432,None,669.1944984682432,None,669.1944984682432,None,669.1944984682432,None,669.1944984682432,None,669.1944984682432,None,669.1944984682432,None,1,1.5008338757033926,669.1944984682432,None,670.7284077069835,None,670.7284077069835,None,670.7284077069835,None,670.7284077069835,None,670.7284077069835,None,670.7284077069835,None,670.7284077069835,None,674.7299663441863,None,674.7299663441863,None,674.7299663441863,None,674.7299663441863,None,674.7299663441863,None,674.7299663441863,None,674.7299663441863,None,684.2169161574147,None,675.7136804892925,None,676.714022551123,None,0.58,7.502835369385139,679.7151424916319,None,None,679.7151424916319,None,,,,,,,,,,,,,,,,,,,,24252,2019_Dec_11_1635,Mmi_3levels,3.1.5,59.97294164579859,
,,,2,0,3.1,,,,,,,,,0,1,1,1,0,19,19,1,,,,,,,,,,,,,,,,,,,,,,,,,,,,,,,,,,,,,,,,,,,,,,,,,,,,,,,,,,,,False,True,True,0.58,0.58,11.360000000000003,-19.480000000000004,3.1,-16.380000000000003,-6.6400000000000015,certain,certain,-6.6400000000000015,73.25000000000001,686.234434586835,None,686.234434586835,None,686.234434586835,None,686.234434586835,None,686.234434586835,None,686.234434586835,None,686.234434586835,None,3,2.084077773786703,686.234434586835,None,688.3517829132925,None,688.3517829132925,None,688.3517829132925,None,688.3517829132925,None,688.3517829132925,None,688.3517829132925,None,688.3517829132925,None,692.3533233114667,None,692.3533233114667,None,692.3533233114667,None,692.3533233114667,None,692.3533233114667,None,692.3533233114667,None,692.3533233114667,None,693.3370419363328,None,,,,,,,,,,,,,,,,,,,,,,,,,,,,,,,24252,2019_Dec_11_1635,Mmi_3levels,3.1.5,59.97294164579859,
,,,2,0,2.7,,,,,,,,,0,1,1,1,0,20,20,13,,,,,,,,,,,,,,,,,,,,,,,,,,,,,,,,,,,,,,,,,,,,,,,,,,,,,,,,,,,,False,True,False,0.58,0.58,11.940000000000003,-20.060000000000002,2.7,-17.360000000000003,-7.330000000000002,gamble,lose,-17.360000000000003,55.890000000000015,695.3544566912624,None,695.3544566912624,None,695.3544566912624,None,695.3544566912624,None,695.3544566912624,None,695.3544566912624,None,695.3544566912624,None,1,2.5845439890254056,695.3544566912624,None,697.9721499593961,None,697.9721499593961,None,697.9721499593961,None,697.9721499593961,None,697.9721499593961,None,697.9721499593961,None,697.9721499593961,None,701.9569542865884,None,701.9569542865884,None,701.9569542865884,None,701.9569542865884,None,701.9569542865884,None,701.9569542865884,None,701.9569542865884,None,711.4606190519171,None,702.9573545853254,None,703.9577593638223,None,0.58,7.50278513205194,706.9588898637721,None,None,706.9588898637721,None,,,,,,,,,,,,,,,,,,,,24252,2019_Dec_11_1635,Mmi_3levels,3.1.5,59.97294164579859,
,,,2,0,0.1,,,,,,,,,0,1,1,1,0,21,21,0,,,,,,,,,,,,,,,,,,,,,,,,,,,,,,,,,,,,,,,,,,,,,,,,,,,,,,,,,,,,False,True,False,0.58,0.58,12.520000000000003,-20.64,0.1,-20.54,-10.219999999999999,certain,certain,-10.219999999999999,45.670000000000016,713.478043086352,None,713.478043086352,None,713.478043086352,None,713.478043086352,None,713.478043086352,None,713.478043086352,None,713.478043086352,None,3,2.2344509059657867,713.478043086352,None,715.7455642356272,None,715.7455642356272,None,715.7455642356272,None,715.7455642356272,None,715.7455642356272,None,715.7455642356272,None,715.7455642356272,None,719.7304674375682,None,719.7304674375682,None,719.7304674375682,None,719.7304674375682,None,719.7304674375682,None,719.7304674375682,None,719.7304674375682,None,720.7308616566279,None,,,,,,,,,,,,,,,,,,,,,,,,,,,,,,,24252,2019_Dec_11_1635,Mmi_3levels,3.1.5,59.97294164579859,
,,,2,0,2.5,,,,,,,,,0,1,1,1,0,22,22,24,,,,,,,,,,,,,,,,,,,,,,,,,,,,,,,,,,,,,,,,,,,,,,,,,,,,,,,,,,,,False,True,True,0.58,0.58,13.100000000000003,-21.220000000000002,2.5,-18.720000000000002,-8.110000000000001,gamble,lose,-18.720000000000002,26.950000000000014,722.7482850510987,None,722.7482850510987,None,722.7482850510987,None,722.7482850510987,None,722.7482850510987,None,722.7482850510987,None,722.7482850510987,None,1,2.4178354045834567,722.7482850510987,None,725.1991980586008,None,725.1991980586008,None,725.1991980586008,None,725.1991980586008,None,725.1991980586008,None,725.1991980586008,None,725.1991980586008,None,729.2006990988648,None,729.2006990988648,None,729.2006990988648,None,729.2006990988648,None,729.2006990988648,None,729.2006990988648,None,729.2006990988648,None,738.6876546717849,None,730.184426363272,None,731.1848036232313,None,0.58,7.502782892173855,734.1859126843174,None,None,734.1859126843174,None,,,,,,,,,,,,,,,,,,,,24252,2019_Dec_11_1635,Mmi_3levels,3.1.5,59.97294164579859,
,,,2,0,8.7,,,,,,,,,0,1,1,1,0,23,23,26,,,,,,,,,,,,,,,,,,,,,,,,,,,,,,,,,,,,,,,,,,,,,,,,,,,,,,,,,,,,False,True,False,0.58,0.58,13.680000000000003,-21.800000000000004,8.7,-13.100000000000005,-2.200000000000003,gamble,lose,-13.100000000000005,13.850000000000009,740.7051551821587,None,740.7051551821587,None,740.7051551821587,None,740.7051551821587,None,740.7051551821587,None,740.7051551821587,None,740.7051551821587,None,None,,740.7051551821587,None,743.7063000813414,None,743.7063000813414,None,743.7063000813414,None,743.7063000813414,None,743.7063000813414,None,743.7063000813414,None,743.7063000813414,None,747.7077656034908,None,747.7077656034908,None,747.7077656034908,None,747.7077656034908,None,747.7077656034908,None,747.7077656034908,None,747.7077656034908,None,748.6914765487654,None,,,,,,,,,,,,,,,,,,,,,,,,,,,,,,,24252,2019_Dec_11_1635,Mmi_3levels,3.1.5,59.97294164579859,
,,,2,0,11.7,,,,,,,,,0,1,1,1,0,24,24,10,,,,,,,,,,,,,,,,,,,,,,,,,,,,,,,,,,,,,,,,,,,,,,,,,,,,,,,,,,,,False,True,False,0.58,0.58,14.260000000000003,-22.380000000000003,11.7,-10.680000000000003,0.509999999999998,certain,certain,0.509999999999998,14.360000000000007,750.7089399411107,None,750.7089399411107,None,750.7089399411107,None,750.7089399411107,None,750.7089399411107,None,750.7089399411107,None,750.7089399411107,None,3,1.5008332357356267,750.7089399411107,None,752.2428718986466,None,752.2428718986466,None,752.2428718986466,None,752.2428718986466,None,752.2428718986466,None,752.2428718986466,None,752.2428718986466,None,756.2443706990289,None,756.2443706990289,None,756.2443706990289,None,756.2443706990289,None,756.2443706990289,None,756.2443706990289,None,756.2443706990289,None,757.228074924662,None,,,,,,,,,,,,,,,,,,,,,,,,,,,,,,,24252,2019_Dec_11_1635,Mmi_3levels,3.1.5,59.97294164579859,
,,,2,0,7.9,,,,,,,,,0,1,1,1,0,25,25,6,,,,,,,,,,,,,,,,,,,,,,,,,,,,,,,,,,,,,,,,,,,,,,,,,,,,,,,,,,,,False,True,True,0.58,0.58,14.840000000000003,-22.96,7.9,-15.06,-3.58,certain,certain,-3.58,10.780000000000006,759.2454906395378,None,759.2454906395378,None,759.2454906395378,None,759.2454906395378,None,759.2454906395378,None,759.2454906395378,None,759.2454906395378,None,3,1.98446802505714,759.2454906395378,None,761.2629841102844,None,761.2629841102844,None,761.2629841102844,None,761.2629841102844,None,761.2629841102844,None,761.2629841102844,None,761.2629841102844,None,765.2644864304802,None,765.2644864304802,None,765.2644864304802,None,765.2644864304802,None,765.2644864304802,None,765.2644864304802,None,765.2644864304802,None,774.7514224844363,None,766.2481698572174,None,767.2485403975352,None,0.58,7.502810730693454,770.2497268945062,None,None,770.2497268945062,None,,,,,,,,,,,,,,,,,,,,24252,2019_Dec_11_1635,Mmi_3levels,3.1.5,59.97294164579859,
,,,2,0,0.7,,,,,,,,,0,1,1,1,0,26,26,23,,,,,,,,,,,,,,,,,,,,,,,,,,,,,,,,,,,,,,,,,,,,,,,,,,,,,,,,,,,,False,False,False,0.58,0.58,15.420000000000003,3.3150000000000004,0.175,-3.1400000000000006,-1.4825000000000004,gamble,win,0.175,10.955000000000007,776.76885675833,None,776.76885675833,None,776.76885675833,None,776.76885675833,None,776.76885675833,None,776.76885675833,None,776.76885675833,None,1,1.9009882995014777,776.76885675833,None,778.7029236206963,None,778.7029236206963,None,778.7029236206963,None,778.7029236206963,None,778.7029236206963,None,778.7029236206963,None,778.7029236206963,None,782.7044467397882,None,782.7044467397882,None,782.7044467397882,None,782.7044467397882,None,782.7044467397882,None,782.7044467397882,None,782.7044467397882,None,783.6881263267296,None,,,,,,,,,,,,,,,,,,,,,,,,,,,,,,,24252,2019_Dec_11_1635,Mmi_3levels,3.1.5,59.97294164579859,
,,,3,1,13.1,,,,,,,,,0,2,2,2,0,0,0,0,,,,,,,,,,,,,,,,,,,,,,,,,,,,,,,,,,,,,,,,,,,,,,,,,792.8749954402429,None,0.58,5.751248413682333,795.8761275401066,None,4,795.8761275401066,None,798.6272006031049,None,True,True,False,0.58,-0.42000000000000004,-0.42000000000000004,6.300000000000001,13.1,6.799999999999999,3.3999999999999995,gamble,win,13.1,24.055000000000007,801.6616867711982,None,801.6616867711982,None,801.6616867711982,None,801.6616867711982,None,801.6616867711982,None,801.6616867711982,None,801.6616867711982,None,1,1.3839466447570885,801.6616867711982,None,803.0788918092676,None,803.0788918092676,None,803.0788918092676,None,803.0788918092676,None,803.0788918092676,None,803.0788918092676,None,803.0788918092676,None,807.063691336718,None,807.063691336718,None,807.063691336718,None,807.063691336718,None,807.063691336718,None,807.063691336718,None,807.063691336718,None,816.5673519422653,None,808.0641297134298,None,809.0645316120808,None,0.58,7.502793451611069,812.0656400332027,None,None,812.0656400332027,None,785.6889198845765,None,4,7.169614350084885,785.6889198845765,None,2.734466905119916,,,,,,,,,,,,,24252,2019_Dec_11_1635,Mmi_3levels,3.1.5,59.97294164579859,
,,,3,1,3.7,,,,,,,,,0,2,2,2,0,1,1,11,,,,,,,,,,,,,,,,,,,,,,,,,,,,,,,,,,,,,,,,,,,,,,,,,,,,,,,,,,,,True,True,True,0.58,-0.42000000000000004,-0.8400000000000001,6.720000000000001,3.7,-3.0200000000000005,0.33999999999999986,certain,certain,0.33999999999999986,24.395000000000007,818.5848098948973,None,818.5848098948973,None,818.5848098948973,None,818.5848098948973,None,818.5848098948973,None,818.5848098948973,None,818.5848098948973,None,3,1.5841913677577395,818.5848098948973,None,820.2020894250109,None,820.2020894250109,None,820.2020894250109,None,820.2020894250109,None,820.2020894250109,None,820.2020894250109,None,820.2020894250109,None,824.1869391897908,None,824.1869391897908,None,824.1869391897908,None,824.1869391897908,None,824.1869391897908,None,824.1869391897908,None,824.1869391897908,None,825.1873010905674,None,,,,,,,,,,,,,,,,,,,,,,,,,,,,,,,24252,2019_Dec_11_1635,Mmi_3levels,3.1.5,59.97294164579859,
,,,3,1,8.1,,,,,,,,,0,2,2,2,0,2,2,8,,,,,,,,,,,,,,,,,,,,,,,,,,,,,,,,,,,,,,,,,,,,,,,,,,,,,,,,,,,,True,False,False,0.58,-0.42000000000000004,-1.2600000000000002,-1.5750000000000002,8.1,6.5249999999999995,3.2624999999999997,gamble,lose,6.5249999999999995,30.920000000000005,827.2047571233034,None,827.2047571233034,None,827.2047571233034,None,827.2047571233034,None,827.2047571233034,None,827.2047571233034,None,827.2047571233034,None,1,0.9839867706250516,827.2047571233034,None,828.2218134972663,None,828.2218134972663,None,828.2218134972663,None,828.2218134972663,None,828.2218134972663,None,828.2218134972663,None,828.2218134972663,None,832.2066616621323,None,832.2066616621323,None,832.2066616621323,None,832.2066616621323,None,832.2066616621323,None,832.2066616621323,None,832.2066616621323,None,833.2070469216687,None,,,,,,,,,,,,,,,,,,,,,,,,,,,,,,,24252,2019_Dec_11_1635,Mmi_3levels,3.1.5,59.97294164579859,
,,,3,1,9.3,,,,,,,,,0,2,2,2,0,3,3,13,,,,,,,,,,,,,,,,,,,,,,,,,,,,,,,,,,,,,,,,,,,,,,,,,,,,,,,,,,,,True,True,True,0.58,-0.42000000000000004,-1.6800000000000002,7.5600000000000005,9.3,1.7400000000000002,0.8700000000000001,gamble,win,9.3,40.220000000000006,835.2245835901213,None,835.2245835901213,None,835.2245835901213,None,835.2245835901213,None,835.2245835901213,None,835.2245835901213,None,835.2245835901213,None,1,1.167244555970683,835.2245835901213,None,836.4249207882076,None,836.4249207882076,None,836.4249207882076,None,836.4249207882076,None,836.4249207882076,None,836.4249207882076,None,836.4249207882076,None,840.4264477470952,None,840.4264477470952,None,840.4264477470952,None,840.4264477470952,None,840.4264477470952,None,840.4264477470952,None,840.4264477470952,None,849.9134401180618,None,841.410155812524,None,842.4105538713793,None,0.57,7.502915365133958,845.4116712520245,None,None,845.4116712520245,None,,,,,,,,,,,,,,,,,,,,24252,2019_Dec_11_1635,Mmi_3levels,3.1.5,59.97294164579859,
,,,3,1,7.1,,,,,,,,,0,2,2,2,0,4,4,21,,,,,,,,,,,,,,,,,,,,,,,,,,,,,,,,,,,,,,,,,,,,,,,,,,,,,,,,,,,,True,True,True,0.57,-0.43000000000000005,-2.1100000000000003,8.13,7.1,-1.0300000000000011,-0.5150000000000006,gamble,win,7.1,47.32000000000001,851.9308795116794,None,851.9308795116794,None,851.9308795116794,None,851.9308795116794,None,851.9308795116794,None,851.9308795116794,None,851.9308795116794,None,1,1.450794613789185,851.9308795116794,None,853.4147542882511,None,853.4147542882511,None,853.4147542882511,None,853.4147542882511,None,853.4147542882511,None,853.4147542882511,None,853.4147542882511,None,857.4162735675473,None,857.4162735675473,None,857.4162735675473,None,857.4162735675473,None,857.4162735675473,None,857.4162735675473,None,857.4162735675473,None,858.4000139512591,None,,,,,,,,,,,,,,,,,,,,,,,,,,,,,,,24252,2019_Dec_11_1635,Mmi_3levels,3.1.5,59.97294164579859,
,,,3,1,-0.5,,,,,,,,,0,2,2,2,0,5,5,20,,,,,,,,,,,,,,,,,,,,,,,,,,,,,,,,,,,,,,,,,,,,,,,,,,,,,,,,,,,,True,False,True,0.57,-0.43000000000000005,-2.5400000000000005,-1.7166666666666668,-0.5,-2.216666666666667,-1.3583333333333334,gamble,lose,-2.216666666666667,45.10333333333334,860.4174549447944,None,860.4174549447944,None,860.4174549447944,None,860.4174549447944,None,860.4174549447944,None,860.4174549447944,None,860.4174549447944,None,1,1.7509069918196474,860.4174549447944,None,862.2014248203141,None,862.2014248203141,None,862.2014248203141,None,862.2014248203141,None,862.2014248203141,None,862.2014248203141,None,862.2014248203141,None,866.2029476194239,None,866.2029476194239,None,866.2029476194239,None,866.2029476194239,None,866.2029476194239,None,866.2029476194239,None,866.2029476194239,None,875.6898871931935,None,867.1866995225228,None,868.1870591834177,None,0.57,7.502742254328041,871.1882108022419,None,None,871.1882108022419,None,,,,,,,,,,,,,,,,,,,,24252,2019_Dec_11_1635,Mmi_3levels,3.1.5,59.97294164579859,
,,,3,1,10.5,,,,,,,,,0,2,2,2,0,6,6,1,,,,,,,,,,,,,,,,,,,,,,,,,,,,,,,,,,,,,,,,,,,,,,,,,,,,,,,,,,,,True,True,True,0.57,-0.43000000000000005,-2.9700000000000006,8.990000000000002,10.5,1.509999999999998,0.754999999999999,gamble,win,10.5,55.60333333333334,877.7073512255029,None,877.7073512255029,None,877.7073512255029,None,877.7073512255029,None,877.7073512255029,None,877.7073512255029,None,877.7073512255029,None,1,1.434144298254978,877.7073512255029,None,879.1745769664722,None,879.1745769664722,None,879.1745769664722,None,879.1745769664722,None,879.1745769664722,None,879.1745769664722,None,879.1745769664722,None,883.1594270512342,None,883.1594270512342,None,883.1594270512342,None,883.1594270512342,None,883.1594270512342,None,883.1594270512342,None,883.1594270512342,None,884.1598094309247,None,,,,,,,,,,,,,,,,,,,,,,,,,,,,,,,24252,2019_Dec_11_1635,Mmi_3levels,3.1.5,59.97294164579859,
,,,3,1,12.7,,,,,,,,,0,2,2,2,0,7,7,4,,,,,,,,,,,,,,,,,,,,,,,,,,,,,,,,,,,,,,,,,,,,,,,,,,,,,,,,,,,,True,True,False,0.57,-0.43000000000000005,-3.400000000000001,9.420000000000002,12.7,3.2799999999999976,1.6399999999999988,gamble,win,12.7,68.30333333333334,886.1772757031158,None,886.1772757031158,None,886.1772757031158,None,886.1772757031158,None,886.1772757031158,None,886.1772757031158,None,886.1772757031158,None,1,1.200479590523173,886.1772757031158,None,887.4110543247934,None,887.4110543247934,None,887.4110543247934,None,887.4110543247934,None,887.4110543247934,None,887.4110543247934,None,887.4110543247934,None,891.395928408283,None,891.395928408283,None,891.395928408283,None,891.395928408283,None,891.395928408283,None,891.395928408283,None,891.395928408283,None,900.8995035783719,None,892.3962829494503,None,893.3966589294778,None,0.57,7.502754413686489,896.3977935892053,None,None,896.3977935892053,None,,,,,,,,,,,,,,,,,,,,24252,2019_Dec_11_1635,Mmi_3levels,3.1.5,59.97294164579859,
,,,3,1,3.5,,,,,,,,,0,2,2,2,0,8,8,9,,,,,,,,,,,,,,,,,,,,,,,,,,,,,,,,,,,,,,,,,,,,,,,,,,,,,,,,,,,,True,True,False,0.57,-0.43000000000000005,-3.830000000000001,9.850000000000001,3.5,-6.350000000000001,-1.4250000000000007,gamble,win,3.5,71.80333333333334,902.9169653707995,None,902.9169653707995,None,902.9169653707995,None,902.9169653707995,None,902.9169653707995,None,902.9169653707995,None,902.9169653707995,None,1,1.3674486411255202,902.9169653707995,None,904.3175005743706,None,904.3175005743706,None,904.3175005743706,None,904.3175005743706,None,904.3175005743706,None,904.3175005743706,None,904.3175005743706,None,908.3023733779282,None,908.3023733779282,None,908.3023733779282,None,908.3023733779282,None,908.3023733779282,None,908.3023733779282,None,908.3023733779282,None,909.3027090400956,None,,,,,,,,,,,,,,,,,,,,,,,,,,,,,,,24252,2019_Dec_11_1635,Mmi_3levels,3.1.5,59.97294164579859,
,,,3,1,11.5,,,,,,,,,0,2,2,2,0,9,9,26,,,,,,,,,,,,,,,,,,,,,,,,,,,,,,,,,,,,,,,,,,,,,,,,,,,,,,,,,,,,True,True,False,0.57,-0.43000000000000005,-4.260000000000001,10.280000000000001,11.5,1.2199999999999989,0.6099999999999994,gamble,win,11.5,83.30333333333334,911.3201733923906,None,911.3201733923906,None,911.3201733923906,None,911.3201733923906,None,911.3201733923906,None,911.3201733923906,None,911.3201733923906,None,1,1.184065102461318,911.3201733923906,None,912.5372984987025,None,912.5372984987025,None,912.5372984987025,None,912.5372984987025,None,912.5372984987025,None,912.5372984987025,None,912.5372984987025,None,916.5221559430775,None,916.5221559430775,None,916.5221559430775,None,916.5221559430775,None,916.5221559430775,None,916.5221559430775,None,916.5221559430775,None,917.5225274433415,None,,,,,,,,,,,,,,,,,,,,,,,,,,,,,,,24252,2019_Dec_11_1635,Mmi_3levels,3.1.5,59.97294164579859,
,,,3,1,9.5,,,,,,,,,0,2,2,2,0,10,10,12,,,,,,,,,,,,,,,,,,,,,,,,,,,,,,,,,,,,,,,,,,,,,,,,,,,,,,,,,,,,True,True,False,0.57,-0.43000000000000005,-4.69,10.71,9.5,-1.2100000000000009,-0.6050000000000004,gamble,win,9.5,92.80333333333334,919.5399258791385,None,919.5399258791385,None,919.5399258791385,None,919.5399258791385,None,919.5399258791385,None,919.5399258791385,None,919.5399258791385,None,1,0.8672892895956466,919.5399258791385,None,920.4403078108498,None,920.4403078108498,None,920.4403078108498,None,920.4403078108498,None,920.4403078108498,None,920.4403078108498,None,920.4403078108498,None,924.425164615257,None,924.425164615257,None,924.425164615257,None,924.425164615257,None,924.425164615257,None,924.425164615257,None,924.425164615257,None,933.928817541213,None,925.4255517946895,None,926.425949213577,None,0.56,7.50278897185126,929.427057954681,None,None,929.427057954681,None,,,,,,,,,,,,,,,,,,,,24252,2019_Dec_11_1635,Mmi_3levels,3.1.5,59.97294164579859,
,,,3,1,2.1,,,,,,,,,0,2,2,2,0,11,11,3,,,,,,,,,,,,,,,,,,,,,,,,,,,,,,,,,,,,,,,,,,,,,,,,,,,,,,,,,,,,True,True,True,0.56,-0.43999999999999995,-5.130000000000001,11.29,2.1,-9.19,-3.545,certain,certain,-3.545,89.25833333333334,935.9462214167197,None,935.9462214167197,None,935.9462214167197,None,935.9462214167197,None,935.9462214167197,None,935.9462214167197,None,935.9462214167197,None,3,1.8341083321647602,935.9462214167197,None,937.8136083011286,None,937.8136083011286,None,937.8136083011286,None,937.8136083011286,None,937.8136083011286,None,937.8136083011286,None,937.8136083011286,None,941.7984567859767,None,941.7984567859767,None,941.7984567859767,None,941.7984567859767,None,941.7984567859767,None,941.7984567859767,None,941.7984567859767,None,942.7988414055453,None,,,,,,,,,,,,,,,,,,,,,,,,,,,,,,,24252,2019_Dec_11_1635,Mmi_3levels,3.1.5,59.97294164579859,
,,,3,1,6.7,,,,,,,,,0,2,2,2,0,12,12,23,,,,,,,,,,,,,,,,,,,,,,,,,,,,,,,,,,,,,,,,,,,,,,,,,,,,,,,,,,,,True,True,True,0.56,-0.43999999999999995,-5.57,11.73,6.7,-5.03,0.835,certain,certain,0.835,90.09333333333333,944.8162718396397,None,944.8162718396397,None,944.8162718396397,None,944.8162718396397,None,944.8162718396397,None,944.8162718396397,None,944.8162718396397,None,3,1.6342719074782508,944.8162718396397,None,946.483587431836,None,946.483587431836,None,946.483587431836,None,946.483587431836,None,946.483587431836,None,946.483587431836,None,946.483587431836,None,950.4851307098561,None,950.4851307098561,None,950.4851307098561,None,950.4851307098561,None,950.4851307098561,None,950.4851307098561,None,950.4851307098561,None,959.9720555644071,None,951.468792377751,None,952.4691705976566,None,0.55,7.502799531288474,955.4703010976064,None,None,955.4703010976064,None,,,,,,,,,,,,,,,,,,,,24252,2019_Dec_11_1635,Mmi_3levels,3.1.5,59.97294164579859,
,,,3,1,-0.3,,,,,,,,,0,2,2,2,0,13,13,6,,,,,,,,,,,,,,,,,,,,,,,,,,,,,,,,,,,,,,,,,,,,,,,,,,,,,,,,,,,,True,True,False,0.55,-0.44999999999999996,-6.0200000000000005,12.32,-0.3,-12.620000000000001,-6.460000000000001,gamble,win,-0.3,89.79333333333334,961.989575273763,None,961.989575273763,None,961.989575273763,None,961.989575273763,None,961.989575273763,None,961.989575273763,None,961.989575273763,None,1,1.9008587063872255,961.989575273763,None,963.9235387816207,None,963.9235387816207,None,963.9235387816207,None,963.9235387816207,None,963.9235387816207,None,963.9235387816207,None,963.9235387816207,None,967.9250846195046,None,967.9250846195046,None,967.9250846195046,None,967.9250846195046,None,967.9250846195046,None,967.9250846195046,None,967.9250846195046,None,968.9087731659693,None,,,,,,,,,,,,,,,,,,,,,,,,,,,,,,,24252,2019_Dec_11_1635,Mmi_3levels,3.1.5,59.97294164579859,
,,,3,1,1.7,,,,,,,,,0,2,2,2,0,14,14,19,,,,,,,,,,,,,,,,,,,,,,,,,,,,,,,,,,,,,,,,,,,,,,,,,,,,,,,,,,,,True,False,True,0.55,-0.44999999999999996,-6.470000000000001,-2.1141666666666663,1.7,-0.41416666666666635,0.6429166666666668,gamble,lose,-0.41416666666666635,89.37916666666668,970.9262599170743,None,970.9262599170743,None,970.9262599170743,None,970.9262599170743,None,970.9262599170743,None,970.9262599170743,None,970.9262599170743,None,1,1.8342920024078921,970.9262599170743,None,972.7936119233364,None,972.7936119233364,None,972.7936119233364,None,972.7936119233364,None,972.7936119233364,None,972.7936119233364,None,972.7936119233364,None,976.778452728593,None,976.778452728593,None,976.778452728593,None,976.778452728593,None,976.778452728593,None,976.778452728593,None,976.778452728593,None,977.7788283886348,None,,,,,,,,,,,,,,,,,,,,,,,,,,,,,,,24252,2019_Dec_11_1635,Mmi_3levels,3.1.5,59.97294164579859,
,,,3,1,1.5,,,,,,,,,0,2,2,2,0,15,15,15,,,,,,,,,,,,,,,,,,,,,,,,,,,,,,,,,,,,,,,,,,,,,,,,,,,,,,,,,,,,True,True,False,0.55,-0.44999999999999996,-6.920000000000001,13.219999999999999,1.5,-11.719999999999999,-5.109999999999999,certain,certain,-5.109999999999999,84.26916666666668,979.7962546629515,None,979.7962546629515,None,979.7962546629515,None,979.7962546629515,None,979.7962546629515,None,979.7962546629515,None,979.7962546629515,None,3,2.167793646804057,979.7962546629515,None,981.9971473515343,None,981.9971473515343,None,981.9971473515343,None,981.9971473515343,None,981.9971473515343,None,981.9971473515343,None,981.9971473515343,None,985.981944959085,None,985.981944959085,None,985.981944959085,None,985.981944959085,None,985.981944959085,None,985.981944959085,None,985.981944959085,None,995.4855681266217,None,986.9823081397935,None,987.9827301973728,None,0.57,7.502748653991148,990.9838978153475,None,None,990.9838978153475,None,,,,,,,,,,,,,,,,,,,,24252,2019_Dec_11_1635,Mmi_3levels,3.1.5,59.97294164579859,
,,,3,1,-0.9,,,,,,,,,0,2,2,2,0,16,16,17,,,,,,,,,,,,,,,,,,,,,,,,,,,,,,,,,,,,,,,,,,,,,,,,,,,,,,,,,,,,True,True,False,0.57,-0.43000000000000005,-7.3500000000000005,13.370000000000001,-0.9,-14.270000000000001,-7.585000000000001,gamble,win,-0.9,83.36916666666667,997.5030251193075,None,997.5030251193075,None,997.5030251193075,None,997.5030251193075,None,997.5030251193075,None,997.5030251193075,None,997.5030251193075,None,1,1.9343446076163673,997.5030251193075,None,999.4704428500754,None,999.4704428500754,None,999.4704428500754,None,999.4704428500754,None,999.4704428500754,None,999.4704428500754,None,999.4704428500754,None,1003.4719922077729,None,1003.4719922077729,None,1003.4719922077729,None,1003.4719922077729,None,1003.4719922077729,None,1003.4719922077729,None,1003.4719922077729,None,1004.4556842740512,None,,,,,,,,,,,,,,,,,,,,,,,,,,,,,,,24252,2019_Dec_11_1635,Mmi_3levels,3.1.5,59.97294164579859,
,,,3,1,-1.3,,,,,,,,,0,2,2,2,0,17,17,18,,,,,,,,,,,,,,,,,,,,,,,,,,,,,,,,,,,,,,,,,,,,,,,,,,,,,,,,,,,,True,True,False,0.57,-0.43000000000000005,-7.78,13.8,-1.3,-15.100000000000001,-8.200000000000001,gamble,win,-1.3,82.06916666666667,1006.4731131082317,None,1006.4731131082317,None,1006.4731131082317,None,1006.4731131082317,None,1006.4731131082317,None,1006.4731131082317,None,1006.4731131082317,None,1,2.2677848152707156,1006.4731131082317,None,1008.7739966452991,None,1008.7739966452991,None,1008.7739966452991,None,1008.7739966452991,None,1008.7739966452991,None,1008.7739966452991,None,1008.7739966452991,None,1012.7754948057172,None,1012.7754948057172,None,1012.7754948057172,None,1012.7754948057172,None,1012.7754948057172,None,1012.7754948057172,None,1012.7754948057172,None,1022.262475017329,None,1013.7592659077945,None,1014.7596070096752,None,0.57,7.502808170829667,1017.7607336698293,None,None,1017.7607336698293,None,,,,,,,,,,,,,,,,,,,,24252,2019_Dec_11_1635,Mmi_3levels,3.1.5,59.97294164579859,
,,,3,1,5.3,,,,,,,,,0,2,2,2,0,18,18,14,,,,,,,,,,,,,,,,,,,,,,,,,,,,,,,,,,,,,,,,,,,,,,,,,,,,,,,,,,,,True,True,True,0.57,-0.43000000000000005,-8.21,14.23,5.3,-8.93,-1.815,gamble,win,5.3,87.36916666666667,1024.2799060913876,None,1024.2799060913876,None,1024.2799060913876,None,1024.2799060913876,None,1024.2799060913876,None,1024.2799060913876,None,1024.2799060913876,None,1,1.4342655718137394,1024.2799060913876,None,1025.7471375920522,None,1025.7471375920522,None,1025.7471375920522,None,1025.7471375920522,None,1025.7471375920522,None,1025.7471375920522,None,1025.7471375920522,None,1029.7319668779182,None,1029.7319668779182,None,1029.7319668779182,None,1029.7319668779182,None,1029.7319668779182,None,1029.7319668779182,None,1029.7319668779182,None,1030.7323754962144,None,,,,,,,,,,,,,,,,,,,,,,,,,,,,,,,24252,2019_Dec_11_1635,Mmi_3levels,3.1.5,59.97294164579859,
,,,3,1,1.3,,,,,,,,,0,2,2,2,0,19,19,10,,,,,,,,,,,,,,,,,,,,,,,,,,,,,,,,,,,,,,,,,,,,,,,,,,,,,,,,,,,,True,True,False,0.57,-0.43000000000000005,-8.64,14.66,1.3,-13.36,-6.029999999999999,gamble,win,1.3,88.66916666666667,1032.7498011305634,None,1032.7498011305634,None,1032.7498011305634,None,1032.7498011305634,None,1032.7498011305634,None,1032.7498011305634,None,1032.7498011305634,None,1,2.051049448255071,1032.7498011305634,None,1034.833932981479,None,1034.833932981479,None,1034.833932981479,None,1034.833932981479,None,1034.833932981479,None,1034.833932981479,None,1034.833932981479,None,1038.8354372215745,None,1038.8354372215745,None,1038.8354372215745,None,1038.8354372215745,None,1038.8354372215745,None,1038.8354372215745,None,1038.8354372215745,None,1048.3223863948351,None,1039.819150726713,None,1040.8195519853998,None,0.58,7.502747694041318,1043.8206802454642,None,None,1043.8206802454642,None,,,,,,,,,,,,,,,,,,,,24252,2019_Dec_11_1635,Mmi_3levels,3.1.5,59.97294164579859,
,,,3,1,12.5,,,,,,,,,0,2,2,2,0,20,20,25,,,,,,,,,,,,,,,,,,,,,,,,,,,,,,,,,,,,,,,,,,,,,,,,,,,,,,,,,,,,True,False,False,0.58,-0.42000000000000004,-9.06,-2.225,12.5,10.275,5.1375,gamble,lose,10.275,98.94416666666667,1050.3398465873488,None,1050.3398465873488,None,1050.3398465873488,None,1050.3398465873488,None,1050.3398465873488,None,1050.3398465873488,None,1050.3398465873488,None,1,1.1006672925541352,1050.3398465873488,None,1051.4736055620724,None,1051.4736055620724,None,1051.4736055620724,None,1051.4736055620724,None,1051.4736055620724,None,1051.4736055620724,None,1051.4736055620724,None,1055.4584953247304,None,1055.4584953247304,None,1055.4584953247304,None,1055.4584953247304,None,1055.4584953247304,None,1055.4584953247304,None,1055.4584953247304,None,1056.458804748292,None,,,,,,,,,,,,,,,,,,,,,,,,,,,,,,,24252,2019_Dec_11_1635,Mmi_3levels,3.1.5,59.97294164579859,
,,,3,1,3.1,,,,,,,,,0,2,2,2,0,21,21,2,,,,,,,,,,,,,,,,,,,,,,,,,,,,,,,,,,,,,,,,,,,,,,,,,,,,,,,,,,,,True,True,False,0.58,-0.42000000000000004,-9.48,15.360000000000001,3.1,-12.260000000000002,-4.580000000000001,gamble,win,3.1,102.04416666666667,1058.4762802999921,None,1058.4762802999921,None,1058.4762802999921,None,1058.4762802999921,None,1058.4762802999921,None,1058.4762802999921,None,1058.4762802999921,None,1,1.4674983664881438,1058.4762802999921,None,1059.9768777082554,None,1059.9768777082554,None,1059.9768777082554,None,1059.9768777082554,None,1059.9768777082554,None,1059.9768777082554,None,1059.9768777082554,None,1063.9617076340892,None,1063.9617076340892,None,1063.9617076340892,None,1063.9617076340892,None,1063.9617076340892,None,1063.9617076340892,None,1063.9617076340892,None,1064.9620928936256,None,,,,,,,,,,,,,,,,,,,,,,,,,,,,,,,24252,2019_Dec_11_1635,Mmi_3levels,3.1.5,59.97294164579859,
,,,3,1,8.5,,,,,,,,,0,2,2,2,0,22,22,5,,,,,,,,,,,,,,,,,,,,,,,,,,,,,,,,,,,,,,,,,,,,,,,,,,,,,,,,,,,,True,False,True,0.58,-0.42000000000000004,-9.9,-2.2950000000000004,8.5,6.205,3.1025,gamble,lose,6.205,108.24916666666667,1066.9795498863114,None,1066.9795498863114,None,1066.9795498863114,None,1066.9795498863114,None,1066.9795498863114,None,1066.9795498863114,None,1066.9795498863114,None,1,0.8506434538176109,1066.9795498863114,None,1067.8632792626067,None,1067.8632792626067,None,1067.8632792626067,None,1067.8632792626067,None,1067.8632792626067,None,1067.8632792626067,None,1067.8632792626067,None,1071.8480461517884,None,1071.8480461517884,None,1071.8480461517884,None,1071.8480461517884,None,1071.8480461517884,None,1071.8480461517884,None,1071.8480461517884,None,1081.3516709192427,None,1072.8484333312208,None,1073.8488080313164,None,0.57,7.502790891747281,1076.849941411112,None,None,1076.849941411112,None,,,,,,,,,,,,,,,,,,,,24252,2019_Dec_11_1635,Mmi_3levels,3.1.5,59.97294164579859,
,,,3,1,-0.7,,,,,,,,,0,2,2,2,0,23,23,7,,,,,,,,,,,,,,,,,,,,,,,,,,,,,,,,,,,,,,,,,,,,,,,,,,,,,,,,,,,,True,True,False,0.57,-0.43000000000000005,-10.33,16.35,-0.7,-17.05,-8.875,gamble,win,-0.7,107.54916666666666,1083.3691083929607,None,1083.3691083929607,None,1083.3691083929607,None,1083.3691083929607,None,1083.3691083929607,None,1083.3691083929607,None,1083.3691083929607,None,1,1.4841445222446055,1083.3691083929607,None,1084.886351956984,None,1084.886351956984,None,1084.886351956984,None,1084.886351956984,None,1084.886351956984,None,1084.886351956984,None,1084.886351956984,None,1088.8879118741224,None,1088.8879118741224,None,1088.8879118741224,None,1088.8879118741224,None,1088.8879118741224,None,1088.8879118741224,None,1088.8879118741224,None,1089.871561702641,None,,,,,,,,,,,,,,,,,,,,,,,,,,,,,,,24252,2019_Dec_11_1635,Mmi_3levels,3.1.5,59.97294164579859,
,,,3,1,4.9,,,,,,,,,0,2,2,2,0,24,24,24,,,,,,,,,,,,,,,,,,,,,,,,,,,,,,,,,,,,,,,,,,,,,,,,,,,,,,,,,,,,True,True,False,0.57,-0.43000000000000005,-10.76,16.78,4.9,-11.88,-3.49,gamble,win,4.9,112.44916666666667,1091.8890174153948,None,1091.8890174153948,None,1091.8890174153948,None,1091.8890174153948,None,1091.8890174153948,None,1091.8890174153948,None,1091.8890174153948,None,1,1.2507876381605456,1091.8890174153948,None,1093.1728416986498,None,1093.1728416986498,None,1093.1728416986498,None,1093.1728416986498,None,1093.1728416986498,None,1093.1728416986498,None,1093.1728416986498,None,1097.1577148221895,None,1097.1577148221895,None,1097.1577148221895,None,1097.1577148221895,None,1097.1577148221895,None,1097.1577148221895,None,1097.1577148221895,None,1106.6613235904897,None,1098.1580565640343,None,1099.158460062603,None,0.56,7.502804011048283,1102.1595963222444,None,None,1102.1595963222444,None,,,,,,,,,,,,,,,,,,,,24252,2019_Dec_11_1635,Mmi_3levels,3.1.5,59.97294164579859,
,,,3,1,4.3,,,,,,,,,0,2,2,2,0,25,25,16,,,,,,,,,,,,,,,,,,,,,,,,,,,,,,,,,,,,,,,,,,,,,,,,,,,,,,,,,,,,True,True,True,0.56,-0.43999999999999995,-11.2,17.36,4.3,-13.059999999999999,-4.379999999999999,gamble,win,4.3,116.74916666666667,1108.6787511447383,None,1108.6787511447383,None,1108.6787511447383,None,1108.6787511447383,None,1108.6787511447383,None,1108.6787511447383,None,1108.6787511447383,None,1,1.400789590057684,1108.6787511447383,None,1110.11264553627,None,1110.11264553627,None,1110.11264553627,None,1110.11264553627,None,1110.11264553627,None,1110.11264553627,None,1110.11264553627,None,1114.1142531308742,None,1114.1142531308742,None,1114.1142531308742,None,1114.1142531308742,None,1114.1142531308742,None,1114.1142531308742,None,1114.1142531308742,None,1115.0978959197691,None,,,,,,,,,,,,,,,,,,,,,,,,,,,,,,,24252,2019_Dec_11_1635,Mmi_3levels,3.1.5,59.97294164579859,
,,,3,1,10.9,,,,,,,,,0,2,2,2,0,26,26,22,,,,,,,,,,,,,,,,,,,,,,,,,,,,,,,,,,,,,,,,,,,,,,,,,,,,,,,,,,,,True,True,False,0.56,-0.43999999999999995,-11.639999999999999,17.799999999999997,10.9,-6.899999999999997,-3.4499999999999984,gamble,win,10.9,127.64916666666667,1117.1152921156845,None,1117.1152921156845,None,1117.1152921156845,None,1117.1152921156845,None,1117.1152921156845,None,1117.1152921156845,None,1117.1152921156845,None,1,1.0840105773604591,1117.1152921156845,None,1118.2324382128809,None,1118.2324382128809,None,1118.2324382128809,None,1118.2324382128809,None,1118.2324382128809,None,1118.2324382128809,None,1118.2324382128809,None,1122.2172294207721,None,1122.2172294207721,None,1122.2172294207721,None,1122.2172294207721,None,1122.2172294207721,None,1122.2172294207721,None,1122.2172294207721,None,1131.7208769070185,None,1123.217588761685,None,1124.2180040996227,None,0.58,7.502782252206089,1127.2191451590097,None,None,1127.2191451590097,None,,,,,,,,,,,,,,,,,,,,24252,2019_Dec_11_1635,Mmi_3levels,3.1.5,59.97294164579859,
,,,,,,,,,,,,,,,,,,,,,,,,,,,,,,0,0,0,0,,,,,,,,,,,,,,,,,,,,,,,,,,,,,,,,,,,,,,,,,,,,,,,,,,,,,,,,,,,,,,,,,,,,,,,,,,,,,,,,,,,,,,,,,,,,,,,,,,,,,,,,,,,,,,,,,,,,,,,,,1133.721620547518,None,4,9.587229286382353,1133.721620547518,None,,127.64916666666667,4,1143.34196199498,None,1143.34196199498,None,1143.34196199498,None,4,12.238226065430354,1143.34196199498,None,24252,2019_Dec_11_1635,Mmi_3levels,3.1.5,59.97294164579859,
