currSlide,currImage,currText,blockNum,targetHappiness,highAmount,instructionLoop1.thisRepN,instructionLoop1.thisTrialN,instructionLoop1.thisN,instructionLoop1.thisIndex,instructionLoop2.thisRepN,instructionLoop2.thisTrialN,instructionLoop2.thisN,instructionLoop2.thisIndex,blockLoop.thisRepN,blockLoop.thisTrialN,blockLoop.thisN,blockLoop.thisIndex,trialLoop.thisRepN,trialLoop.thisTrialN,trialLoop.thisN,trialLoop.thisIndex,doRatingLoop.thisRepN,doRatingLoop.thisTrialN,doRatingLoop.thisN,doRatingLoop.thisIndex,trialHappyLoop.thisRepN,trialHappyLoop.thisTrialN,trialHappyLoop.thisN,trialHappyLoop.thisIndex,logWinningsLoop.thisRepN,logWinningsLoop.thisTrialN,logWinningsLoop.thisN,logWinningsLoop.thisIndex,instrImage.started,instrImage.stopped,instrText.started,instrText.stopped,instrContinueText.started,instrContinueText.stopped,instrKeyResp.keys,instrKeyResp.rt,instrKeyResp.started,instrKeyResp.stopped,lifeHappyText.started,lifeHappyText.stopped,lifeHappySlider.response,lifeHappySlider.rt,lifeHappySlider.started,lifeHappySlider.stopped,lifeHappyResp.keys,lifeHappyResp.started,lifeHappyResp.stopped,instrImage_2.started,instrImage_2.stopped,instrText_2.started,instrText_2.stopped,instrContinueText_2.started,instrContinueText_2.stopped,instrKeyResp_2.keys,instrKeyResp_2.rt,instrKeyResp_2.started,instrKeyResp_2.stopped,localizing.started,localizing.stopped,start_exp.keys,start_exp.rt,start_exp.started,start_exp.stopped,blockHappyText.started,blockHappyText.stopped,blockHappySlider.response,blockHappySlider.rt,blockHappySlider.started,blockHappySlider.stopped,blockHappyResp.keys,blockHappyResp.started,blockHappyResp.stopped,blankText.started,blankText.stopped,isHappyBlock,isCongruent,isWinOnTop,lastHappyRating,diff,sumDiff,RPE,winAmount,loseAmount,certainAmount,choice,outcome,outcomeAmount,currentWinnings,fixCross.started,fixCross.stopped,certainBox.started,certainBox.stopped,outcome1Box.started,outcome1Box.stopped,outcome2Box.started,outcome2Box.stopped,certainText.started,certainText.stopped,outcome1Text.started,outcome1Text.stopped,outcome2Text.started,outcome2Text.stopped,choiceKey.keys,choiceKey.rt,choiceKey.started,choiceKey.stopped,fixCross_2.started,fixCross_2.stopped,certainBox_2.started,certainBox_2.stopped,outcome1Box_2.started,outcome1Box_2.stopped,outcome2Box_2.started,outcome2Box_2.stopped,certainText_2.started,certainText_2.stopped,outcome1Text_2.started,outcome1Text_2.stopped,outcome2Text_2.started,outcome2Text_2.stopped,fixCross_3.started,fixCross_3.stopped,certainBox_3.started,certainBox_3.stopped,outcome1Box_3.started,outcome1Box_3.stopped,outcome2Box_3.started,outcome2Box_3.stopped,certainText_3.started,certainText_3.stopped,outcome1Text_3.started,outcome1Text_3.stopped,outcome2Text_3.started,outcome2Text_3.stopped,fixCross_ITI.started,fixCross_ITI.stopped,fixCross_ISI.started,fixCross_ISI.stopped,happyText.started,happyText.stopped,happySlider.response,happySlider.rt,happySlider.started,happySlider.stopped,happyResp.keys,happyResp.started,happyResp.stopped,endOfBlockText.started,endOfBlockText.stopped,restKeyResp.keys,restKeyResp.rt,restKeyResp.started,restKeyResp.stopped,finalWinnings,cashBonus,goodbyeText.started,goodbyeText.stopped,finalWinningsText.started,finalWinningsText.stopped,spaceToContinue.started,spaceToContinue.stopped,goodbyeKeyResp_2.keys,goodbyeKeyResp_2.rt,goodbyeKeyResp_2.started,goodbyeKeyResp_2.stopped,participant,date,expName,psychopyVersion,frameRate,
1,black.png,"Welcome! You are about to play our gambling task.
This task has 3 blocks and takes about 15 minutes.",,,,0,0,0,0,,,,,,,,,,,,,,,,,,,,,,,,,11.15999335709057,None,11.15999335709057,None,11.15999335709057,None,4,4.368619797671272,11.15999335709057,None,,,,,,,,,,,,,,,,,,,,,,,,,,,,,,,,,,,,,,,,,,,,,,,,,,,,,,,,,,,,,,,,,,,,,,,,,,,,,,,,,,,,,,,,,,,,,,,,,,,,,,,,,,,,,,,,,,,,,,,,,,,,,,,,24247,2020_Feb_28_1130,Mmi_3levels,3.1.5,59.97639431935839,
2,black.png,"In this game, you may win or lose points. Your goal is to get as many points as possible. These points will be converted to a cash bonus at the end.
Sometimes we will ask you to rate your mood.",,,,0,1,1,1,,,,,,,,,,,,,,,,,,,,,,,,,15.56173331336322,None,15.56173331336322,None,15.56173331336322,None,4,2.068866442932631,15.56173331336322,None,,,,,,,,,,,,,,,,,,,,,,,,,,,,,,,,,,,,,,,,,,,,,,,,,,,,,,,,,,,,,,,,,,,,,,,,,,,,,,,,,,,,,,,,,,,,,,,,,,,,,,,,,,,,,,,,,,,,,,,,,,,,,,,,24247,2020_Feb_28_1130,Mmi_3levels,3.1.5,59.97639431935839,
3,black.png,"On the next screen, please rate how you feel about your life these days. Use the LEFT (green) and RIGHT (blue) buttons to move the slider (you can press and hold them to slide gradually) and the TOP (red) button to lock in your response.
Make your rating as accurately and quickly as you can!",,,,0,2,2,2,,,,,,,,,,,,,,,,,,,,,,,,,17.680394069247996,None,17.680394069247996,None,17.680394069247996,None,4,4.868769551147125,17.680394069247996,None,,,,,,,,,,,,,,,,,,,,,,,,,,,,,,,,,,,,,,,,,,,,,,,,,,,,,,,,,,,,,,,,,,,,,,,,,,,,,,,,,,,,,,,,,,,,,,,,,,,,,,,,,,,,,,,,,,,,,,,,,,,,,,,,24247,2020_Feb_28_1130,Mmi_3levels,3.1.5,59.97639431935839,
,,,,,,,,,,,,,,,,,,,,,,,,,,,,,,,,,,,,,,,,,,,,22.565635543542157,None,0.62,10.502920832885138,26.567190675858,None,None,26.567190675858,None,,,,,,,,,,,,,,,,,,,,,,,,,,,,,,,,,,,,,,,,,,,,,,,,,,,,,,,,,,,,,,,,,,,,,,,,,,,,,,,,,,,,,,,,,,,,,,,,,,,,,,,,,,,,,,,,,,,,,,,24247,2020_Feb_28_1130,Mmi_3levels,3.1.5,59.97639431935839,
4,black.png,"In this game you can win money by earning points according to your choices. You will decide whether to gamble a number of points or stick with a guaranteed number of points. 
Make your choice by pressing the left or right arrow key once. An example of one trial is shown on the next screen.",,,,,,,,0,0,0,0,,,,,,,,,,,,,,,,,,,,,,,,,,,,,,,,,,,,,,,,33.1031075127612,None,33.1031075127612,None,33.1031075127612,None,4,3.2347520235925913,33.1031075127612,None,,,,,,,,,,,,,,,,,,,,,,,,,,,,,,,,,,,,,,,,,,,,,,,,,,,,,,,,,,,,,,,,,,,,,,,,,,,,,,,,,,,,,,,,,,,,,,,,,,,,,,,,,,,,,24247,2020_Feb_28_1130,Mmi_3levels,3.1.5,59.97639431935839,
5,example_start.png,"The GAMBLING OPTION will be shown on the RIGHT SIDE. 
Select this option using the RIGHT (blue) button on your keypad.",,,,,,,,0,1,1,1,,,,,,,,,,,,,,,,,,,,,,,,,,,,,,,,,,,,,,,,36.40437632153771,None,36.40437632153771,None,36.40437632153771,None,4,5.71910598451359,36.40437632153771,None,,,,,,,,,,,,,,,,,,,,,,,,,,,,,,,,,,,,,,,,,,,,,,,,,,,,,,,,,,,,,,,,,,,,,,,,,,,,,,,,,,,,,,,,,,,,,,,,,,,,,,,,,,,,,24247,2020_Feb_28_1130,Mmi_3levels,3.1.5,59.97639431935839,
6,example_gamble.png,"Once you select the gambling choice, the choice you made will remain on the screen.",,,,,,,,0,2,2,2,,,,,,,,,,,,,,,,,,,,,,,,,,,,,,,,,,,,,,,,42.156624543698854,None,42.156624543698854,None,42.156624543698854,None,4,2.2510693934600567,42.156624543698854,None,,,,,,,,,,,,,,,,,,,,,,,,,,,,,,,,,,,,,,,,,,,,,,,,,,,,,,,,,,,,,,,,,,,,,,,,,,,,,,,,,,,,,,,,,,,,,,,,,,,,,,,,,,,,,24247,2020_Feb_28_1130,Mmi_3levels,3.1.5,59.97639431935839,
7,example_win.png,"The outcome you received will then be shown on the screen. In this example , you WON 10 points.",,,,,,,,0,3,3,3,,,,,,,,,,,,,,,,,,,,,,,,,,,,,,,,,,,,,,,,44.44084865426703,None,44.44084865426703,None,44.44084865426703,None,4,2.818037998986256,44.44084865426703,None,,,,,,,,,,,,,,,,,,,,,,,,,,,,,,,,,,,,,,,,,,,,,,,,,,,,,,,,,,,,,,,,,,,,,,,,,,,,,,,,,,,,,,,,,,,,,,,,,,,,,,,,,,,,,24247,2020_Feb_28_1130,Mmi_3levels,3.1.5,59.97639431935839,
8,example_start.png,"The GUARANTEED OPTION will be shown on the LEFT SIDE. You are 100% guaranteed to gain or lose this amount. In this example, you have a 100% chance of winning 1 point. Select this option using the LEFT (green) button on your keyboard.",,,,,,,,0,4,4,4,,,,,,,,,,,,,,,,,,,,,,,,,,,,,,,,,,,,,,,,47.30866560686991,None,47.30866560686991,None,47.30866560686991,None,4,1.2839934006115072,47.30866560686991,None,,,,,,,,,,,,,,,,,,,,,,,,,,,,,,,,,,,,,,,,,,,,,,,,,,,,,,,,,,,,,,,,,,,,,,,,,,,,,,,,,,,,,,,,,,,,,,,,,,,,,,,,,,,,,24247,2020_Feb_28_1130,Mmi_3levels,3.1.5,59.97639431935839,
9,example_certain.png,"Once you select the guaranteed choice, your selection will remain on the screen.",,,,,,,,0,5,5,5,,,,,,,,,,,,,,,,,,,,,,,,,,,,,,,,,,,,,,,,48.62581980432151,None,48.62581980432151,None,48.62581980432151,None,4,1.9176083856800687,48.62581980432151,None,,,,,,,,,,,,,,,,,,,,,,,,,,,,,,,,,,,,,,,,,,,,,,,,,,,,,,,,,,,,,,,,,,,,,,,,,,,,,,,,,,,,,,,,,,,,,,,,,,,,,,,,,,,,,24247,2020_Feb_28_1130,Mmi_3levels,3.1.5,59.97639431935839,
10,black.png,"Please make your choices as fast as possible.
You will be given a break at the end of each block.
Let's play!",,,,,,,,0,6,6,6,,,,,,,,,,,,,,,,,,,,,,,,,,,,,,,,,,,,,,,,50.5765355491676,None,50.5765355491676,None,50.5765355491676,None,4,3.8184050230120192,50.5765355491676,None,,,,,,,,,,,,,,,,,,,,,,,,,,,,,,,,,,,,,,,,,,,,,,,,,,,,,,,,,,,,,,,,,,,,,,,,,,,,,,,,,,,,,,,,,,,,,,,,,,,,,,,,,,,,,24247,2020_Feb_28_1130,Mmi_3levels,3.1.5,59.97639431935839,
,,,,,,,,,,,,,,,,,,,,,,,,,,,,,,,,,,,,,,,,,,,,,,,,,,,,,,,,,,,,,,,54.411432334462006,None,space,258.6680304473193,54.411432334462006,None,,,,,,,,,,,,,,,,,,,,,,,,,,,,,,,,,,,,,,,,,,,,,,,,,,,,,,,,,,,,,,,,,,,,,,,,,,,,,,,,,,,,,,,,,,,,,,,,,,,,,,,24247,2020_Feb_28_1130,Mmi_3levels,3.1.5,59.97639431935839,
,,,1,1,0.7,,,,,,,,,0,0,0,0,0,0,0,9,,,,,,,,,,,,,,,,,,,,,,,,,,,,,,,,,,,,,,,,,,,,,,,,313.0959587038742,None,0.65,7.495516995099024,316.11377488851576,None,None,316.11377488851576,None,320.5987947404501,None,True,True,True,0.65,-0.35,-0.35,5.249999999999999,0.7,-4.549999999999999,-1.9249999999999994,certain,certain,-1.9249999999999994,-1.9249999999999994,323.63334043702343,None,323.63334043702343,None,323.63334043702343,None,323.63334043702343,None,323.63334043702343,None,323.63334043702343,None,323.63334043702343,None,3,2.434572447411483,323.63334043702343,None,326.10102888321853,None,326.10102888321853,None,326.10102888321853,None,326.10102888321853,None,326.10102888321853,None,326.10102888321853,None,326.10102888321853,None,330.0858986616877,None,330.0858986616877,None,330.0858986616877,None,330.0858986616877,None,330.0858986616877,None,330.0858986616877,None,330.0858986616877,None,331.0863101637806,None,,,,,,,,,,,,,,,,,,,,,,,,,,,,,,24247,2020_Feb_28_1130,Mmi_3levels,3.1.5,59.97639431935839,
,,,1,1,7.3,,,,,,,,,0,0,0,0,0,1,1,21,,,,,,,,,,,,,,,,,,,,,,,,,,,,,,,,,,,,,,,,,,,,,,,,,,,,,,,,,,,True,True,False,0.65,-0.35,-0.7,5.6,7.3,1.7000000000000002,0.8500000000000001,gamble,win,7.3,5.375,333.103761884282,None,333.103761884282,None,333.103761884282,None,333.103761884282,None,333.103761884282,None,333.103761884282,None,333.103761884282,None,1,1.717605569800071,333.103761884282,None,334.8544492143701,None,334.8544492143701,None,334.8544492143701,None,334.8544492143701,None,334.8544492143701,None,334.8544492143701,None,334.8544492143701,None,338.8393465116387,None,338.8393465116387,None,338.8393465116387,None,338.8393465116387,None,338.8393465116387,None,338.8393465116387,None,338.8393465116387,None,339.8397375346176,None,,,,,,,,,,,,,,,,,,,,,,,,,,,,,,24247,2020_Feb_28_1130,Mmi_3levels,3.1.5,59.97639431935839,
,,,1,1,11.3,,,,,,,,,0,0,0,0,0,2,2,19,,,,,,,,,,,,,,,,,,,,,,,,,,,,,,,,,,,,,,,,,,,,,,,,,,,,,,,,,,,True,False,True,0.65,-0.35,-1.0499999999999998,-1.3124999999999998,11.3,9.9875,4.99375,gamble,lose,9.9875,15.3625,341.85718509530125,None,341.85718509530125,None,341.85718509530125,None,341.85718509530125,None,341.85718509530125,None,341.85718509530125,None,341.85718509530125,None,1,1.8677263965437305,341.85718509530125,None,343.7412522207014,None,343.7412522207014,None,343.7412522207014,None,343.7412522207014,None,343.7412522207014,None,343.7412522207014,None,343.7412522207014,None,347.7428220723814,None,347.7428220723814,None,347.7428220723814,None,347.7428220723814,None,347.7428220723814,None,347.7428220723814,None,347.7428220723814,None,357.2465428704527,None,348.74321117544605,None,349.74360699822137,None,0.69,7.502859395564883,352.74476502782636,None,None,352.74476502782636,None,,,,,,,,,,,,,,,,,,,24247,2020_Feb_28_1130,Mmi_3levels,3.1.5,59.97639431935839,
,,,1,1,6.1,,,,,,,,,0,0,0,0,0,3,3,0,,,,,,,,,,,,,,,,,,,,,,,,,,,,,,,,,,,,,,,,,,,,,,,,,,,,,,,,,,,True,True,True,0.69,-0.31000000000000005,-1.3599999999999999,5.700000000000001,6.1,0.3999999999999986,0.1999999999999993,gamble,win,6.1,21.4625,359.2639984307898,None,359.2639984307898,None,359.2639984307898,None,359.2639984307898,None,359.2639984307898,None,359.2639984307898,None,359.2639984307898,None,1,1.4508226202015067,359.2639984307898,None,360.7478592931584,None,360.7478592931584,None,360.7478592931584,None,360.7478592931584,None,360.7478592931584,None,360.7478592931584,None,360.7478592931584,None,364.74947394289484,None,364.74947394289484,None,364.74947394289484,None,364.74947394289484,None,364.74947394289484,None,364.74947394289484,None,364.74947394289484,None,365.7331920914803,None,,,,,,,,,,,,,,,,,,,,,,,,,,,,,,24247,2020_Feb_28_1130,Mmi_3levels,3.1.5,59.97639431935839,
,,,1,1,4.1,,,,,,,,,0,0,0,0,0,4,4,11,,,,,,,,,,,,,,,,,,,,,,,,,,,,,,,,,,,,,,,,,,,,,,,,,,,,,,,,,,,True,True,False,0.69,-0.31000000000000005,-1.67,6.010000000000001,4.1,-1.910000000000001,1.0949999999999993,gamble,win,4.1,25.5625,367.7505932541826,None,367.7505932541826,None,367.7505932541826,None,367.7505932541826,None,367.7505932541826,None,367.7505932541826,None,367.7505932541826,None,None,,367.7505932541826,None,370.7518591190892,None,370.7518591190892,None,370.7518591190892,None,370.7518591190892,None,370.7518591190892,None,370.7518591190892,None,370.7518591190892,None,374.7366623404523,None,374.7366623404523,None,374.7366623404523,None,374.7366623404523,None,374.7366623404523,None,374.7366623404523,None,374.7366623404523,None,384.24043433629413,None,375.7371400796619,None,376.7374959041772,None,0.7,7.502890434203437,379.738655213725,None,None,379.738655213725,None,,,,,,,,,,,,,,,,,,,24247,2020_Feb_28_1130,Mmi_3levels,3.1.5,59.97639431935839,
,,,1,1,-0.7,,,,,,,,,0,0,0,0,0,5,5,20,,,,,,,,,,,,,,,,,,,,,,,,,,,,,,,,,,,,,,,,,,,,,,,,,,,,,,,,,,,True,True,True,0.7,-0.30000000000000004,-1.97,6.170000000000001,-0.7,-6.870000000000001,-3.7850000000000006,certain,certain,-3.7850000000000006,21.7775,386.2578825369492,None,386.2578825369492,None,386.2578825369492,None,386.2578825369492,None,386.2578825369492,None,386.2578825369492,None,386.2578825369492,None,3,2.9013988511214848,386.2578825369492,None,389.1923657082443,None,389.1923657082443,None,389.1923657082443,None,389.1923657082443,None,389.1923657082443,None,389.1923657082443,None,389.1923657082443,None,393.19393459996354,None,393.19393459996354,None,393.19393459996354,None,393.19393459996354,None,393.19393459996354,None,393.19393459996354,None,393.19393459996354,None,394.17765370850975,None,,,,,,,,,,,,,,,,,,,,,,,,,,,,,,24247,2020_Feb_28_1130,Mmi_3levels,3.1.5,59.97639431935839,
,,,1,1,-0.1,,,,,,,,,0,0,0,0,0,6,6,15,,,,,,,,,,,,,,,,,,,,,,,,,,,,,,,,,,,,,,,,,,,,,,,,,,,,,,,,,,,True,True,False,0.7,-0.30000000000000004,-2.27,6.470000000000001,-0.1,-6.57,-3.335,gamble,win,-0.1,21.6775,396.1951057489932,None,396.1951057489932,None,396.1951057489932,None,396.1951057489932,None,396.1951057489932,None,396.1951057489932,None,396.1951057489932,None,1,2.934737240233517,396.1951057489932,None,399.1629311492361,None,399.1629311492361,None,399.1629311492361,None,399.1629311492361,None,399.1629311492361,None,399.1629311492361,None,399.1629311492361,None,403.16449972097325,None,403.16449972097325,None,403.16449972097325,None,403.16449972097325,None,403.16449972097325,None,403.16449972097325,None,403.16449972097325,None,404.14827226718626,None,,,,,,,,,,,,,,,,,,,,,,,,,,,,,,24247,2020_Feb_28_1130,Mmi_3levels,3.1.5,59.97639431935839,
,,,1,1,6.9,,,,,,,,,0,0,0,0,0,7,7,8,,,,,,,,,,,,,,,,,,,,,,,,,,,,,,,,,,,,,,,,,,,,,,,,,,,,,,,,,,,True,True,True,0.7,-0.30000000000000004,-2.5700000000000003,6.770000000000001,6.9,0.129999999999999,0.0649999999999995,gamble,win,6.9,28.5775,406.16562671192514,None,406.16562671192514,None,406.16562671192514,None,406.16562671192514,None,406.16562671192514,None,406.16562671192514,None,406.16562671192514,None,1,1.600921047916927,406.16562671192514,None,407.7996442394797,None,407.7996442394797,None,407.7996442394797,None,407.7996442394797,None,407.7996442394797,None,407.7996442394797,None,407.7996442394797,None,411.78453385708417,None,411.78453385708417,None,411.78453385708417,None,411.78453385708417,None,411.78453385708417,None,411.78453385708417,None,411.78453385708417,None,421.28831193266524,None,412.7849277599453,None,413.7853191029135,None,0.7,7.502856835671992,416.7864790524327,None,None,416.7864790524327,None,,,,,,,,,,,,,,,,,,,24247,2020_Feb_28_1130,Mmi_3levels,3.1.5,59.97639431935839,
,,,1,1,6.7,,,,,,,,,0,0,0,0,0,8,8,25,,,,,,,,,,,,,,,,,,,,,,,,,,,,,,,,,,,,,,,,,,,,,,,,,,,,,,,,,,,True,True,True,0.7,-0.30000000000000004,-2.87,7.070000000000001,6.7,-0.370000000000001,-0.1850000000000005,gamble,win,6.7,35.2775,423.3057070156283,None,423.3057070156283,None,423.3057070156283,None,423.3057070156283,None,423.3057070156283,None,423.3057070156283,None,423.3057070156283,None,None,,423.3057070156283,None,426.3068877642436,None,426.3068877642436,None,426.3068877642436,None,426.3068877642436,None,426.3068877642436,None,426.3068877642436,None,426.3068877642436,None,430.3084460964237,None,430.3084460964237,None,430.3084460964237,None,430.3084460964237,None,430.3084460964237,None,430.3084460964237,None,430.3084460964237,None,431.2921952836623,None,,,,,,,,,,,,,,,,,,,,,,,,,,,,,,24247,2020_Feb_28_1130,Mmi_3levels,3.1.5,59.97639431935839,
,,,1,1,7.1,,,,,,,,,0,0,0,0,0,9,9,12,,,,,,,,,,,,,,,,,,,,,,,,,,,,,,,,,,,,,,,,,,,,,,,,,,,,,,,,,,,True,True,True,0.7,-0.30000000000000004,-3.17,7.370000000000001,7.1,-0.27000000000000135,-0.13500000000000068,gamble,win,7.1,42.377500000000005,433.3096265250497,None,433.3096265250497,None,433.3096265250497,None,433.3096265250497,None,433.3096265250497,None,433.3096265250497,None,433.3096265250497,None,1,1.9344335734494962,433.3096265250497,None,435.2770609023064,None,435.2770609023064,None,435.2770609023064,None,435.2770609023064,None,435.2770609023064,None,435.2770609023064,None,435.2770609023064,None,439.27862883407215,None,439.27862883407215,None,439.27862883407215,None,439.27862883407215,None,439.27862883407215,None,439.27862883407215,None,439.27862883407215,None,448.76567035802145,None,440.26234090291837,None,441.2627293660189,None,0.73,7.502805637894198,444.2638957152594,None,None,444.2638957152594,None,,,,,,,,,,,,,,,,,,,24247,2020_Feb_28_1130,Mmi_3levels,3.1.5,59.97639431935839,
,,,1,1,13.1,,,,,,,,,0,0,0,0,0,10,10,5,,,,,,,,,,,,,,,,,,,,,,,,,,,,,,,,,,,,,,,,,,,,,,,,,,,,,,,,,,,True,True,True,0.73,-0.27,-3.44,7.220000000000001,13.1,5.879999999999999,2.9399999999999995,gamble,win,13.1,55.477500000000006,450.78312399844435,None,450.78312399844435,None,450.78312399844435,None,450.78312399844435,None,450.78312399844435,None,450.78312399844435,None,450.78312399844435,None,1,1.2840890764418873,450.78312399844435,None,452.10030763460963,None,452.10030763460963,None,452.10030763460963,None,452.10030763460963,None,452.10030763460963,None,452.10030763460963,None,452.10030763460963,None,456.101872046529,None,456.101872046529,None,456.101872046529,None,456.101872046529,None,456.101872046529,None,456.101872046529,None,456.101872046529,None,457.0855869952502,None,,,,,,,,,,,,,,,,,,,,,,,,,,,,,,24247,2020_Feb_28_1130,Mmi_3levels,3.1.5,59.97639431935839,
,,,1,1,9.3,,,,,,,,,0,0,0,0,0,11,11,4,,,,,,,,,,,,,,,,,,,,,,,,,,,,,,,,,,,,,,,,,,,,,,,,,,,,,,,,,,,True,True,False,0.73,-0.27,-3.71,7.49,9.3,1.8100000000000005,0.9050000000000002,gamble,win,9.3,64.7775,459.10304639541573,None,459.10304639541573,None,459.10304639541573,None,459.10304639541573,None,459.10304639541573,None,459.10304639541573,None,459.10304639541573,None,1,1.5675330609592493,459.10304639541573,None,460.70366953629855,None,460.70366953629855,None,460.70366953629855,None,460.70366953629855,None,460.70366953629855,None,460.70366953629855,None,460.70366953629855,None,464.68856363371015,None,464.68856363371015,None,464.68856363371015,None,464.68856363371015,None,464.68856363371015,None,464.68856363371015,None,464.68856363371015,None,474.19222203449317,None,465.6889533767462,None,466.68937575836753,None,0.7,7.5028904342107126,469.69050466923363,None,None,469.69050466923363,None,,,,,,,,,,,,,,,,,,,24247,2020_Feb_28_1130,Mmi_3levels,3.1.5,59.97639431935839,
,,,1,1,10.7,,,,,,,,,0,0,0,0,0,12,12,13,,,,,,,,,,,,,,,,,,,,,,,,,,,,,,,,,,,,,,,,,,,,,,,,,,,,,,,,,,,True,True,False,0.7,-0.30000000000000004,-4.01,8.21,10.7,2.4899999999999984,1.2449999999999992,gamble,win,10.7,75.4775,476.2097326324365,None,476.2097326324365,None,476.2097326324365,None,476.2097326324365,None,476.2097326324365,None,476.2097326324365,None,476.2097326324365,None,1,1.6175548840110423,476.2097326324365,None,477.8603753564603,None,477.8603753564603,None,477.8603753564603,None,477.8603753564603,None,477.8603753564603,None,477.8603753564603,None,477.8603753564603,None,481.8619429682367,None,481.8619429682367,None,481.8619429682367,None,481.8619429682367,None,481.8619429682367,None,481.8619429682367,None,481.8619429682367,None,482.84566303674364,None,,,,,,,,,,,,,,,,,,,,,,,,,,,,,,24247,2020_Feb_28_1130,Mmi_3levels,3.1.5,59.97639431935839,
,,,1,1,1.7,,,,,,,,,0,0,0,0,0,13,13,24,,,,,,,,,,,,,,,,,,,,,,,,,,,,,,,,,,,,,,,,,,,,,,,,,,,,,,,,,,,True,False,False,0.7,-0.30000000000000004,-4.31,-1.409166666666667,1.7,0.29083333333333306,0.9954166666666665,certain,certain,0.9954166666666665,76.47291666666668,484.8631169971486,None,484.8631169971486,None,484.8631169971486,None,484.8631169971486,None,484.8631169971486,None,484.8631169971486,None,484.8631169971486,None,3,1.984370600192051,484.8631169971486,None,486.88057703728555,None,486.88057703728555,None,486.88057703728555,None,486.88057703728555,None,486.88057703728555,None,486.88057703728555,None,486.88057703728555,None,490.8654596151973,None,490.8654596151973,None,490.8654596151973,None,490.8654596151973,None,490.8654596151973,None,490.8654596151973,None,490.8654596151973,None,491.8658525580977,None,,,,,,,,,,,,,,,,,,,,,,,,,,,,,,24247,2020_Feb_28_1130,Mmi_3levels,3.1.5,59.97639431935839,
,,,1,1,13.9,,,,,,,,,0,0,0,0,0,14,14,2,,,,,,,,,,,,,,,,,,,,,,,,,,,,,,,,,,,,,,,,,,,,,,,,,,,,,,,,,,,True,True,False,0.7,-0.30000000000000004,-4.609999999999999,8.81,13.9,5.09,2.545,gamble,win,13.9,90.37291666666668,493.8833679558229,None,493.8833679558229,None,493.8833679558229,None,493.8833679558229,None,493.8833679558229,None,493.8833679558229,None,493.8833679558229,None,1,1.1339752893909463,493.8833679558229,None,495.0504374849552,None,495.0504374849552,None,495.0504374849552,None,495.0504374849552,None,495.0504374849552,None,495.0504374849552,None,495.0504374849552,None,499.05205661449145,None,499.05205661449145,None,499.05205661449145,None,499.05205661449145,None,499.05205661449145,None,499.05205661449145,None,499.05205661449145,None,508.53904150090966,None,500.03572132540285,None,501.0361078685819,None,0.73,7.502879874671635,504.03726877806184,None,None,504.03726877806184,None,,,,,,,,,,,,,,,,,,,24247,2020_Feb_28_1130,Mmi_3levels,3.1.5,59.97639431935839,
,,,1,1,8.7,,,,,,,,,0,0,0,0,0,15,15,23,,,,,,,,,,,,,,,,,,,,,,,,,,,,,,,,,,,,,,,,,,,,,,,,,,,,,,,,,,,True,True,True,0.73,-0.27,-4.879999999999999,8.66,8.7,0.03999999999999915,0.019999999999999574,gamble,win,8.7,99.07291666666669,510.5564445835262,None,510.5564445835262,None,510.5564445835262,None,510.5564445835262,None,510.5564445835262,None,510.5564445835262,None,510.5564445835262,None,1,1.9844877150972025,510.5564445835262,None,512.5739625411516,None,512.5739625411516,None,512.5739625411516,None,512.5739625411516,None,512.5739625411516,None,512.5739625411516,None,512.5739625411516,None,516.5755237532067,None,516.5755237532067,None,516.5755237532067,None,516.5755237532067,None,516.5755237532067,None,516.5755237532067,None,516.5755237532067,None,517.5592409418314,None,,,,,,,,,,,,,,,,,,,,,,,,,,,,,,24247,2020_Feb_28_1130,Mmi_3levels,3.1.5,59.97639431935839,
,,,1,1,5.1,,,,,,,,,0,0,0,0,0,16,16,3,,,,,,,,,,,,,,,,,,,,,,,,,,,,,,,,,,,,,,,,,,,,,,,,,,,,,,,,,,,True,True,False,0.73,-0.27,-5.149999999999999,8.93,5.1,-3.83,0.6349999999999998,gamble,win,5.1,104.17291666666668,519.5766968221506,None,519.5766968221506,None,519.5766968221506,None,519.5766968221506,None,519.5766968221506,None,519.5766968221506,None,519.5766968221506,None,None,,519.5766968221506,None,522.5778686111589,None,522.5778686111589,None,522.5778686111589,None,522.5778686111589,None,522.5778686111589,None,522.5778686111589,None,522.5778686111589,None,526.5794301431961,None,526.5794301431961,None,526.5794301431961,None,526.5794301431961,None,526.5794301431961,None,526.5794301431961,None,526.5794301431961,None,536.0665299046159,None,527.5631492517423,None,528.5635460344711,None,0.69,7.502848196047125,531.5647104637974,None,None,531.5647104637974,None,,,,,,,,,,,,,,,,,,,24247,2020_Feb_28_1130,Mmi_3levels,3.1.5,59.97639431935839,
,,,1,1,-1.5,,,,,,,,,0,0,0,0,0,17,17,18,,,,,,,,,,,,,,,,,,,,,,,,,,,,,,,,,,,,,,,,,,,,,,,,,,,,,,,,,,,True,True,True,0.69,-0.31000000000000005,-5.459999999999999,9.8,-1.5,-11.3,-6.4,certain,certain,-6.4,97.77291666666667,538.0839265875111,None,538.0839265875111,None,538.0839265875111,None,538.0839265875111,None,538.0839265875111,None,538.0839265875111,None,538.0839265875111,None,3,2.584595358406659,538.0839265875111,None,540.701624825284,None,540.701624825284,None,540.701624825284,None,540.701624825284,None,540.701624825284,None,540.701624825284,None,540.701624825284,None,544.7031898771747,None,544.7031898771747,None,544.7031898771747,None,544.7031898771747,None,544.7031898771747,None,544.7031898771747,None,544.7031898771747,None,545.6869073857888,None,,,,,,,,,,,,,,,,,,,,,,,,,,,,,,24247,2020_Feb_28_1130,Mmi_3levels,3.1.5,59.97639431935839,
,,,1,1,11.1,,,,,,,,,0,0,0,0,0,18,18,22,,,,,,,,,,,,,,,,,,,,,,,,,,,,,,,,,,,,,,,,,,,,,,,,,,,,,,,,,,,True,True,True,0.69,-0.31000000000000005,-5.77,10.11,11.1,0.9900000000000002,0.4950000000000001,gamble,win,11.1,108.87291666666667,547.7043648660401,None,547.7043648660401,None,547.7043648660401,None,547.7043648660401,None,547.7043648660401,None,547.7043648660401,None,547.7043648660401,None,1,1.6175401646542014,547.7043648660401,None,549.3550095099854,None,549.3550095099854,None,549.3550095099854,None,549.3550095099854,None,549.3550095099854,None,549.3550095099854,None,549.3550095099854,None,553.356546403098,None,553.356546403098,None,553.356546403098,None,553.356546403098,None,553.356546403098,None,553.356546403098,None,553.356546403098,None,554.3403266289824,None,,,,,,,,,,,,,,,,,,,,,,,,,,,,,,24247,2020_Feb_28_1130,Mmi_3levels,3.1.5,59.97639431935839,
,,,1,1,4.9,,,,,,,,,0,0,0,0,0,19,19,26,,,,,,,,,,,,,,,,,,,,,,,,,,,,,,,,,,,,,,,,,,,,,,,,,,,,,,,,,,,True,True,True,0.69,-0.31000000000000005,-6.08,10.420000000000002,4.9,-5.520000000000001,-0.3100000000000005,certain,certain,-0.3100000000000005,108.56291666666667,556.3577482707915,None,556.3577482707915,None,556.3577482707915,None,556.3577482707915,None,556.3577482707915,None,556.3577482707915,None,556.3577482707915,None,3,1.7507593269547215,556.3577482707915,None,558.1417794297595,None,558.1417794297595,None,558.1417794297595,None,558.1417794297595,None,558.1417794297595,None,558.1417794297595,None,558.1417794297595,None,562.1433406418146,None,562.1433406418146,None,562.1433406418146,None,562.1433406418146,None,562.1433406418146,None,562.1433406418146,None,562.1433406418146,None,571.6303840856854,None,563.1270597503608,None,564.1274526932539,None,0.68,7.502860995489755,567.1286120028017,None,None,567.1286120028017,None,,,,,,,,,,,,,,,,,,,24247,2020_Feb_28_1130,Mmi_3levels,3.1.5,59.97639431935839,
,,,1,1,9.7,,,,,,,,,0,0,0,0,0,20,20,1,,,,,,,,,,,,,,,,,,,,,,,,,,,,,,,,,,,,,,,,,,,,,,,,,,,,,,,,,,,True,False,False,0.68,-0.31999999999999995,-6.4,-1.6533333333333333,9.7,8.046666666666667,4.023333333333333,gamble,lose,8.046666666666667,116.60958333333333,573.6478444458044,None,573.6478444458044,None,573.6478444458044,None,573.6478444458044,None,573.6478444458044,None,573.6478444458044,None,573.6478444458044,None,1,1.7842849079170264,573.6478444458044,None,575.4652184736915,None,575.4652184736915,None,575.4652184736915,None,575.4652184736915,None,575.4652184736915,None,575.4652184736915,None,575.4652184736915,None,579.4500424941507,None,579.4500424941507,None,579.4500424941507,None,579.4500424941507,None,579.4500424941507,None,579.4500424941507,None,579.4500424941507,None,580.4505061539676,None,,,,,,,,,,,,,,,,,,,,,,,,,,,,,,24247,2020_Feb_28_1130,Mmi_3levels,3.1.5,59.97639431935839,
,,,1,1,8.3,,,,,,,,,0,0,0,0,0,21,21,16,,,,,,,,,,,,,,,,,,,,,,,,,,,,,,,,,,,,,,,,,,,,,,,,,,,,,,,,,,,True,True,False,0.68,-0.31999999999999995,-6.720000000000001,11.2,8.3,-2.8999999999999986,-1.4499999999999993,gamble,win,8.3,124.90958333333333,582.4680135520466,None,582.4680135520466,None,582.4680135520466,None,582.4680135520466,None,582.4680135520466,None,582.4680135520466,None,582.4680135520466,None,1,2.5178350638161646,582.4680135520466,None,585.0189518152183,None,585.0189518152183,None,585.0189518152183,None,585.0189518152183,None,585.0189518152183,None,585.0189518152183,None,585.0189518152183,None,589.0038478325368,None,589.0038478325368,None,589.0038478325368,None,589.0038478325368,None,589.0038478325368,None,589.0038478325368,None,589.0038478325368,None,598.5075660707225,None,590.0042375755802,None,591.0046372381839,None,0.73,7.502855235739844,594.0057920679246,None,None,594.0057920679246,None,,,,,,,,,,,,,,,,,,,24247,2020_Feb_28_1130,Mmi_3levels,3.1.5,59.97639431935839,
,,,1,1,6.3,,,,,,,,,0,0,0,0,0,22,22,14,,,,,,,,,,,,,,,,,,,,,,,,,,,,,,,,,,,,,,,,,,,,,,,,,,,,,,,,,,,True,True,False,0.73,-0.27,-6.99,10.77,6.3,-4.47,0.915,gamble,win,6.3,131.20958333333334,600.5250190711668,None,600.5250190711668,None,600.5250190711668,None,600.5250190711668,None,600.5250190711668,None,600.5250190711668,None,600.5250190711668,None,None,,600.5250190711668,None,603.5261985398392,None,603.5261985398392,None,603.5261985398392,None,603.5261985398392,None,603.5261985398392,None,603.5261985398392,None,603.5261985398392,None,607.5277648716728,None,607.5277648716728,None,607.5277648716728,None,607.5277648716728,None,607.5277648716728,None,607.5277648716728,None,607.5277648716728,None,608.5114740606441,None,,,,,,,,,,,,,,,,,,,,,,,,,,,,,,24247,2020_Feb_28_1130,Mmi_3levels,3.1.5,59.97639431935839,
,,,1,1,0.1,,,,,,,,,0,0,0,0,0,23,23,10,,,,,,,,,,,,,,,,,,,,,,,,,,,,,,,,,,,,,,,,,,,,,,,,,,,,,,,,,,,True,True,False,0.73,-0.27,-7.26,11.04,0.1,-10.94,-5.42,certain,certain,-5.42,125.78958333333334,610.5289331408276,None,610.5289331408276,None,610.5289331408276,None,610.5289331408276,None,610.5289331408276,None,610.5289331408276,None,610.5289331408276,None,3,2.034378343851131,610.5289331408276,None,612.5964047644593,None,612.5964047644593,None,612.5964047644593,None,612.5964047644593,None,612.5964047644593,None,612.5964047644593,None,612.5964047644593,None,616.5979730162144,None,616.5979730162144,None,616.5979730162144,None,616.5979730162144,None,616.5979730162144,None,616.5979730162144,None,616.5979730162144,None,626.0849924611248,None,617.581688604907,None,618.5820818677967,None,0.71,7.502805637901474,621.5832414973265,None,None,621.5832414973265,None,,,,,,,,,,,,,,,,,,,24247,2020_Feb_28_1130,Mmi_3levels,3.1.5,59.97639431935839,
,,,1,1,-0.9,,,,,,,,,0,0,0,0,0,24,24,7,,,,,,,,,,,,,,,,,,,,,,,,,,,,,,,,,,,,,,,,,,,,,,,,,,,,,,,,,,,True,False,True,0.71,-0.29000000000000004,-7.55,-1.6441666666666668,-0.9,-2.544166666666667,-1.7220833333333334,certain,certain,-1.7220833333333334,124.06750000000001,628.1024704204829,None,628.1024704204829,None,628.1024704204829,None,628.1024704204829,None,628.1024704204829,None,628.1024704204829,None,628.1024704204829,None,3,2.28447881948523,628.1024704204829,None,630.4200418797773,None,630.4200418797773,None,630.4200418797773,None,630.4200418797773,None,630.4200418797773,None,630.4200418797773,None,630.4200418797773,None,634.4216114114679,None,634.4216114114679,None,634.4216114114679,None,634.4216114114679,None,634.4216114114679,None,634.4216114114679,None,634.4216114114679,None,635.4053295600534,None,,,,,,,,,,,,,,,,,,,,,,,,,,,,,,24247,2020_Feb_28_1130,Mmi_3levels,3.1.5,59.97639431935839,
,,,1,1,10.1,,,,,,,,,0,0,0,0,0,25,25,6,,,,,,,,,,,,,,,,,,,,,,,,,,,,,,,,,,,,,,,,,,,,,,,,,,,,,,,,,,,True,True,False,0.71,-0.29000000000000004,-7.84,11.9,10.1,-1.8000000000000007,-0.9000000000000004,gamble,win,10.1,134.16750000000002,637.4227870403047,None,637.4227870403047,None,637.4227870403047,None,637.4227870403047,None,637.4227870403047,None,637.4227870403047,None,637.4227870403047,None,1,2.0010418746605865,637.4227870403047,None,639.4569122751782,None,639.4569122751782,None,639.4569122751782,None,639.4569122751782,None,639.4569122751782,None,639.4569122751782,None,639.4569122751782,None,643.4584798869546,None,643.4584798869546,None,643.4584798869546,None,643.4584798869546,None,643.4584798869546,None,643.4584798869546,None,643.4584798869546,None,644.4421970755793,None,,,,,,,,,,,,,,,,,,,,,,,,,,,,,,24247,2020_Feb_28_1130,Mmi_3levels,3.1.5,59.97639431935839,
,,,1,1,2.7,,,,,,,,,0,0,0,0,0,26,26,17,,,,,,,,,,,,,,,,,,,,,,,,,,,,,,,,,,,,,,,,,,,,,,,,,,,,,,,,,,,True,True,True,0.71,-0.29000000000000004,-8.129999999999999,12.19,2.7,-9.489999999999998,-3.394999999999999,gamble,win,2.7,136.8675,646.4596523159271,None,646.4596523159271,None,646.4596523159271,None,646.4596523159271,None,646.4596523159271,None,646.4596523159271,None,646.4596523159271,None,None,,646.4596523159271,None,649.4608276247818,None,649.4608276247818,None,649.4608276247818,None,649.4608276247818,None,649.4608276247818,None,649.4608276247818,None,649.4608276247818,None,653.4623878768762,None,653.4623878768762,None,653.4623878768762,None,653.4623878768762,None,653.4623878768762,None,653.4623878768762,None,653.4623878768762,None,662.9494316407363,None,654.4461076253938,None,655.4464992883513,None,0.77,7.502833796672348,658.4476326790245,None,None,658.4476326790245,None,,,,,,,,,,,,,,,,,,,24247,2020_Feb_28_1130,Mmi_3levels,3.1.5,59.97639431935839,
,,,2,0,7.1,,,,,,,,,0,1,1,1,0,0,0,26,,,,,,,,,,,,,,,,,,,,,,,,,,,,,,,,,,,,,,,,,,,,,,,,670.2189459914662,None,0.75,7.501769522983523,673.2367765754825,None,None,673.2367765754825,None,677.7218623445515,None,False,False,True,0.75,0.75,0.75,2.6875,1.775,-0.9125000000000001,0.4312499999999999,certain,certain,0.4312499999999999,137.29875,680.7563981215499,None,680.7563981215499,None,680.7563981215499,None,680.7563981215499,None,680.7563981215499,None,680.7563981215499,None,680.7563981215499,None,3,1.8676064017708995,680.7563981215499,None,682.6571438810934,None,682.6571438810934,None,682.6571438810934,None,682.6571438810934,None,682.6571438810934,None,682.6571438810934,None,682.6571438810934,None,686.6420306188229,None,686.6420306188229,None,686.6420306188229,None,686.6420306188229,None,686.6420306188229,None,686.6420306188229,None,686.6420306188229,None,687.6424264415982,None,,,,,,,,,,,,664.9502082469335,None,4,5.252319259067008,664.9502082469335,None,,,,,,,,,,,,,24247,2020_Feb_28_1130,Mmi_3levels,3.1.5,59.97639431935839,
,,,2,0,3.5,,,,,,,,,0,1,1,1,0,1,1,6,,,,,,,,,,,,,,,,,,,,,,,,,,,,,,,,,,,,,,,,,,,,,,,,,,,,,,,,,,,False,False,False,0.75,0.75,1.5,2.75,0.875,-1.875,-0.5,gamble,win,0.875,138.17375,689.6598842418389,None,689.6598842418389,None,689.6598842418389,None,689.6598842418389,None,689.6598842418389,None,689.6598842418389,None,689.6598842418389,None,1,2.401195659964287,689.6598842418389,None,692.0941719016337,None,692.0941719016337,None,692.0941719016337,None,692.0941719016337,None,692.0941719016337,None,692.0941719016337,None,692.0941719016337,None,696.0957315137639,None,696.0957315137639,None,696.0957315137639,None,696.0957315137639,None,696.0957315137639,None,696.0957315137639,None,696.0957315137639,None,705.5827807173846,None,697.0794477424351,None,698.079838765414,None,0.72,7.502848196047125,701.0810025547689,None,None,701.0810025547689,None,,,,,,,,,,,,,,,,,,,24247,2020_Feb_28_1130,Mmi_3levels,3.1.5,59.97639431935839,
,,,2,0,-1.3,,,,,,,,,0,1,1,1,0,2,2,24,,,,,,,,,,,,,,,,,,,,,,,,,,,,,,,,,,,,,,,,,,,,,,,,,,,,,,,,,,,False,True,False,0.72,0.72,2.2199999999999998,-12.3,-1.3,-13.600000000000001,-7.450000000000001,certain,certain,-7.450000000000001,130.72375000000002,707.6002343578002,None,707.6002343578002,None,707.6002343578002,None,707.6002343578002,None,707.6002343578002,None,707.6002343578002,None,707.6002343578002,None,3,2.2844861791600124,707.6002343578002,None,709.9178061370767,None,709.9178061370767,None,709.9178061370767,None,709.9178061370767,None,709.9178061370767,None,709.9178061370767,None,709.9178061370767,None,713.9193711889675,None,713.9193711889675,None,713.9193711889675,None,713.9193711889675,None,713.9193711889675,None,713.9193711889675,None,713.9193711889675,None,714.9030352599002,None,,,,,,,,,,,,,,,,,,,,,,,,,,,,,,24247,2020_Feb_28_1130,Mmi_3levels,3.1.5,59.97639431935839,
,,,2,0,2.7,,,,,,,,,0,1,1,1,0,3,3,12,,,,,,,,,,,,,,,,,,,,,,,,,,,,,,,,,,,,,,,,,,,,,,,,,,,,,,,,,,,False,True,True,0.72,0.72,2.9399999999999995,-13.02,2.7,-10.32,-3.81,gamble,lose,-10.32,120.40375000000003,716.92054361794,None,716.92054361794,None,716.92054361794,None,716.92054361794,None,716.92054361794,None,716.92054361794,None,716.92054361794,None,None,,716.92054361794,None,719.9217163669018,None,719.9217163669018,None,719.9217163669018,None,719.9217163669018,None,719.9217163669018,None,719.9217163669018,None,719.9217163669018,None,723.9232868585532,None,723.9232868585532,None,723.9232868585532,None,723.9232868585532,None,723.9232868585532,None,723.9232868585532,None,723.9232868585532,None,733.410327422549,None,724.9070014872923,None,725.9073963501069,None,0.7,7.50285459576844,728.9085527797797,None,None,728.9085527797797,None,,,,,,,,,,,,,,,,,,,24247,2020_Feb_28_1130,Mmi_3levels,3.1.5,59.97639431935839,
,,,2,0,9.5,,,,,,,,,0,1,1,1,0,4,4,19,,,,,,,,,,,,,,,,,,,,,,,,,,,,,,,,,,,,,,,,,,,,,,,,,,,,,,,,,,,False,True,True,0.7,0.7,3.6399999999999997,-13.439999999999998,9.5,-3.9399999999999977,-1.9699999999999989,gamble,lose,-3.9399999999999977,116.46375000000003,735.427787462686,None,735.427787462686,None,735.427787462686,None,735.427787462686,None,735.427787462686,None,735.427787462686,None,735.427787462686,None,1,1.7676021139559452,735.427787462686,None,737.2284882961903,None,737.2284882961903,None,737.2284882961903,None,737.2284882961903,None,737.2284882961903,None,737.2284882961903,None,737.2284882961903,None,741.230052068131,None,741.230052068131,None,741.230052068131,None,741.230052068131,None,741.230052068131,None,741.230052068131,None,741.230052068131,None,742.2137695767451,None,,,,,,,,,,,,,,,,,,,,,,,,,,,,,,24247,2020_Feb_28_1130,Mmi_3levels,3.1.5,59.97639431935839,
,,,2,0,-0.1,,,,,,,,,0,1,1,1,0,5,5,1,,,,,,,,,,,,,,,,,,,,,,,,,,,,,,,,,,,,,,,,,,,,,,,,,,,,,,,,,,,False,True,False,0.7,0.7,4.34,-14.139999999999999,-0.1,-14.239999999999998,-7.169999999999999,certain,certain,-7.169999999999999,109.29375000000003,744.2312292969,None,744.2312292969,None,744.2312292969,None,744.2312292969,None,744.2312292969,None,744.2312292969,None,744.2312292969,None,3,1.5006908499344718,744.2312292969,None,745.7651628601088,None,745.7651628601088,None,745.7651628601088,None,745.7651628601088,None,745.7651628601088,None,745.7651628601088,None,745.7651628601088,None,749.7667298319138,None,749.7667298319138,None,749.7667298319138,None,749.7667298319138,None,749.7667298319138,None,749.7667298319138,None,749.7667298319138,None,750.7504502204029,None,,,,,,,,,,,,,,,,,,,,,,,,,,,,,,24247,2020_Feb_28_1130,Mmi_3levels,3.1.5,59.97639431935839,
,,,2,0,5.3,,,,,,,,,0,1,1,1,0,6,6,0,,,,,,,,,,,,,,,,,,,,,,,,,,,,,,,,,,,,,,,,,,,,,,,,,,,,,,,,,,,False,True,False,0.7,0.7,5.04,-14.84,5.3,-9.54,-2.1199999999999997,gamble,lose,-9.54,99.75375000000003,752.7679035408364,None,752.7679035408364,None,752.7679035408364,None,752.7679035408364,None,752.7679035408364,None,752.7679035408364,None,752.7679035408364,None,1,1.867595202253142,752.7679035408364,None,754.6686419406979,None,754.6686419406979,None,754.6686419406979,None,754.6686419406979,None,754.6686419406979,None,754.6686419406979,None,754.6686419406979,None,758.6535344381773,None,758.6535344381773,None,758.6535344381773,None,758.6535344381773,None,758.6535344381773,None,758.6535344381773,None,758.6535344381773,None,768.1572504364594,None,759.6538793831642,None,760.6543209639494,None,0.87,7.502838916450855,763.6554837933436,None,None,763.6554837933436,None,,,,,,,,,,,,,,,,,,,24247,2020_Feb_28_1130,Mmi_3levels,3.1.5,59.97639431935839,
,,,2,0,4.3,,,,,,,,,0,1,1,1,0,7,7,17,,,,,,,,,,,,,,,,,,,,,,,,,,,,,,,,,,,,,,,,,,,,,,,,,,,,,,,,,,,False,True,True,0.87,0.87,5.91,-18.09,4.3,-13.79,-4.744999999999999,certain,certain,-4.744999999999999,95.00875000000002,770.1747411952601,None,770.1747411952601,None,770.1747411952601,None,770.1747411952601,None,770.1747411952601,None,770.1747411952601,None,770.1747411952601,None,3,1.4174407129758038,770.1747411952601,None,771.6252233502746,None,771.6252233502746,None,771.6252233502746,None,771.6252233502746,None,771.6252233502746,None,771.6252233502746,None,771.6252233502746,None,775.6268485595501,None,775.6268485595501,None,775.6268485595501,None,775.6268485595501,None,775.6268485595501,None,775.6268485595501,None,775.6268485595501,None,776.6106012666278,None,,,,,,,,,,,,,,,,,,,,,,,,,,,,,,24247,2020_Feb_28_1130,Mmi_3levels,3.1.5,59.97639431935839,
,,,2,0,8.3,,,,,,,,,0,1,1,1,0,8,8,13,,,,,,,,,,,,,,,,,,,,,,,,,,,,,,,,,,,,,,,,,,,,,,,,,,,,,,,,,,,False,True,False,0.87,0.87,6.78,-18.96,8.3,-10.66,-1.1799999999999997,certain,certain,-1.1799999999999997,93.82875000000001,778.6280161887335,None,778.6280161887335,None,778.6280161887335,None,778.6280161887335,None,778.6280161887335,None,778.6280161887335,None,778.6280161887335,None,3,1.81762585692195,778.6280161887335,None,780.4786905273868,None,780.4786905273868,None,780.4786905273868,None,780.4786905273868,None,780.4786905273868,None,780.4786905273868,None,780.4786905273868,None,784.4803064570588,None,784.4803064570588,None,784.4803064570588,None,784.4803064570588,None,784.4803064570588,None,784.4803064570588,None,784.4803064570588,None,793.9673521408331,None,785.4640242856622,None,786.4644146686696,None,0.76,7.502816837411956,789.4655726982746,None,None,789.4655726982746,None,,,,,,,,,,,,,,,,,,,24247,2020_Feb_28_1130,Mmi_3levels,3.1.5,59.97639431935839,
,,,2,0,3.7,,,,,,,,,0,1,1,1,0,9,9,25,,,,,,,,,,,,,,,,,,,,,,,,,,,,,,,,,,,,,,,,,,,,,,,,,,,,,,,,,,,False,True,False,0.76,0.76,7.54,-18.18,3.7,-14.48,-5.390000000000001,certain,certain,-5.390000000000001,88.43875000000001,795.9848035413452,None,795.9848035413452,None,795.9848035413452,None,795.9848035413452,None,795.9848035413452,None,795.9848035413452,None,795.9848035413452,None,3,1.184036790713435,795.9848035413452,None,797.2018980933935,None,797.2018980933935,None,797.2018980933935,None,797.2018980933935,None,797.2018980933935,None,797.2018980933935,None,797.2018980933935,None,801.2035098632477,None,801.2035098632477,None,801.2035098632477,None,801.2035098632477,None,801.2035098632477,None,801.2035098632477,None,801.2035098632477,None,802.1872014529872,None,,,,,,,,,,,,,,,,,,,,,,,,,,,,,,24247,2020_Feb_28_1130,Mmi_3levels,3.1.5,59.97639431935839,
,,,2,0,11.1,,,,,,,,,0,1,1,1,0,10,10,8,,,,,,,,,,,,,,,,,,,,,,,,,,,,,,,,,,,,,,,,,,,,,,,,,,,,,,,,,,,False,True,True,0.76,0.76,8.3,-18.94,11.1,-7.840000000000002,1.629999999999999,certain,certain,1.629999999999999,90.06875000000001,804.204693491738,None,804.204693491738,None,804.204693491738,None,804.204693491738,None,804.204693491738,None,804.204693491738,None,804.204693491738,None,3,2.017684990343696,804.204693491738,None,806.2554938409085,None,806.2554938409085,None,806.2554938409085,None,806.2554938409085,None,806.2554938409085,None,806.2554938409085,None,806.2554938409085,None,810.2403792986879,None,810.2403792986879,None,810.2403792986879,None,810.2403792986879,None,810.2403792986879,None,810.2403792986879,None,810.2403792986879,None,811.2407700016847,None,,,,,,,,,,,,,,,,,,,,,,,,,,,,,,24247,2020_Feb_28_1130,Mmi_3levels,3.1.5,59.97639431935839,
,,,2,0,4.1,,,,,,,,,0,1,1,1,0,11,11,16,,,,,,,,,,,,,,,,,,,,,,,,,,,,,,,,,,,,,,,,,,,,,,,,,,,,,,,,,,,False,True,True,0.76,0.76,9.06,-19.700000000000003,4.1,-15.600000000000003,-5.750000000000002,certain,certain,-5.750000000000002,84.31875000000001,813.2582300418289,None,813.2582300418289,None,813.2582300418289,None,813.2582300418289,None,813.2582300418289,None,813.2582300418289,None,813.2582300418289,None,3,2.534579615094117,813.2582300418289,None,815.8258949370502,None,815.8258949370502,None,815.8258949370502,None,815.8258949370502,None,815.8258949370502,None,815.8258949370502,None,815.8258949370502,None,819.8274670286337,None,819.8274670286337,None,819.8274670286337,None,819.8274670286337,None,819.8274670286337,None,819.8274670286337,None,819.8274670286337,None,829.3145344714576,None,820.8111826173335,None,821.8115749202552,None,0.72,7.502973950577143,824.8127454293135,None,None,824.8127454293135,None,,,,,,,,,,,,,,,,,,,24247,2020_Feb_28_1130,Mmi_3levels,3.1.5,59.97639431935839,
,,,2,0,12.5,,,,,,,,,0,1,1,1,0,12,12,15,,,,,,,,,,,,,,,,,,,,,,,,,,,,,,,,,,,,,,,,,,,,,,,,,,,,,,,,,,,False,True,True,0.72,0.72,9.780000000000001,-19.86,12.5,-7.359999999999999,-3.6799999999999997,gamble,lose,-7.359999999999999,76.95875000000001,831.3319621930059,None,831.3319621930059,None,831.3319621930059,None,831.3319621930059,None,831.3319621930059,None,831.3319621930059,None,831.3319621930059,None,1,2.8678700702948845,831.3319621930059,None,834.2330992955176,None,834.2330992955176,None,834.2330992955176,None,834.2330992955176,None,834.2330992955176,None,834.2330992955176,None,834.2330992955176,None,838.2346646673905,None,838.2346646673905,None,838.2346646673905,None,838.2346646673905,None,838.2346646673905,None,838.2346646673905,None,838.2346646673905,None,839.2183831359653,None,,,,,,,,,,,,,,,,,,,,,,,,,,,,,,24247,2020_Feb_28_1130,Mmi_3levels,3.1.5,59.97639431935839,
,,,2,0,13.3,,,,,,,,,0,1,1,1,0,13,13,10,,,,,,,,,,,,,,,,,,,,,,,,,,,,,,,,,,,,,,,,,,,,,,,,,,,,,,,,,,,False,True,False,0.72,0.72,10.500000000000002,-20.580000000000002,13.3,-7.280000000000001,-3.6400000000000006,certain,certain,-3.6400000000000006,73.31875000000001,841.2358358164201,None,841.2358358164201,None,841.2358358164201,None,841.2358358164201,None,841.2358358164201,None,841.2358358164201,None,841.2358358164201,None,3,1.067381387561909,841.2358358164201,None,842.3362493664245,None,842.3362493664245,None,842.3362493664245,None,842.3362493664245,None,842.3362493664245,None,842.3362493664245,None,842.3362493664245,None,846.3378364973541,None,846.3378364973541,None,846.3378364973541,None,846.3378364973541,None,846.3378364973541,None,846.3378364973541,None,846.3378364973541,None,855.8249359387846,None,847.3215837646712,None,848.3219437490043,None,0.78,7.502902593681938,851.3231062584164,None,None,851.3231062584164,None,,,,,,,,,,,,,,,,,,,24247,2020_Feb_28_1130,Mmi_3levels,3.1.5,59.97639431935839,
,,,2,0,5.7,,,,,,,,,0,1,1,1,0,14,14,23,,,,,,,,,,,,,,,,,,,,,,,,,,,,,,,,,,,,,,,,,,,,,,,,,,,,,,,,,,,False,True,False,0.78,0.78,11.280000000000001,-22.200000000000003,5.7,-16.500000000000004,-5.400000000000002,certain,certain,-5.400000000000002,67.91875,857.8423348615834,None,857.8423348615834,None,857.8423348615834,None,857.8423348615834,None,857.8423348615834,None,857.8423348615834,None,857.8423348615834,None,3,1.0006479717994807,857.8423348615834,None,858.8760725933171,None,858.8760725933171,None,858.8760725933171,None,858.8760725933171,None,858.8760725933171,None,858.8760725933171,None,858.8760725933171,None,862.8776350853223,None,862.8776350853223,None,862.8776350853223,None,862.8776350853223,None,862.8776350853223,None,862.8776350853223,None,862.8776350853223,None,863.8613577137075,None,,,,,,,,,,,,,,,,,,,,,,,,,,,,,,24247,2020_Feb_28_1130,Mmi_3levels,3.1.5,59.97639431935839,
,,,2,0,6.7,,,,,,,,,0,1,1,1,0,15,15,21,,,,,,,,,,,,,,,,,,,,,,,,,,,,,,,,,,,,,,,,,,,,,,,,,,,,,,,,,,,False,True,False,0.78,0.78,12.06,-22.98,6.7,-16.28,-4.790000000000001,certain,certain,-4.790000000000001,63.128750000000004,865.8788052743912,None,865.8788052743912,None,865.8788052743912,None,865.8788052743912,None,865.8788052743912,None,865.8788052743912,None,865.8788052743912,None,3,0.8339144280471373,865.8788052743912,None,866.7458213018544,None,866.7458213018544,None,866.7458213018544,None,866.7458213018544,None,866.7458213018544,None,866.7458213018544,None,866.7458213018544,None,870.747387633688,None,870.747387633688,None,870.747387633688,None,870.747387633688,None,870.747387633688,None,870.747387633688,None,870.747387633688,None,880.2343613205958,None,871.7311000225236,None,872.7314907255204,None,0.72,7.50294163198123,875.7326490751075,None,None,875.7326490751075,None,,,,,,,,,,,,,,,,,,,24247,2020_Feb_28_1130,Mmi_3levels,3.1.5,59.97639431935839,
,,,2,0,10.7,,,,,,,,,0,1,1,1,0,16,16,14,,,,,,,,,,,,,,,,,,,,,,,,,,,,,,,,,,,,,,,,,,,,,,,,,,,,,,,,,,,False,True,False,0.72,0.72,12.780000000000001,-22.86,10.7,-12.16,-0.7300000000000004,gamble,lose,-12.16,50.96875,882.2518863179066,None,882.2518863179066,None,882.2518863179066,None,882.2518863179066,None,882.2518863179066,None,882.2518863179066,None,882.2518863179066,None,1,1.900927831622539,882.2518863179066,None,884.1859755863406,None,884.1859755863406,None,884.1859755863406,None,884.1859755863406,None,884.1859755863406,None,884.1859755863406,None,884.1859755863406,None,888.1875681570309,None,888.1875681570309,None,888.1875681570309,None,888.1875681570309,None,888.1875681570309,None,888.1875681570309,None,888.1875681570309,None,889.1712520671063,None,,,,,,,,,,,,,,,,,,,,,,,,,,,,,,24247,2020_Feb_28_1130,Mmi_3levels,3.1.5,59.97639431935839,
,,,2,0,2.3,,,,,,,,,0,1,1,1,0,17,17,5,,,,,,,,,,,,,,,,,,,,,,,,,,,,,,,,,,,,,,,,,,,,,,,,,,,,,,,,,,,False,True,False,0.72,0.72,13.500000000000002,-23.580000000000002,2.3,-21.28,-9.49,certain,certain,-9.49,41.47875,891.1887117872611,None,891.1887117872611,None,891.1887117872611,None,891.1887117872611,None,891.1887117872611,None,891.1887117872611,None,891.1887117872611,None,3,0.9172656805967563,891.1887117872611,None,892.1390806672061,None,892.1390806672061,None,892.1390806672061,None,892.1390806672061,None,892.1390806672061,None,892.1390806672061,None,892.1390806672061,None,896.1239757245712,None,896.1239757245712,None,896.1239757245712,None,896.1239757245712,None,896.1239757245712,None,896.1239757245712,None,896.1239757245712,None,897.1243689874609,None,,,,,,,,,,,,,,,,,,,,,,,,,,,,,,24247,2020_Feb_28_1130,Mmi_3levels,3.1.5,59.97639431935839,
,,,2,0,11.9,,,,,,,,,0,1,1,1,0,18,18,7,,,,,,,,,,,,,,,,,,,,,,,,,,,,,,,,,,,,,,,,,,,,,,,,,,,,,,,,,,,False,True,True,0.72,0.72,14.220000000000002,-24.300000000000004,11.9,-12.400000000000004,-0.2500000000000018,gamble,lose,-12.400000000000004,29.078749999999992,899.1418197480016,None,899.1418197480016,None,899.1418197480016,None,899.1418197480016,None,899.1418197480016,None,899.1418197480016,None,899.1418197480016,None,None,,899.1418197480016,None,902.1429912170206,None,902.1429912170206,None,902.1429912170206,None,902.1429912170206,None,902.1429912170206,None,902.1429912170206,None,902.1429912170206,None,906.144561708672,None,906.144561708672,None,906.144561708672,None,906.144561708672,None,906.144561708672,None,906.144561708672,None,906.144561708672,None,915.6316080324177,None,907.1282798572574,None,908.1286724801685,None,0.77,7.502980350291182,911.129835949534,None,None,911.129835949534,None,,,,,,,,,,,,,,,,,,,24247,2020_Feb_28_1130,Mmi_3levels,3.1.5,59.97639431935839,
,,,2,0,1.3,,,,,,,,,0,1,1,1,0,19,19,4,,,,,,,,,,,,,,,,,,,,,,,,,,,,,,,,,,,,,,,,,,,,,,,,,,,,,,,,,,,False,True,True,0.77,0.77,14.990000000000002,-25.770000000000003,1.3,-24.470000000000002,-11.585,certain,certain,-11.585,17.49374999999999,917.6490674325833,None,917.6490674325833,None,917.6490674325833,None,917.6490674325833,None,917.6490674325833,None,917.6490674325833,None,917.6490674325833,None,3,1.2506732506953995,917.6490674325833,None,918.9328922005297,None,918.9328922005297,None,918.9328922005297,None,918.9328922005297,None,918.9328922005297,None,918.9328922005297,None,918.9328922005297,None,922.9344620522097,None,922.9344620522097,None,922.9344620522097,None,922.9344620522097,None,922.9344620522097,None,922.9344620522097,None,922.9344620522097,None,923.9181824406987,None,,,,,,,,,,,,,,,,,,,,,,,,,,,,,,24247,2020_Feb_28_1130,Mmi_3levels,3.1.5,59.97639431935839,
,,,2,0,0.3,,,,,,,,,0,1,1,1,0,20,20,3,,,,,,,,,,,,,,,,,,,,,,,,,,,,,,,,,,,,,,,,,,,,,,,,,,,,,,,,,,,False,False,True,0.77,0.77,15.760000000000002,4.008333333333334,0.075,-3.9333333333333336,-1.9291666666666667,certain,certain,-1.9291666666666667,15.564583333333324,925.9356396009607,None,925.9356396009607,None,925.9356396009607,None,925.9356396009607,None,925.9356396009607,None,925.9356396009607,None,925.9356396009607,None,3,1.617532804972143,925.9356396009607,None,927.586284244906,None,927.586284244906,None,927.586284244906,None,927.586284244906,None,927.586284244906,None,927.586284244906,None,927.586284244906,None,931.5877913793156,None,931.5877913793156,None,931.5877913793156,None,931.5877913793156,None,931.5877913793156,None,931.5877913793156,None,931.5877913793156,None,941.0748949805711,None,932.5715712852179,None,933.5719831072929,None,0.72,7.502831876750861,936.5731155380126,None,None,936.5731155380126,None,,,,,,,,,,,,,,,,,,,24247,2020_Feb_28_1130,Mmi_3levels,3.1.5,59.97639431935839,
,,,2,0,9.7,,,,,,,,,0,1,1,1,0,21,21,20,,,,,,,,,,,,,,,,,,,,,,,,,,,,,,,,,,,,,,,,,,,,,,,,,,,,,,,,,,,False,False,True,0.72,0.72,16.48,3.8933333333333335,2.425,-1.4683333333333337,0.47833333333333306,certain,certain,0.47833333333333306,16.042916666666656,943.0922836638129,None,943.0922836638129,None,943.0922836638129,None,943.0922836638129,None,943.0922836638129,None,943.0922836638129,None,943.0922836638129,None,3,1.2342038874412538,943.0922836638129,None,944.3595670716386,None,944.3595670716386,None,944.3595670716386,None,944.3595670716386,None,944.3595670716386,None,944.3595670716386,None,944.3595670716386,None,948.3444042115298,None,948.3444042115298,None,948.3444042115298,None,948.3444042115298,None,948.3444042115298,None,948.3444042115298,None,948.3444042115298,None,949.3447981143836,None,,,,,,,,,,,,,,,,,,,,,,,,,,,,,,24247,2020_Feb_28_1130,Mmi_3levels,3.1.5,59.97639431935839,
,,,2,0,6.9,,,,,,,,,0,1,1,1,0,22,22,11,,,,,,,,,,,,,,,,,,,,,,,,,,,,,,,,,,,,,,,,,,,,,,,,,,,,,,,,,,,False,True,True,0.72,0.72,17.2,-27.28,6.9,-20.380000000000003,-6.740000000000001,certain,certain,-6.740000000000001,9.302916666666654,951.3622504748564,None,951.3622504748564,None,951.3622504748564,None,951.3622504748564,None,951.3622504748564,None,951.3622504748564,None,951.3622504748564,None,3,1.1838719978914014,951.3622504748564,None,952.5793927048289,None,952.5793927048289,None,952.5793927048289,None,952.5793927048289,None,952.5793927048289,None,952.5793927048289,None,952.5793927048289,None,956.5809551968268,None,956.5809551968268,None,956.5809551968268,None,956.5809551968268,None,956.5809551968268,None,956.5809551968268,None,956.5809551968268,None,966.0680088802546,None,957.564664065816,None,958.5650976469478,None,0.8,7.5028142775263404,961.566231037621,None,None,961.566231037621,None,,,,,,,,,,,,,,,,,,,24247,2020_Feb_28_1130,Mmi_3levels,3.1.5,59.97639431935839,
,,,2,0,-1.1,,,,,,,,,0,1,1,1,0,23,23,18,,,,,,,,,,,,,,,,,,,,,,,,,,,,,,,,,,,,,,,,,,,,,,,,,,,,,,,,,,,False,False,True,0.8,0.8,18.0,4.300000000000001,-0.275,-4.575000000000001,-2.4250000000000007,certain,certain,-2.4250000000000007,6.877916666666653,968.085459320806,None,968.085459320806,None,968.085459320806,None,968.085459320806,None,968.085459320806,None,968.085459320806,None,968.085459320806,None,3,1.134033526861458,968.085459320806,None,969.2525835675624,None,969.2525835675624,None,969.2525835675624,None,969.2525835675624,None,969.2525835675624,None,969.2525835675624,None,969.2525835675624,None,973.2541393398569,None,973.2541393398569,None,973.2541393398569,None,973.2541393398569,None,973.2541393398569,None,973.2541393398569,None,973.2541393398569,None,974.2378632481923,None,,,,,,,,,,,,,,,,,,,,,,,,,,,,,,24247,2020_Feb_28_1130,Mmi_3levels,3.1.5,59.97639431935839,
,,,2,0,10.3,,,,,,,,,0,1,1,1,0,24,24,22,,,,,,,,,,,,,,,,,,,,,,,,,,,,,,,,,,,,,,,,,,,,,,,,,,,,,,,,,,,False,False,False,0.8,0.8,18.8,4.366666666666667,2.575,-1.791666666666667,0.3916666666666666,certain,certain,0.3916666666666666,7.26958333333332,976.2553255282328,None,976.2553255282328,None,976.2553255282328,None,976.2553255282328,None,976.2553255282328,None,976.2553255282328,None,976.2553255282328,None,3,1.8009453028571443,976.2553255282328,None,978.0893708305812,None,978.0893708305812,None,978.0893708305812,None,978.0893708305812,None,978.0893708305812,None,978.0893708305812,None,978.0893708305812,None,982.0909368424254,None,982.0909368424254,None,982.0909368424254,None,982.0909368424254,None,982.0909368424254,None,982.0909368424254,None,982.0909368424254,None,983.074656590943,None,,,,,,,,,,,,,,,,,,,,,,,,,,,,,,24247,2020_Feb_28_1130,Mmi_3levels,3.1.5,59.97639431935839,
,,,2,0,10.9,,,,,,,,,0,1,1,1,0,25,25,9,,,,,,,,,,,,,,,,,,,,,,,,,,,,,,,,,,,,,,,,,,,,,,,,,,,,,,,,,,,False,True,True,0.8,0.8,19.6,-30.800000000000004,10.9,-19.900000000000006,-4.500000000000003,certain,certain,-4.500000000000003,2.7695833333333173,985.0921127912516,None,985.0921127912516,None,985.0921127912516,None,985.0921127912516,None,985.0921127912516,None,985.0921127912516,None,985.0921127912516,None,3,1.6673811955697602,985.0921127912516,None,986.7927261405566,None,986.7927261405566,None,986.7927261405566,None,986.7927261405566,None,986.7927261405566,None,986.7927261405566,None,986.7927261405566,None,990.7943404703037,None,990.7943404703037,None,990.7943404703037,None,990.7943404703037,None,990.7943404703037,None,990.7943404703037,None,990.7943404703037,None,1000.2813887139637,None,991.7780589388713,None,992.778449321886,None,0.74,7.502861315479095,995.7796127912516,None,None,995.7796127912516,None,,,,,,,,,,,,,,,,,,,24247,2020_Feb_28_1130,Mmi_3levels,3.1.5,59.97639431935839,
,,,2,0,9.3,,,,,,,,,0,1,1,1,0,26,26,2,,,,,,,,,,,,,,,,,,,,,,,,,,,,,,,,,,,,,,,,,,,,,,,,,,,,,,,,,,,False,True,True,0.74,0.74,20.34,-30.7,9.3,-21.4,-6.049999999999999,certain,certain,-6.049999999999999,-3.2804166666666816,1002.2988465141971,None,1002.2988465141971,None,1002.2988465141971,None,1002.2988465141971,None,1002.2988465141971,None,1002.2988465141971,None,1002.2988465141971,None,3,1.284076276999258,1002.2988465141971,None,1003.6160279104661,None,1003.6160279104661,None,1003.6160279104661,None,1003.6160279104661,None,1003.6160279104661,None,1003.6160279104661,None,1003.6160279104661,None,1007.6175884825498,None,1007.6175884825498,None,1007.6175884825498,None,1007.6175884825498,None,1007.6175884825498,None,1007.6175884825498,None,1007.6175884825498,None,1008.6013098309922,None,,,,,,,,,,,,,,,,,,,,,,,,,,,,,,24247,2020_Feb_28_1130,Mmi_3levels,3.1.5,59.97639431935839,
,,,3,1,0.7,,,,,,,,,0,2,2,2,0,0,0,13,,,,,,,,,,,,,,,,,,,,,,,,,,,,,,,,,,,,,,,,,,,,,,,,1017.2713645102122,None,0.72,7.502210143815319,1020.2725202999136,None,None,1020.2725202999136,None,1024.7742850231152,None,True,False,True,0.72,-0.28,-0.28,-1.0033333333333334,0.7,-0.30333333333333345,0.19833333333333325,gamble,lose,-0.30333333333333345,-3.5837500000000153,1027.808815040371,None,1027.808815040371,None,1027.808815040371,None,1027.808815040371,None,1027.808815040371,None,1027.808815040371,None,1027.808815040371,None,1,1.4674983744698693,1027.808815040371,None,1029.3094098944784,None,1029.3094098944784,None,1029.3094098944784,None,1029.3094098944784,None,1029.3094098944784,None,1029.3094098944784,None,1029.3094098944784,None,1033.310979106187,None,1033.310979106187,None,1033.310979106187,None,1033.310979106187,None,1033.310979106187,None,1033.310979106187,None,1033.310979106187,None,1042.7980151903757,None,1034.294689255119,None,1035.2950633188448,None,0.72,7.50278611874819,1038.2962440674528,None,None,1038.2962440674528,None,1010.6020838773111,None,4,6.652809669729322,1010.6020838773111,None,,,,,,,,,,,,,24247,2020_Feb_28_1130,Mmi_3levels,3.1.5,59.97639431935839,
,,,3,1,5.7,,,,,,,,,0,2,2,2,0,1,1,14,,,,,,,,,,,,,,,,,,,,,,,,,,,,,,,,,,,,,,,,,,,,,,,,,,,,,,,,,,,True,True,True,0.72,-0.28,-0.56,4.48,5.7,1.2199999999999998,0.6099999999999999,gamble,win,5.7,2.116249999999985,1044.815472670627,None,1044.815472670627,None,1044.815472670627,None,1044.815472670627,None,1044.815472670627,None,1044.815472670627,None,1044.815472670627,None,1,1.1173676921534934,1044.815472670627,None,1045.9658539660304,None,1045.9658539660304,None,1045.9658539660304,None,1045.9658539660304,None,1045.9658539660304,None,1045.9658539660304,None,1045.9658539660304,None,1049.950813020616,None,1049.950813020616,None,1049.950813020616,None,1049.950813020616,None,1049.950813020616,None,1049.950813020616,None,1049.950813020616,None,1050.9512168430374,None,,,,,,,,,,,,,,,,,,,,,,,,,,,,,,24247,2020_Feb_28_1130,Mmi_3levels,3.1.5,59.97639431935839,
,,,3,1,6.9,,,,,,,,,0,2,2,2,0,2,2,11,,,,,,,,,,,,,,,,,,,,,,,,,,,,,,,,,,,,,,,,,,,,,,,,,,,,,,,,,,,True,True,True,0.72,-0.28,-0.8400000000000001,4.760000000000001,6.9,2.1399999999999997,1.0699999999999998,gamble,win,6.9,9.016249999999985,1052.9686628037962,None,1052.9686628037962,None,1052.9686628037962,None,1052.9686628037962,None,1052.9686628037962,None,1052.9686628037962,None,1052.9686628037962,None,1,1.6509028727014083,1052.9686628037962,None,1054.6526503166533,None,1054.6526503166533,None,1054.6526503166533,None,1054.6526503166533,None,1054.6526503166533,None,1054.6526503166533,None,1054.6526503166533,None,1058.6375450540363,None,1058.6375450540363,None,1058.6375450540363,None,1058.6375450540363,None,1058.6375450540363,None,1058.6375450540363,None,1058.6375450540363,None,1059.6379373569653,None,,,,,,,,,,,,,,,,,,,,,,,,,,,,,,24247,2020_Feb_28_1130,Mmi_3levels,3.1.5,59.97639431935839,
,,,3,1,7.3,,,,,,,,,0,2,2,2,0,3,3,15,,,,,,,,,,,,,,,,,,,,,,,,,,,,,,,,,,,,,,,,,,,,,,,,,,,,,,,,,,,True,False,False,0.72,-0.28,-1.12,-1.0733333333333335,7.3,6.226666666666667,3.1133333333333333,gamble,lose,6.226666666666667,15.242916666666652,1061.6553922773237,None,1061.6553922773237,None,1061.6553922773237,None,1061.6553922773237,None,1061.6553922773237,None,1061.6553922773237,None,1061.6553922773237,None,1,1.4674967745449976,1061.6553922773237,None,1063.1559813716885,None,1063.1559813716885,None,1063.1559813716885,None,1063.1559813716885,None,1063.1559813716885,None,1063.1559813716885,None,1063.1559813716885,None,1067.1408764290536,None,1067.1408764290536,None,1067.1408764290536,None,1067.1408764290536,None,1067.1408764290536,None,1067.1408764290536,None,1067.1408764290536,None,1076.6445930673071,None,1068.141266172097,None,1069.141650155383,None,0.71,7.502996669587446,1072.1428072250274,None,None,1072.1428072250274,None,,,,,,,,,,,,,,,,,,,24247,2020_Feb_28_1130,Mmi_3levels,3.1.5,59.97639431935839,
,,,3,1,-0.3,,,,,,,,,0,2,2,2,0,4,4,5,,,,,,,,,,,,,,,,,,,,,,,,,,,,,,,,,,,,,,,,,,,,,,,,,,,,,,,,,,,True,True,False,0.71,-0.29000000000000004,-1.4100000000000001,5.470000000000001,-0.3,-5.7700000000000005,-3.035,gamble,win,-0.3,14.942916666666651,1078.662036788155,None,1078.662036788155,None,1078.662036788155,None,1078.662036788155,None,1078.662036788155,None,1078.662036788155,None,1078.662036788155,None,1,1.9177453397278441,1078.662036788155,None,1080.6128130103752,None,1080.6128130103752,None,1080.6128130103752,None,1080.6128130103752,None,1080.6128130103752,None,1080.6128130103752,None,1080.6128130103752,None,1084.6143742224303,None,1084.6143742224303,None,1084.6143742224303,None,1084.6143742224303,None,1084.6143742224303,None,1084.6143742224303,None,1084.6143742224303,None,1085.598091091073,None,,,,,,,,,,,,,,,,,,,,,,,,,,,,,,24247,2020_Feb_28_1130,Mmi_3levels,3.1.5,59.97639431935839,
,,,3,1,7.9,,,,,,,,,0,2,2,2,0,5,5,16,,,,,,,,,,,,,,,,,,,,,,,,,,,,,,,,,,,,,,,,,,,,,,,,,,,,,,,,,,,True,True,False,0.71,-0.29000000000000004,-1.7000000000000002,5.760000000000001,7.9,2.1399999999999997,1.0699999999999998,gamble,win,7.9,22.842916666666653,1087.615548251335,None,1087.615548251335,None,1087.615548251335,None,1087.615548251335,None,1087.615548251335,None,1087.615548251335,None,1087.615548251335,None,1,1.4174771913894801,1087.615548251335,None,1089.0661148826766,None,1089.0661148826766,None,1089.0661148826766,None,1089.0661148826766,None,1089.0661148826766,None,1089.0661148826766,None,1089.0661148826766,None,1093.0509616221461,None,1093.0509616221461,None,1093.0509616221461,None,1093.0509616221461,None,1093.0509616221461,None,1093.0509616221461,None,1093.0509616221461,None,1102.5547233784382,None,1094.0514035229135,None,1095.0517411082255,None,0.78,7.502811077662045,1098.0529439358797,None,None,1098.0529439358797,None,,,,,,,,,,,,,,,,,,,24247,2020_Feb_28_1130,Mmi_3levels,3.1.5,59.97639431935839,
,,,3,1,4.3,,,,,,,,,0,2,2,2,0,6,6,4,,,,,,,,,,,,,,,,,,,,,,,,,,,,,,,,,,,,,,,,,,,,,,,,,,,,,,,,,,,True,True,True,0.78,-0.21999999999999997,-1.9200000000000002,5.0,4.3,-0.7000000000000002,1.7999999999999998,gamble,win,4.3,27.142916666666654,1104.5721808586895,None,1104.5721808586895,None,1104.5721808586895,None,1104.5721808586895,None,1104.5721808586895,None,1104.5721808586895,None,1104.5721808586895,None,1,2.167770938605827,1104.5721808586895,None,1106.7730473169795,None,1106.7730473169795,None,1106.7730473169795,None,1106.7730473169795,None,1106.7730473169795,None,1106.7730473169795,None,1106.7730473169795,None,1110.774609169006,None,1110.774609169006,None,1110.774609169006,None,1110.774609169006,None,1110.774609169006,None,1110.774609169006,None,1110.774609169006,None,1111.7583090783883,None,,,,,,,,,,,,,,,,,,,,,,,,,,,,,,24247,2020_Feb_28_1130,Mmi_3levels,3.1.5,59.97639431935839,
,,,3,1,10.1,,,,,,,,,0,2,2,2,0,7,7,10,,,,,,,,,,,,,,,,,,,,,,,,,,,,,,,,,,,,,,,,,,,,,,,,,,,,,,,,,,,True,True,False,0.78,-0.21999999999999997,-2.14,5.22,10.1,4.88,2.44,gamble,win,10.1,37.24291666666665,1113.7757748782751,None,1113.7757748782751,None,1113.7757748782751,None,1113.7757748782751,None,1113.7757748782751,None,1113.7757748782751,None,1113.7757748782751,None,1,1.317495622592105,1113.7757748782751,None,1115.1263129028594,None,1115.1263129028594,None,1115.1263129028594,None,1115.1263129028594,None,1115.1263129028594,None,1115.1263129028594,None,1115.1263129028594,None,1119.127876034836,None,1119.127876034836,None,1119.127876034836,None,1119.127876034836,None,1119.127876034836,None,1119.127876034836,None,1119.127876034836,None,1128.6148631611504,None,1120.1115932234607,None,1121.1119791266683,None,0.74,7.502844356211426,1124.1131461158802,None,None,1124.1131461158802,None,,,,,,,,,,,,,,,,,,,24247,2020_Feb_28_1130,Mmi_3levels,3.1.5,59.97639431935839,
,,,3,1,5.3,,,,,,,,,0,2,2,2,0,8,8,9,,,,,,,,,,,,,,,,,,,,,,,,,,,,,,,,,,,,,,,,,,,,,,,,,,,,,,,,,,,True,True,True,0.74,-0.26,-2.4000000000000004,6.040000000000001,5.3,-0.7400000000000011,-0.37000000000000055,gamble,win,5.3,42.54291666666665,1130.6323731191223,None,1130.6323731191223,None,1130.6323731191223,None,1130.6323731191223,None,1130.6323731191223,None,1130.6323731191223,None,1130.6323731191223,None,1,2.2677688267067424,1130.6323731191223,None,1132.9332736239303,None,1132.9332736239303,None,1132.9332736239303,None,1132.9332736239303,None,1132.9332736239303,None,1132.9332736239303,None,1132.9332736239303,None,1136.9347945177433,None,1136.9347945177433,None,1136.9347945177433,None,1136.9347945177433,None,1136.9347945177433,None,1136.9347945177433,None,1136.9347945177433,None,1137.9185565044172,None,,,,,,,,,,,,,,,,,,,,,,,,,,,,,,24247,2020_Feb_28_1130,Mmi_3levels,3.1.5,59.97639431935839,
,,,3,1,-1.1,,,,,,,,,0,2,2,2,0,9,9,6,,,,,,,,,,,,,,,,,,,,,,,,,,,,,,,,,,,,,,,,,,,,,,,,,,,,,,,,,,,True,False,True,0.74,-0.26,-2.66,-1.1316666666666668,-1.1,-2.231666666666667,-1.6658333333333335,gamble,lose,-2.231666666666667,40.31124999999998,1139.9360104648222,None,1139.9360104648222,None,1139.9360104648222,None,1139.9360104648222,None,1139.9360104648222,None,1139.9360104648222,None,1139.9360104648222,None,None,,1139.9360104648222,None,1142.9371880135732,None,1142.9371880135732,None,1142.9371880135732,None,1142.9371880135732,None,1142.9371880135732,None,1142.9371880135732,None,1142.9371880135732,None,1146.9221070698986,None,1146.9221070698986,None,1146.9221070698986,None,1146.9221070698986,None,1146.9221070698986,None,1146.9221070698986,None,1146.9221070698986,None,1147.922470574078,None,,,,,,,,,,,,,,,,,,,,,,,,,,,,,,24247,2020_Feb_28_1130,Mmi_3levels,3.1.5,59.97639431935839,
,,,3,1,3.7,,,,,,,,,0,2,2,2,0,10,10,22,,,,,,,,,,,,,,,,,,,,,,,,,,,,,,,,,,,,,,,,,,,,,,,,,,,,,,,,,,,True,False,True,0.74,-0.26,-2.92,-1.1533333333333333,3.7,2.546666666666667,1.2733333333333334,gamble,lose,2.546666666666667,42.85791666666665,1149.9399264543972,None,1149.9399264543972,None,1149.9399264543972,None,1149.9399264543972,None,1149.9399264543972,None,1149.9399264543972,None,1149.9399264543972,None,1,0.9839750974060735,1149.9399264543972,None,1150.9569929116697,None,1150.9569929116697,None,1150.9569929116697,None,1150.9569929116697,None,1150.9569929116697,None,1150.9569929116697,None,1150.9569929116697,None,1154.9418802893706,None,1154.9418802893706,None,1154.9418802893706,None,1154.9418802893706,None,1154.9418802893706,None,1154.9418802893706,None,1154.9418802893706,None,1164.445619326645,None,1155.9422748321958,None,1156.942660095432,None,0.68,7.50297843037697,1159.9438280446047,None,None,1159.9438280446047,None,,,,,,,,,,,,,,,,,,,24247,2020_Feb_28_1130,Mmi_3levels,3.1.5,59.97639431935839,
,,,3,1,3.5,,,,,,,,,0,2,2,2,0,11,11,1,,,,,,,,,,,,,,,,,,,,,,,,,,,,,,,,,,,,,,,,,,,,,,,,,,,,,,,,,,,True,False,False,0.68,-0.31999999999999995,-3.2399999999999998,-1.39,3.5,2.1100000000000003,1.0550000000000002,gamble,lose,2.1100000000000003,44.967916666666646,1166.4630566477717,None,1166.4630566477717,None,1166.4630566477717,None,1166.4630566477717,None,1166.4630566477717,None,1166.4630566477717,None,1166.4630566477717,None,1,0.9339401549295872,1166.4630566477717,None,1167.4300939223103,None,1167.4300939223103,None,1167.4300939223103,None,1167.4300939223103,None,1167.4300939223103,None,1167.4300939223103,None,1167.4300939223103,None,1171.4149873797505,None,1171.4149873797505,None,1171.4149873797505,None,1171.4149873797505,None,1171.4149873797505,None,1171.4149873797505,None,1171.4149873797505,None,1172.4153819225758,None,,,,,,,,,,,,,,,,,,,,,,,,,,,,,,24247,2020_Feb_28_1130,Mmi_3levels,3.1.5,59.97639431935839,
,,,3,1,13.1,,,,,,,,,0,2,2,2,0,12,12,2,,,,,,,,,,,,,,,,,,,,,,,,,,,,,,,,,,,,,,,,,,,,,,,,,,,,,,,,,,,True,True,True,0.68,-0.31999999999999995,-3.5599999999999996,8.04,13.1,5.0600000000000005,2.5300000000000002,gamble,win,13.1,58.06791666666665,1174.432837802895,None,1174.432837802895,None,1174.432837802895,None,1174.432837802895,None,1174.432837802895,None,1174.432837802895,None,1174.432837802895,None,1,0.8839404109166935,1174.432837802895,None,1175.3498689336993,None,1175.3498689336993,None,1175.3498689336993,None,1175.3498689336993,None,1175.3498689336993,None,1175.3498689336993,None,1175.3498689336993,None,1179.3514269458974,None,1179.3514269458974,None,1179.3514269458974,None,1179.3514269458974,None,1179.3514269458974,None,1179.3514269458974,None,1179.3514269458974,None,1188.8384713497217,None,1180.3351479743578,None,1181.3354813998449,None,0.7,7.502788358651742,1184.336697666913,None,None,1184.336697666913,None,,,,,,,,,,,,,,,,,,,24247,2020_Feb_28_1130,Mmi_3levels,3.1.5,59.97639431935839,
,,,3,1,11.3,,,,,,,,,0,2,2,2,0,13,13,7,,,,,,,,,,,,,,,,,,,,,,,,,,,,,,,,,,,,,,,,,,,,,,,,,,,,,,,,,,,True,False,False,0.7,-0.30000000000000004,-3.8599999999999994,-1.3716666666666668,11.3,9.928333333333335,4.964166666666667,gamble,lose,9.928333333333335,67.99624999999997,1190.8559310698765,None,1190.8559310698765,None,1190.8559310698765,None,1190.8559310698765,None,1190.8559310698765,None,1190.8559310698765,None,1190.8559310698765,None,1,0.9006052856639144,1190.8559310698765,None,1191.7896318752173,None,1191.7896318752173,None,1191.7896318752173,None,1191.7896318752173,None,1191.7896318752173,None,1191.7896318752173,None,1191.7896318752173,None,1195.7745147731184,None,1195.7745147731184,None,1195.7745147731184,None,1195.7745147731184,None,1195.7745147731184,None,1195.7745147731184,None,1195.7745147731184,None,1196.7749118758366,None,,,,,,,,,,,,,,,,,,,,,,,,,,,,,,24247,2020_Feb_28_1130,Mmi_3levels,3.1.5,59.97639431935839,
,,,3,1,2.7,,,,,,,,,0,2,2,2,0,14,14,3,,,,,,,,,,,,,,,,,,,,,,,,,,,,,,,,,,,,,,,,,,,,,,,,,,,,,,,,,,,True,True,True,0.7,-0.30000000000000004,-4.159999999999999,8.36,2.7,-5.659999999999999,-1.4799999999999995,certain,certain,-1.4799999999999995,66.51624999999997,1198.7923706360307,None,1198.7923706360307,None,1198.7923706360307,None,1198.7923706360307,None,1198.7923706360307,None,1198.7923706360307,None,1198.7923706360307,None,3,1.284090676374035,1198.7923706360307,None,1200.1095494724068,None,1200.1095494724068,None,1200.1095494724068,None,1200.1095494724068,None,1200.1095494724068,None,1200.1095494724068,None,1200.1095494724068,None,1204.1111142043083,None,1204.1111142043083,None,1204.1111142043083,None,1204.1111142043083,None,1204.1111142043083,None,1204.1111142043083,None,1204.1111142043083,None,1205.0948288330474,None,,,,,,,,,,,,,,,,,,,,,,,,,,,,,,24247,2020_Feb_28_1130,Mmi_3levels,3.1.5,59.97639431935839,
,,,3,1,4.9,,,,,,,,,0,2,2,2,0,15,15,26,,,,,,,,,,,,,,,,,,,,,,,,,,,,,,,,,,,,,,,,,,,,,,,,,,,,,,,,,,,True,True,True,0.7,-0.30000000000000004,-4.459999999999999,8.66,4.9,-3.76,0.5700000000000003,certain,certain,0.5700000000000003,67.08624999999998,1207.1122866332807,None,1207.1122866332807,None,1207.1122866332807,None,1207.1122866332807,None,1207.1122866332807,None,1207.1122866332807,None,1207.1122866332807,None,3,2.0343892233795486,1207.1122866332807,None,1209.1797585769018,None,1209.1797585769018,None,1209.1797585769018,None,1209.1797585769018,None,1209.1797585769018,None,1209.1797585769018,None,1209.1797585769018,None,1213.181341868003,None,1213.181341868003,None,1213.181341868003,None,1213.181341868003,None,1213.181341868003,None,1213.181341868003,None,1213.181341868003,None,1222.668372512424,None,1214.1650478571173,None,1215.165437280164,None,0.74,7.5028187573261675,1218.1665997895761,None,None,1218.1665997895761,None,,,,,,,,,,,,,,,,,,,24247,2020_Feb_28_1130,Mmi_3levels,3.1.5,59.97639431935839,
,,,3,1,0.1,,,,,,,,,0,2,2,2,0,16,16,23,,,,,,,,,,,,,,,,,,,,,,,,,,,,,,,,,,,,,,,,,,,,,,,,,,,,,,,,,,,True,True,False,0.74,-0.26,-4.719999999999999,8.36,0.1,-8.26,-4.08,certain,certain,-4.08,63.00624999999998,1224.685830952636,None,1224.685830952636,None,1224.685830952636,None,1224.685830952636,None,1224.685830952636,None,1224.685830952636,None,1224.685830952636,None,3,1.0506675549477222,1224.685830952636,None,1225.7695885875,None,1225.7695885875,None,1225.7695885875,None,1225.7695885875,None,1225.7695885875,None,1225.7695885875,None,1225.7695885875,None,1229.7711545993516,None,1229.7711545993516,None,1229.7711545993516,None,1229.7711545993516,None,1229.7711545993516,None,1229.7711545993516,None,1229.7711545993516,None,1230.7548689081013,None,,,,,,,,,,,,,,,,,,,,,,,,,,,,,,24247,2020_Feb_28_1130,Mmi_3levels,3.1.5,59.97639431935839,
,,,3,1,10.7,,,,,,,,,0,2,2,2,0,17,17,21,,,,,,,,,,,,,,,,,,,,,,,,,,,,,,,,,,,,,,,,,,,,,,,,,,,,,,,,,,,True,True,True,0.74,-0.26,-4.979999999999999,8.62,10.7,2.08,1.04,gamble,win,10.7,73.70624999999998,1232.772276150543,None,1232.772276150543,None,1232.772276150543,None,1232.772276150543,None,1232.772276150543,None,1232.772276150543,None,1232.772276150543,None,1,0.9339356751224841,1232.772276150543,None,1233.73931150516,None,1233.73931150516,None,1233.73931150516,None,1233.73931150516,None,1233.73931150516,None,1233.73931150516,None,1233.73931150516,None,1237.7241953630146,None,1237.7241953630146,None,1237.7241953630146,None,1237.7241953630146,None,1237.7241953630146,None,1237.7241953630146,None,1237.7241953630146,None,1247.2279785583742,None,1238.724655183003,None,1239.7249898884402,None,0.75,7.502780998969683,1242.7261511179022,None,None,1242.7261511179022,None,,,,,,,,,,,,,,,,,,,24247,2020_Feb_28_1130,Mmi_3levels,3.1.5,59.97639431935839,
,,,3,1,1.1,,,,,,,,,0,2,2,2,0,18,18,8,,,,,,,,,,,,,,,,,,,,,,,,,,,,,,,,,,,,,,,,,,,,,,,,,,,,,,,,,,,True,True,False,0.75,-0.25,-5.229999999999999,8.729999999999999,1.1,-7.629999999999999,-3.2649999999999997,certain,certain,-3.2649999999999997,70.44124999999998,1249.245438598511,None,1249.245438598511,None,1249.245438598511,None,1249.245438598511,None,1249.245438598511,None,1249.245438598511,None,1249.245438598511,None,3,1.1340300070078229,1249.245438598511,None,1250.4125596454032,None,1250.4125596454032,None,1250.4125596454032,None,1250.4125596454032,None,1250.4125596454032,None,1250.4125596454032,None,1250.4125596454032,None,1254.414127897151,None,1254.414127897151,None,1254.414127897151,None,1254.414127897151,None,1254.414127897151,None,1254.414127897151,None,1254.414127897151,None,1255.397838046083,None,,,,,,,,,,,,,,,,,,,,,,,,,,,,,,24247,2020_Feb_28_1130,Mmi_3levels,3.1.5,59.97639431935839,
,,,3,1,-1.3,,,,,,,,,0,2,2,2,0,19,19,24,,,,,,,,,,,,,,,,,,,,,,,,,,,,,,,,,,,,,,,,,,,,,,,,,,,,,,,,,,,True,False,False,0.75,-0.25,-5.479999999999999,-1.3316666666666666,-1.3,-2.631666666666667,-1.9658333333333333,certain,certain,-1.9658333333333333,68.47541666666665,1257.4152980862273,None,1257.4152980862273,None,1257.4152980862273,None,1257.4152980862273,None,1257.4152980862273,None,1257.4152980862273,None,1257.4152980862273,None,3,1.600867610242858,1257.4152980862273,None,1259.0492631360685,None,1259.0492631360685,None,1259.0492631360685,None,1259.0492631360685,None,1259.0492631360685,None,1259.0492631360685,None,1259.0492631360685,None,1263.034166193087,None,1263.034166193087,None,1263.034166193087,None,1263.034166193087,None,1263.034166193087,None,1263.034166193087,None,1263.034166193087,None,1272.5378812314084,None,1264.0345562561124,None,1265.0349440792343,None,0.75,7.50274004075618,1268.0361088285426,None,None,1268.0361088285426,None,,,,,,,,,,,,,,,,,,,24247,2020_Feb_28_1130,Mmi_3levels,3.1.5,59.97639431935839,
,,,3,1,12.5,,,,,,,,,0,2,2,2,0,20,20,25,,,,,,,,,,,,,,,,,,,,,,,,,,,,,,,,,,,,,,,,,,,,,,,,,,,,,,,,,,,True,False,False,0.75,-0.25,-5.729999999999999,-1.3524999999999998,12.5,11.1475,5.57375,gamble,lose,11.1475,79.62291666666664,1274.5553393516311,None,1274.5553393516311,None,1274.5553393516311,None,1274.5553393516311,None,1274.5553393516311,None,1274.5553393516311,None,1274.5553393516311,None,1,0.9339359951045481,1274.5553393516311,None,1275.5223811059695,None,1275.5223811059695,None,1275.5223811059695,None,1275.5223811059695,None,1275.5223811059695,None,1275.5223811059695,None,1275.5223811059695,None,1279.5072710435634,None,1279.5072710435634,None,1279.5072710435634,None,1279.5072710435634,None,1279.5072710435634,None,1279.5072710435634,None,1279.5072710435634,None,1280.5076639864637,None,,,,,,,,,,,,,,,,,,,,,,,,,,,,,,24247,2020_Feb_28_1130,Mmi_3levels,3.1.5,59.97639431935839,
,,,3,1,0.9,,,,,,,,,0,2,2,2,0,21,21,0,,,,,,,,,,,,,,,,,,,,,,,,,,,,,,,,,,,,,,,,,,,,,,,,,,,,,,,,,,,True,True,False,0.75,-0.25,-5.979999999999999,9.479999999999999,0.9,-8.579999999999998,-3.839999999999999,certain,certain,-3.839999999999999,75.78291666666664,1282.52512434659,None,1282.52512434659,None,1282.52512434659,None,1282.52512434659,None,1282.52512434659,None,1282.52512434659,None,1282.52512434659,None,3,1.7343210023464053,1282.52512434659,None,1284.2925299890921,None,1284.2925299890921,None,1284.2925299890921,None,1284.2925299890921,None,1284.2925299890921,None,1284.2925299890921,None,1284.2925299890921,None,1288.2940412833195,None,1288.2940412833195,None,1288.2940412833195,None,1288.2940412833195,None,1288.2940412833195,None,1288.2940412833195,None,1288.2940412833195,None,1289.277760711855,None,,,,,,,,,,,,,,,,,,,,,,,,,,,,,,24247,2020_Feb_28_1130,Mmi_3levels,3.1.5,59.97639431935839,
,,,3,1,3.1,,,,,,,,,0,2,2,2,0,22,22,19,,,,,,,,,,,,,,,,,,,,,,,,,,,,,,,,,,,,,,,,,,,,,,,,,,,,,,,,,,,True,True,True,0.75,-0.25,-6.229999999999999,9.729999999999999,3.1,-6.629999999999999,-1.7649999999999995,certain,certain,-1.7649999999999995,74.01791666666664,1291.2952137122993,None,1291.2952137122993,None,1291.2952137122993,None,1291.2952137122993,None,1291.2952137122993,None,1291.2952137122993,None,1291.2952137122993,None,3,1.2840925962882466,1291.2952137122993,None,1292.6123970284825,None,1292.6123970284825,None,1292.6123970284825,None,1292.6123970284825,None,1292.6123970284825,None,1292.6123970284825,None,1292.6123970284825,None,1296.6139640002875,None,1296.6139640002875,None,1296.6139640002875,None,1296.6139640002875,None,1296.6139640002875,None,1296.6139640002875,None,1296.6139640002875,None,1306.1010090440832,None,1297.597679268998,None,1298.598018454235,None,0.71,7.502831236786733,1301.5992312014569,None,None,1301.5992312014569,None,,,,,,,,,,,,,,,,,,,24247,2020_Feb_28_1130,Mmi_3levels,3.1.5,59.97639431935839,
,,,3,1,9.9,,,,,,,,,0,2,2,2,0,23,23,20,,,,,,,,,,,,,,,,,,,,,,,,,,,,,,,,,,,,,,,,,,,,,,,,,,,,,,,,,,,True,True,False,0.71,-0.29000000000000004,-6.519999999999999,10.579999999999998,9.9,-0.6799999999999979,-0.33999999999999897,certain,certain,-0.33999999999999897,73.67791666666663,1308.118461404556,None,1308.118461404556,None,1308.118461404556,None,1308.118461404556,None,1308.118461404556,None,1308.118461404556,None,1308.118461404556,None,3,1.6008986488886876,1308.118461404556,None,1309.7524338140793,None,1309.7524338140793,None,1309.7524338140793,None,1309.7524338140793,None,1309.7524338140793,None,1309.7524338140793,None,1309.7524338140793,None,1313.7540011058663,None,1313.7540011058663,None,1313.7540011058663,None,1313.7540011058663,None,1313.7540011058663,None,1313.7540011058663,None,1313.7540011058663,None,1314.737722454316,None,,,,,,,,,,,,,,,,,,,,,,,,,,,,,,24247,2020_Feb_28_1130,Mmi_3levels,3.1.5,59.97639431935839,
,,,3,1,9.3,,,,,,,,,0,2,2,2,0,24,24,12,,,,,,,,,,,,,,,,,,,,,,,,,,,,,,,,,,,,,,,,,,,,,,,,,,,,,,,,,,,True,False,True,0.71,-0.29000000000000004,-6.809999999999999,-1.5825,9.3,7.717500000000001,3.8587500000000006,gamble,lose,7.717500000000001,81.39541666666663,1316.755174814789,None,1316.755174814789,None,1316.755174814789,None,1316.755174814789,None,1316.755174814789,None,1316.755174814789,None,1316.755174814789,None,1,0.9839718975417782,1316.755174814789,None,1317.7721833545802,None,1317.7721833545802,None,1317.7721833545802,None,1317.7721833545802,None,1317.7721833545802,None,1317.7721833545802,None,1317.7721833545802,None,1321.757128329773,None,1321.757128329773,None,1321.757128329773,None,1321.757128329773,None,1321.757128329773,None,1321.757128329773,None,1321.757128329773,None,1331.2608494478336,None,1322.7575212726733,None,1323.7579225352092,None,0.75,7.502889794239309,1326.7590719251893,None,None,1326.7590719251893,None,,,,,,,,,,,,,,,,,,,24247,2020_Feb_28_1130,Mmi_3levels,3.1.5,59.97639431935839,
,,,3,1,4.5,,,,,,,,,0,2,2,2,0,25,25,17,,,,,,,,,,,,,,,,,,,,,,,,,,,,,,,,,,,,,,,,,,,,,,,,,,,,,,,,,,,True,True,False,0.75,-0.25,-7.059999999999999,10.559999999999999,4.5,-6.059999999999999,-0.7799999999999994,certain,certain,-0.7799999999999994,80.61541666666663,1333.2783046881814,None,1333.2783046881814,None,1333.2783046881814,None,1333.2783046881814,None,1333.2783046881814,None,1333.2783046881814,None,1333.2783046881814,None,3,1.3007491513999412,1333.2783046881814,None,1334.6121602387866,None,1334.6121602387866,None,1334.6121602387866,None,1334.6121602387866,None,1334.6121602387866,None,1334.6121602387866,None,1334.6121602387866,None,1338.6137246506987,None,1338.6137246506987,None,1338.6137246506987,None,1338.6137246506987,None,1338.6137246506987,None,1338.6137246506987,None,1338.6137246506987,None,1339.5974357595915,None,,,,,,,,,,,,,,,,,,,,,,,,,,,,,,24247,2020_Feb_28_1130,Mmi_3levels,3.1.5,59.97639431935839,
,,,3,1,4.7,,,,,,,,,0,2,2,2,0,26,26,18,,,,,,,,,,,,,,,,,,,,,,,,,,,,,,,,,,,,,,,,,,,,,,,,,,,,,,,,,,,True,True,True,0.75,-0.25,-7.309999999999999,10.809999999999999,4.7,-6.1099999999999985,-0.7049999999999992,certain,certain,-0.7049999999999992,79.91041666666663,1341.6148961197177,None,1341.6148961197177,None,1341.6148961197177,None,1341.6148961197177,None,1341.6148961197177,None,1341.6148961197177,None,1341.6148961197177,None,3,1.600867930224922,1341.6148961197177,None,1343.2488486901057,None,1343.2488486901057,None,1343.2488486901057,None,1343.2488486901057,None,1343.2488486901057,None,1343.2488486901057,None,1343.2488486901057,None,1347.250432621171,None,1347.250432621171,None,1347.250432621171,None,1347.250432621171,None,1347.250432621171,None,1347.250432621171,None,1347.250432621171,None,1356.737475105081,None,1348.2341846882773,None,1349.2345536322246,None,0.76,7.502836676547304,1352.2357007823011,None,None,1352.2357007823011,None,,,,,,,,,,,,,,,,,,,24247,2020_Feb_28_1130,Mmi_3levels,3.1.5,59.97639431935839,
,,,,,,,,,,,,,,,,,,,,,,,,,,,,,,0,0,0,0,,,,,,,,,,,,,,,,,,,,,,,,,,,,,,,,,,,,,,,,,,,,,,,,,,,,,,,,,,,,,,,,,,,,,,,,,,,,,,,,,,,,,,,,,,,,,,,,,,,,,,,,,,,,,,,,,,,,,,,,1358.7382011534864,None,4,5.852493139500439,1358.7382011534864,None,79.91041666666663,3,1364.6238710891266,None,1364.6238710891266,None,1364.6238710891266,None,4,6.336042655420897,1364.6238710891266,None,24247,2020_Feb_28_1130,Mmi_3levels,3.1.5,59.97639431935839,
