currSlide,currImage,currText,blockNum,targetHappiness,highAmount,instructionLoop1.thisRepN,instructionLoop1.thisTrialN,instructionLoop1.thisN,instructionLoop1.thisIndex,instructionLoop2.thisRepN,instructionLoop2.thisTrialN,instructionLoop2.thisN,instructionLoop2.thisIndex,blockLoop.thisRepN,blockLoop.thisTrialN,blockLoop.thisN,blockLoop.thisIndex,trialLoop.thisRepN,trialLoop.thisTrialN,trialLoop.thisN,trialLoop.thisIndex,doRatingLoop.thisRepN,doRatingLoop.thisTrialN,doRatingLoop.thisN,doRatingLoop.thisIndex,trialHappyLoop.thisRepN,trialHappyLoop.thisTrialN,trialHappyLoop.thisN,trialHappyLoop.thisIndex,logWinningsLoop.thisRepN,logWinningsLoop.thisTrialN,logWinningsLoop.thisN,logWinningsLoop.thisIndex,instrImage.started,instrImage.stopped,instrText.started,instrText.stopped,instrContinueText.started,instrContinueText.stopped,instrKeyResp.keys,instrKeyResp.rt,instrKeyResp.started,instrKeyResp.stopped,lifeHappyText.started,lifeHappyText.stopped,lifeHappySlider.response,lifeHappySlider.rt,lifeHappySlider.started,lifeHappySlider.stopped,lifeHappyResp.keys,lifeHappyResp.started,lifeHappyResp.stopped,instrImage_2.started,instrImage_2.stopped,instrText_2.started,instrText_2.stopped,instrContinueText_2.started,instrContinueText_2.stopped,instrKeyResp_2.keys,instrKeyResp_2.rt,instrKeyResp_2.started,instrKeyResp_2.stopped,localizing.started,localizing.stopped,start_exp.keys,start_exp.rt,start_exp.started,start_exp.stopped,blockHappyText.started,blockHappyText.stopped,blockHappySlider.response,blockHappySlider.rt,blockHappySlider.started,blockHappySlider.stopped,blockHappyResp.keys,blockHappyResp.rt,blockHappyResp.started,blockHappyResp.stopped,blankText.started,blankText.stopped,isHappyBlock,isCongruent,isWinOnTop,lastHappyRating,diff,sumDiff,RPE,winAmount,loseAmount,certainAmount,choice,outcome,outcomeAmount,currentWinnings,fixCross.started,fixCross.stopped,certainBox.started,certainBox.stopped,outcome1Box.started,outcome1Box.stopped,outcome2Box.started,outcome2Box.stopped,certainText.started,certainText.stopped,outcome1Text.started,outcome1Text.stopped,outcome2Text.started,outcome2Text.stopped,choiceKey.keys,choiceKey.rt,choiceKey.started,choiceKey.stopped,fixCross_2.started,fixCross_2.stopped,certainBox_2.started,certainBox_2.stopped,outcome1Box_2.started,outcome1Box_2.stopped,outcome2Box_2.started,outcome2Box_2.stopped,certainText_2.started,certainText_2.stopped,outcome1Text_2.started,outcome1Text_2.stopped,outcome2Text_2.started,outcome2Text_2.stopped,fixCross_3.started,fixCross_3.stopped,certainBox_3.started,certainBox_3.stopped,outcome1Box_3.started,outcome1Box_3.stopped,outcome2Box_3.started,outcome2Box_3.stopped,certainText_3.started,certainText_3.stopped,outcome1Text_3.started,outcome1Text_3.stopped,outcome2Text_3.started,outcome2Text_3.stopped,fixCross_ITI.started,fixCross_ITI.stopped,fixCross_ISI.started,fixCross_ISI.stopped,happyText.started,happyText.stopped,happySlider.response,happySlider.rt,happySlider.started,happySlider.stopped,happyResp.keys,happyResp.started,happyResp.stopped,endOfBlockText.started,endOfBlockText.stopped,restKeyResp.keys,restKeyResp.rt,restKeyResp.started,restKeyResp.stopped,finalWinnings,cashBonus,goodbyeText.started,goodbyeText.stopped,finalWinningsText.started,finalWinningsText.stopped,spaceToContinue.started,spaceToContinue.stopped,goodbyeKeyResp_2.keys,goodbyeKeyResp_2.rt,goodbyeKeyResp_2.started,goodbyeKeyResp_2.stopped,participant,date,expName,psychopyVersion,frameRate,
1,black.png,"Welcome! You are about to play our gambling task.
This task has 3 blocks and takes about 15 minutes.",,,,0,0,0,0,,,,,,,,,,,,,,,,,,,,,,,,,11.347938762025478,None,11.347938762025478,None,11.347938762025478,None,4,4.451952124433774,11.347938762025478,None,,,,,,,,,,,,,,,,,,,,,,,,,,,,,,,,,,,,,,,,,,,,,,,,,,,,,,,,,,,,,,,,,,,,,,,,,,,,,,,,,,,,,,,,,,,,,,,,,,,,,,,,,,,,,,,,,,,,,,,,,,,,,,,,,23951,2019_Oct_11_1037,Mmi_3levels,3.1.5,59.971464867429205,
2,black.png,"In this game, you may win or lose points. Your goal is to get as many points as possible. These points will be converted to a cash bonus at the end.
Sometimes we will ask you to rate your mood.",,,,0,1,1,1,,,,,,,,,,,,,,,,,,,,,,,,,15.833012125682217,None,15.833012125682217,None,15.833012125682217,None,4,5.1699368197396325,15.833012125682217,None,,,,,,,,,,,,,,,,,,,,,,,,,,,,,,,,,,,,,,,,,,,,,,,,,,,,,,,,,,,,,,,,,,,,,,,,,,,,,,,,,,,,,,,,,,,,,,,,,,,,,,,,,,,,,,,,,,,,,,,,,,,,,,,,,23951,2019_Oct_11_1037,Mmi_3levels,3.1.5,59.971464867429205,
3,black.png,"On the next screen, please rate how you feel about your life these days. Use the LEFT (green) and RIGHT (blue) buttons to move the slider (you can press and hold them to slide gradually) and the TOP (red) button to lock in your response.
Make your rating as accurately and quickly as you can!",,,,0,2,2,2,,,,,,,,,,,,,,,,,,,,,,,,,21.052676881528896,None,21.052676881528896,None,21.052676881528896,None,4,8.019864104045155,21.052676881528896,None,,,,,,,,,,,,,,,,,,,,,,,,,,,,,,,,,,,,,,,,,,,,,,,,,,,,,,,,,,,,,,,,,,,,,,,,,,,,,,,,,,,,,,,,,,,,,,,,,,,,,,,,,,,,,,,,,,,,,,,,,,,,,,,,,23951,2019_Oct_11_1037,Mmi_3levels,3.1.5,59.971464867429205,
,,,,,,,,,,,,,,,,,,,,,,,,,,,,,,,,,,,,,,,,,,,,29.089074726775834,None,0.73,10.502973743954499,33.09062599494064,None,None,33.09062599494064,None,,,,,,,,,,,,,,,,,,,,,,,,,,,,,,,,,,,,,,,,,,,,,,,,,,,,,,,,,,,,,,,,,,,,,,,,,,,,,,,,,,,,,,,,,,,,,,,,,,,,,,,,,,,,,,,,,,,,,,,,23951,2019_Oct_11_1037,Mmi_3levels,3.1.5,59.971464867429205,
4,black.png,"In this game you can win money by earning points according to your choices. You will decide whether to gamble a number of points or stick with a guaranteed number of points. 
Make your choice by pressing the left or right arrow key once. An example of one trial is shown on the next screen.",,,,,,,,0,0,0,0,,,,,,,,,,,,,,,,,,,,,,,,,,,,,,,,,,,,,,,,39.64312672689812,None,39.64312672689812,None,39.64312672689812,None,4,3.4014613534873206,39.64312672689812,None,,,,,,,,,,,,,,,,,,,,,,,,,,,,,,,,,,,,,,,,,,,,,,,,,,,,,,,,,,,,,,,,,,,,,,,,,,,,,,,,,,,,,,,,,,,,,,,,,,,,,,,,,,,,,,23951,2019_Oct_11_1037,Mmi_3levels,3.1.5,59.971464867429205,
5,example_start.png,"The GAMBLING OPTION will be shown on the RIGHT SIDE. 
Select this option using the RIGHT (blue) button on your keypad.",,,,,,,,0,1,1,1,,,,,,,,,,,,,,,,,,,,,,,,,,,,,,,,,,,,,,,,43.11106126517279,None,43.11106126517279,None,43.11106126517279,None,4,6.602719519004495,43.11106126517279,None,,,,,,,,,,,,,,,,,,,,,,,,,,,,,,,,,,,,,,,,,,,,,,,,,,,,,,,,,,,,,,,,,,,,,,,,,,,,,,,,,,,,,,,,,,,,,,,,,,,,,,,,,,,,,,23951,2019_Oct_11_1037,Mmi_3levels,3.1.5,59.971464867429205,
6,example_gamble.png,"Once you select the gambling choice, the choice you made will remain on the screen.",,,,,,,,0,2,2,2,,,,,,,,,,,,,,,,,,,,,,,,,,,,,,,,,,,,,,,,49.7468927439495,None,49.7468927439495,None,49.7468927439495,None,4,2.484519156465467,49.7468927439495,None,,,,,,,,,,,,,,,,,,,,,,,,,,,,,,,,,,,,,,,,,,,,,,,,,,,,,,,,,,,,,,,,,,,,,,,,,,,,,,,,,,,,,,,,,,,,,,,,,,,,,,,,,,,,,,23951,2019_Oct_11_1037,Mmi_3levels,3.1.5,59.971464867429205,
7,example_win.png,"The outcome you received will then be shown on the screen. In this example , you WON 10 points.",,,,,,,,0,3,3,3,,,,,,,,,,,,,,,,,,,,,,,,,,,,,,,,,,,,,,,,52.264495701854685,None,52.264495701854685,None,52.264495701854685,None,4,1.6342898100438106,52.264495701854685,None,,,,,,,,,,,,,,,,,,,,,,,,,,,,,,,,,,,,,,,,,,,,,,,,,,,,,,,,,,,,,,,,,,,,,,,,,,,,,,,,,,,,,,,,,,,,,,,,,,,,,,,,,,,,,,23951,2019_Oct_11_1037,Mmi_3levels,3.1.5,59.971464867429205,
8,example_start.png,"The GUARANTEED OPTION will be shown on the LEFT SIDE. You are 100% guaranteed to gain or lose this amount. In this example, you have a 100% chance of winning 1 point. Select this option using the LEFT (green) button on your keyboard.",,,,,,,,0,4,4,4,,,,,,,,,,,,,,,,,,,,,,,,,,,,,,,,,,,,,,,,53.94842961296672,None,53.94842961296672,None,53.94842961296672,None,4,6.602777755556417,53.94842961296672,None,,,,,,,,,,,,,,,,,,,,,,,,,,,,,,,,,,,,,,,,,,,,,,,,,,,,,,,,,,,,,,,,,,,,,,,,,,,,,,,,,,,,,,,,,,,,,,,,,,,,,,,,,,,,,,23951,2019_Oct_11_1037,Mmi_3levels,3.1.5,59.971464867429205,
9,example_certain.png,"Once you select the guaranteed choice, your selection will remain on the screen.",,,,,,,,0,5,5,5,,,,,,,,,,,,,,,,,,,,,,,,,,,,,,,,,,,,,,,,60.58419837545625,None,60.58419837545625,None,60.58419837545625,None,4,2.934702425616706,60.58419837545625,None,,,,,,,,,,,,,,,,,,,,,,,,,,,,,,,,,,,,,,,,,,,,,,,,,,,,,,,,,,,,,,,,,,,,,,,,,,,,,,,,,,,,,,,,,,,,,,,,,,,,,,,,,,,,,,23951,2019_Oct_11_1037,Mmi_3levels,3.1.5,59.971464867429205,
10,black.png,"Please make your choices as fast as possible.
You will be given a break at the end of each block.
Let's play!",,,,,,,,0,6,6,6,,,,,,,,,,,,,,,,,,,,,,,,,,,,,,,,,,,,,,,,63.55204155913998,None,63.55204155913998,None,63.55204155913998,None,4,3.45159758542286,63.55204155913998,None,,,,,,,,,,,,,,,,,,,,,,,,,,,,,,,,,,,,,,,,,,,,,,,,,,,,,,,,,,,,,,,,,,,,,,,,,,,,,,,,,,,,,,,,,,,,,,,,,,,,,,,,,,,,,,23951,2019_Oct_11_1037,Mmi_3levels,3.1.5,59.971464867429205,
,,,,,,,,,,,,,,,,,,,,,,,,,,,,,,,,,,,,,,,,,,,,,,,,,,,,,,,,,,,,,,,67.02005129296322,None,space,28.97779299465401,67.02005129296322,None,,,,,,,,,,,,,,,,,,,,,,,,,,,,,,,,,,,,,,,,,,,,,,,,,,,,,,,,,,,,,,,,,,,,,,,,,,,,,,,,,,,,,,,,,,,,,,,,,,,,,,,,23951,2019_Oct_11_1037,Mmi_3levels,3.1.5,59.971464867429205,
,,,1,1,1.7,,,,,,,,,0,0,0,0,0,0,0,17,,,,,,,,,,,,,,,,,,,,,,,,,,,,,,,,,,,,,,,,,,,,,,,,96.01432491196556,None,0.63,6.426406116758699,99.03207778099568,None,4,3.4014603935447667,99.03207778099568,None,102.44998744074383,None,True,True,True,0.63,-0.37,-0.37,5.55,1.7,-3.8499999999999996,-1.0749999999999997,gamble,win,1.7,1.7,105.4844516404628,None,105.4844516404628,None,105.4844516404628,None,105.4844516404628,None,105.4844516404628,None,105.4844516404628,None,105.4844516404628,None,1,1.7009018666094562,105.4844516404628,None,107.21846226703383,None,107.21846226703383,None,107.21846226703383,None,107.21846226703383,None,107.21846226703383,None,107.21846226703383,None,107.21846226703383,None,111.2032903652107,None,111.2032903652107,None,111.2032903652107,None,111.2032903652107,None,111.2032903652107,None,111.2032903652107,None,111.2032903652107,None,112.2036113062104,None,,,,,,,,,,,,,,,,,,,,,,,,,,,,,,23951,2019_Oct_11_1037,Mmi_3levels,3.1.5,59.971464867429205,
,,,1,1,8.1,,,,,,,,,0,0,0,0,0,1,1,25,,,,,,,,,,,,,,,,,,,,,,,,,,,,,,,,,,,,,,,,,,,,,,,,,,,,,,,,,,,,True,False,False,0.63,-0.37,-0.74,-1.3566666666666667,8.1,6.743333333333333,3.3716666666666666,gamble,lose,6.743333333333333,8.443333333333333,114.22103875450557,None,114.22103875450557,None,114.22103875450557,None,114.22103875450557,None,114.22103875450557,None,114.22103875450557,None,114.22103875450557,None,1,1.5841433387140569,114.22103875450557,None,115.8383183715523,None,115.8383183715523,None,115.8383183715523,None,115.8383183715523,None,115.8383183715523,None,115.8383183715523,None,115.8383183715523,None,119.82313495041126,None,119.82313495041126,None,119.82313495041126,None,119.82313495041126,None,119.82313495041126,None,119.82313495041126,None,119.82313495041126,None,120.8235154078875,None,,,,,,,,,,,,,,,,,,,,,,,,,,,,,,23951,2019_Oct_11_1037,Mmi_3levels,3.1.5,59.971464867429205,
,,,1,1,10.7,,,,,,,,,0,0,0,0,0,2,2,11,,,,,,,,,,,,,,,,,,,,,,,,,,,,,,,,,,,,,,,,,,,,,,,,,,,,,,,,,,,,True,True,True,0.63,-0.37,-1.1099999999999999,6.289999999999999,10.7,4.41,2.205,gamble,win,10.7,19.14333333333333,122.84105356962846,None,122.84105356962846,None,122.84105356962846,None,122.84105356962846,None,122.84105356962846,None,122.84105356962846,None,122.84105356962846,None,1,1.6008869874904121,122.84105356962846,None,124.47493380391916,None,124.47493380391916,None,124.47493380391916,None,124.47493380391916,None,124.47493380391916,None,124.47493380391916,None,124.47493380391916,None,128.45983805758715,None,128.45983805758715,None,128.45983805758715,None,128.45983805758715,None,128.45983805758715,None,128.45983805758715,None,128.45983805758715,None,137.9633730483156,None,129.46019003674974,None,130.4605717741506,None,0.72,7.502578247367637,133.46163827101464,None,None,133.46163827101464,None,,,,,,,,,,,,,,,,,,,23951,2019_Oct_11_1037,Mmi_3levels,3.1.5,59.971464867429205,
,,,1,1,3.9,,,,,,,,,0,0,0,0,0,3,3,1,,,,,,,,,,,,,,,,,,,,,,,,,,,,,,,,,,,,,,,,,,,,,,,,,,,,,,,,,,,,True,False,False,0.72,-0.28,-1.39,-1.0958333333333334,3.9,2.8041666666666663,1.4020833333333331,gamble,lose,2.8041666666666663,21.947499999999998,139.98082513515237,None,139.98082513515237,None,139.98082513515237,None,139.98082513515237,None,139.98082513515237,None,139.98082513515237,None,139.98082513515237,None,1,1.0171362655337362,139.98082513515237,None,141.03121479208403,None,141.03121479208403,None,141.03121479208403,None,141.03121479208403,None,141.03121479208403,None,141.03121479208403,None,141.03121479208403,None,145.03271358335587,None,145.03271358335587,None,145.03271358335587,None,145.03271358335587,None,145.03271358335587,None,145.03271358335587,None,145.03271358335587,None,146.0163225537044,None,,,,,,,,,,,,,,,,,,,,,,,,,,,,,,23951,2019_Oct_11_1037,Mmi_3levels,3.1.5,59.971464867429205,
,,,1,1,8.3,,,,,,,,,0,0,0,0,0,4,4,18,,,,,,,,,,,,,,,,,,,,,,,,,,,,,,,,,,,,,,,,,,,,,,,,,,,,,,,,,,,,True,True,True,0.72,-0.28,-1.67,5.59,8.3,2.710000000000001,1.3550000000000004,gamble,win,8.3,30.2475,148.03382999726364,None,148.03382999726364,None,148.03382999726364,None,148.03382999726364,None,148.03382999726364,None,148.03382999726364,None,148.03382999726364,None,1,2.1176912726768933,148.03382999726364,None,150.18460795120882,None,150.18460795120882,None,150.18460795120882,None,150.18460795120882,None,150.18460795120882,None,150.18460795120882,None,150.18460795120882,None,154.16947604701818,None,154.16947604701818,None,154.16947604701818,None,154.16947604701818,None,154.16947604701818,None,154.16947604701818,None,154.16947604701818,None,163.6730455957004,None,155.1697851487188,None,156.1701934445482,None,0.72,7.502831992345818,159.17134569633436,None,None,159.17134569633436,None,,,,,,,,,,,,,,,,,,,23951,2019_Oct_11_1037,Mmi_3levels,3.1.5,59.971464867429205,
,,,1,1,4.1,,,,,,,,,0,0,0,0,0,5,5,3,,,,,,,,,,,,,,,,,,,,,,,,,,,,,,,,,,,,,,,,,,,,,,,,,,,,,,,,,,,,True,True,True,0.72,-0.28,-1.95,5.87,4.1,-1.7700000000000005,1.1649999999999996,certain,certain,1.1649999999999996,31.412499999999998,165.69048872306757,None,165.69048872306757,None,165.69048872306757,None,165.69048872306757,None,165.69048872306757,None,165.69048872306757,None,165.69048872306757,None,3,2.4344216422387035,165.69048872306757,None,168.14133499296804,None,168.14133499296804,None,168.14133499296804,None,168.14133499296804,None,168.14133499296804,None,168.14133499296804,None,168.14133499296804,None,172.1428577828192,None,172.1428577828192,None,172.1428577828192,None,172.1428577828192,None,172.1428577828192,None,172.1428577828192,None,172.1428577828192,None,173.14327183830665,None,,,,,,,,,,,,,,,,,,,,,,,,,,,,,,23951,2019_Oct_11_1037,Mmi_3levels,3.1.5,59.971464867429205,
,,,1,1,2.7,,,,,,,,,0,0,0,0,0,6,6,23,,,,,,,,,,,,,,,,,,,,,,,,,,,,,,,,,,,,,,,,,,,,,,,,,,,,,,,,,,,,True,True,True,0.72,-0.28,-2.23,6.15,2.7,-3.45,-0.375,gamble,win,2.7,34.1125,175.1607178455033,None,175.1607178455033,None,175.1607178455033,None,175.1607178455033,None,175.1607178455033,None,175.1607178455033,None,175.1607178455033,None,1,1.6840849421714665,175.1607178455033,None,176.87795538504088,None,176.87795538504088,None,176.87795538504088,None,176.87795538504088,None,176.87795538504088,None,176.87795538504088,None,176.87795538504088,None,180.8628244407928,None,180.8628244407928,None,180.8628244407928,None,180.8628244407928,None,180.8628244407928,None,180.8628244407928,None,180.8628244407928,None,181.8632189774362,None,,,,,,,,,,,,,,,,,,,,,,,,,,,,,,23951,2019_Oct_11_1037,Mmi_3levels,3.1.5,59.971464867429205,
,,,1,1,13.7,,,,,,,,,0,0,0,0,0,7,7,8,,,,,,,,,,,,,,,,,,,,,,,,,,,,,,,,,,,,,,,,,,,,,,,,,,,,,,,,,,,,True,True,False,0.72,-0.28,-2.51,6.43,13.7,7.27,3.635,gamble,win,13.7,47.8125,183.88055971086487,None,183.88055971086487,None,183.88055971086487,None,183.88055971086487,None,183.88055971086487,None,183.88055971086487,None,183.88055971086487,None,1,1.2508536294653823,183.88055971086487,None,185.16446098390952,None,185.16446098390952,None,185.16446098390952,None,185.16446098390952,None,185.16446098390952,None,185.16446098390952,None,185.16446098390952,None,189.1492490844539,None,189.1492490844539,None,189.1492490844539,None,189.1492490844539,None,189.1492490844539,None,189.1492490844539,None,189.1492490844539,None,198.65276615624316,None,190.14968105888147,None,191.14996936181342,None,0.77,7.5026480032383915,194.15115809144118,None,None,194.15115809144118,None,,,,,,,,,,,,,,,,,,,23951,2019_Oct_11_1037,Mmi_3levels,3.1.5,59.971464867429205,
,,,1,1,11.5,,,,,,,,,0,0,0,0,0,8,8,10,,,,,,,,,,,,,,,,,,,,,,,,,,,,,,,,,,,,,,,,,,,,,,,,,,,,,,,,,,,,True,True,False,0.77,-0.22999999999999998,-2.7399999999999998,5.959999999999999,11.5,5.540000000000001,2.7700000000000005,gamble,win,11.5,59.3125,200.67023104232248,None,200.67023104232248,None,200.67023104232248,None,200.67023104232248,None,200.67023104232248,None,200.67023104232248,None,200.67023104232248,None,1,1.0172217004756021,200.67023104232248,None,201.72068757529541,None,201.72068757529541,None,201.72068757529541,None,201.72068757529541,None,201.72068757529541,None,201.72068757529541,None,201.72068757529541,None,205.70547247602917,None,205.70547247602917,None,205.70547247602917,None,205.70547247602917,None,205.70547247602917,None,205.70547247602917,None,205.70547247602917,None,206.7058833317069,None,,,,,,,,,,,,,,,,,,,,,,,,,,,,,,23951,2019_Oct_11_1037,Mmi_3levels,3.1.5,59.971464867429205,
,,,1,1,-0.5,,,,,,,,,0,0,0,0,0,9,9,21,,,,,,,,,,,,,,,,,,,,,,,,,,,,,,,,,,,,,,,,,,,,,,,,,,,,,,,,,,,,True,True,True,0.77,-0.22999999999999998,-2.9699999999999998,6.1899999999999995,-0.5,-6.6899999999999995,-3.5949999999999998,gamble,win,-0.5,58.8125,208.72330662024797,None,208.72330662024797,None,208.72330662024797,None,208.72330662024797,None,208.72330662024797,None,208.72330662024797,None,208.72330662024797,None,1,2.200958983228702,208.72330662024797,None,210.9574268403312,None,210.9574268403312,None,210.9574268403312,None,210.9574268403312,None,210.9574268403312,None,210.9574268403312,None,210.9574268403312,None,214.95900050716955,None,214.95900050716955,None,214.95900050716955,None,214.95900050716955,None,214.95900050716955,None,214.95900050716955,None,214.95900050716955,None,224.44588368368568,None,215.94264499541623,None,216.94297073613234,None,0.73,7.502867510243959,219.9440858701164,None,None,219.9440858701164,None,,,,,,,,,,,,,,,,,,,23951,2019_Oct_11_1037,Mmi_3levels,3.1.5,59.971464867429205,
,,,1,1,1.3,,,,,,,,,0,0,0,0,0,10,10,26,,,,,,,,,,,,,,,,,,,,,,,,,,,,,,,,,,,,,,,,,,,,,,,,,,,,,,,,,,,,True,True,True,0.73,-0.27,-3.2399999999999998,7.02,1.3,-5.72,-2.21,gamble,win,1.3,60.1125,226.4633072922079,None,226.4633072922079,None,226.4633072922079,None,226.4633072922079,None,226.4633072922079,None,226.4633072922079,None,226.4633072922079,None,1,1.6676004780520088,226.4633072922079,None,228.1639470943319,None,228.1639470943319,None,228.1639470943319,None,228.1639470943319,None,228.1639470943319,None,228.1639470943319,None,228.1639470943319,None,232.16544972537577,None,232.16544972537577,None,232.16544972537577,None,232.16544972537577,None,232.16544972537577,None,232.16544972537577,None,232.16544972537577,None,233.14915533000476,None,,,,,,,,,,,,,,,,,,,,,,,,,,,,,,23951,2019_Oct_11_1037,Mmi_3levels,3.1.5,59.971464867429205,
,,,1,1,4.7,,,,,,,,,0,0,0,0,0,11,11,16,,,,,,,,,,,,,,,,,,,,,,,,,,,,,,,,,,,,,,,,,,,,,,,,,,,,,,,,,,,,True,False,True,0.73,-0.27,-3.51,-1.2375,4.7,3.4625000000000004,1.7312500000000002,gamble,lose,3.4625000000000004,63.574999999999996,235.16654022081912,None,235.16654022081912,None,235.16654022081912,None,235.16654022081912,None,235.16654022081912,None,235.16654022081912,None,235.16654022081912,None,1,0.9672812969465667,235.16654022081912,None,236.1669149186364,None,236.1669149186364,None,236.1669149186364,None,236.1669149186364,None,236.1669149186364,None,236.1669149186364,None,236.1669149186364,None,240.15172413793061,None,240.15172413793061,None,240.15172413793061,None,240.15172413793061,None,240.15172413793061,None,240.15172413793061,None,240.15172413793061,None,249.65525432894356,None,241.1521689116007,None,242.15253624985417,None,0.71,7.50261600513204,245.15365650353488,None,None,245.15365650353488,None,,,,,,,,,,,,,,,,,,,23951,2019_Oct_11_1037,Mmi_3levels,3.1.5,59.971464867429205,
,,,1,1,10.3,,,,,,,,,0,0,0,0,0,12,12,7,,,,,,,,,,,,,,,,,,,,,,,,,,,,,,,,,,,,,,,,,,,,,,,,,,,,,,,,,,,,True,True,True,0.71,-0.29000000000000004,-3.8,7.86,10.3,2.4400000000000004,1.2200000000000002,gamble,win,10.3,73.875,251.67277617165018,None,251.67277617165018,None,251.67277617165018,None,251.67277617165018,None,251.67277617165018,None,251.67277617165018,None,251.67277617165018,None,1,1.1339642293178258,251.67277617165018,None,252.83984308128947,None,252.83984308128947,None,252.83984308128947,None,252.83984308128947,None,252.83984308128947,None,252.83984308128947,None,252.83984308128947,None,256.82472141649214,None,256.82472141649214,None,256.82472141649214,None,256.82472141649214,None,256.82472141649214,None,256.82472141649214,None,256.82472141649214,None,257.82510411383646,None,,,,,,,,,,,,,,,,,,,,,,,,,,,,,,23951,2019_Oct_11_1037,Mmi_3levels,3.1.5,59.971464867429205,
,,,1,1,0.5,,,,,,,,,0,0,0,0,0,13,13,9,,,,,,,,,,,,,,,,,,,,,,,,,,,,,,,,,,,,,,,,,,,,,,,,,,,,,,,,,,,,True,True,False,0.71,-0.29000000000000004,-4.09,8.15,0.5,-7.65,-3.575,certain,certain,-3.575,70.3,259.84247300559764,None,259.84247300559764,None,259.84247300559764,None,259.84247300559764,None,259.84247300559764,None,259.84247300559764,None,259.84247300559764,None,3,2.2677751877090486,259.84247300559764,None,262.1433380743856,None,262.1433380743856,None,262.1433380743856,None,262.1433380743856,None,262.1433380743856,None,262.1433380743856,None,262.1433380743856,None,266.1448893425504,None,266.1448893425504,None,266.1448893425504,None,266.1448893425504,None,266.1448893425504,None,266.1448893425504,None,266.1448893425504,None,267.1285447101527,None,,,,,,,,,,,,,,,,,,,,,,,,,,,,,,23951,2019_Oct_11_1037,Mmi_3levels,3.1.5,59.971464867429205,
,,,1,1,1.1,,,,,,,,,0,0,0,0,0,14,14,14,,,,,,,,,,,,,,,,,,,,,,,,,,,,,,,,,,,,,,,,,,,,,,,,,,,,,,,,,,,,True,True,False,0.71,-0.29000000000000004,-4.38,8.440000000000001,1.1,-7.340000000000002,-3.120000000000001,gamble,win,1.1,71.39999999999999,269.1459686386561,None,269.1459686386561,None,269.1459686386561,None,269.1459686386561,None,269.1459686386561,None,269.1459686386561,None,269.1459686386561,None,1,1.5676911926821049,269.1459686386561,None,270.74659260171757,None,270.74659260171757,None,270.74659260171757,None,270.74659260171757,None,270.74659260171757,None,270.74659260171757,None,270.74659260171757,None,274.7314382988525,None,274.7314382988525,None,274.7314382988525,None,274.7314382988525,None,274.7314382988525,None,274.7314382988525,None,274.7314382988525,None,284.2349492910016,None,275.7317378011221,None,276.7321921742232,None,0.74,7.502632644146615,279.7333098680556,None,None,279.7333098680556,None,,,,,,,,,,,,,,,,,,,23951,2019_Oct_11_1037,Mmi_3levels,3.1.5,59.971464867429205,
,,,1,1,4.9,,,,,,,,,0,0,0,0,0,15,15,24,,,,,,,,,,,,,,,,,,,,,,,,,,,,,,,,,,,,,,,,,,,,,,,,,,,,,,,,,,,,True,True,True,0.74,-0.26,-4.64,8.28,4.9,-3.379999999999999,0.7600000000000007,certain,certain,0.7600000000000007,72.16,286.25239753806545,None,286.25239753806545,None,286.25239753806545,None,286.25239753806545,None,286.25239753806545,None,286.25239753806545,None,286.25239753806545,None,3,2.884768741691005,286.25239753806545,None,289.17021104350624,None,289.17021104350624,None,289.17021104350624,None,289.17021104350624,None,289.17021104350624,None,289.17021104350624,None,289.17021104350624,None,293.17171687436075,None,293.17171687436075,None,293.17171687436075,None,293.17171687436075,None,293.17171687436075,None,293.17171687436075,None,293.17171687436075,None,294.1553636024746,None,,,,,,,,,,,,,,,,,,,,,,,,,,,,,,23951,2019_Oct_11_1037,Mmi_3levels,3.1.5,59.971464867429205,
,,,1,1,-0.3,,,,,,,,,0,0,0,0,0,16,16,4,,,,,,,,,,,,,,,,,,,,,,,,,,,,,,,,,,,,,,,,,,,,,,,,,,,,,,,,,,,,True,False,True,0.74,-0.26,-4.8999999999999995,-1.3183333333333334,-0.3,-1.6183333333333334,-0.9591666666666667,gamble,lose,-1.6183333333333334,70.54166666666666,296.17278913088376,None,296.17278913088376,None,296.17278913088376,None,296.17278913088376,None,296.17278913088376,None,296.17278913088376,None,296.17278913088376,None,1,2.4511646510518403,296.17278913088376,None,298.65709358006006,None,298.65709358006006,None,298.65709358006006,None,298.65709358006006,None,298.65709358006006,None,298.65709358006006,None,298.65709358006006,None,302.6419251980278,None,302.6419251980278,None,302.6419251980278,None,302.6419251980278,None,302.6419251980278,None,302.6419251980278,None,302.6419251980278,None,312.1454387500262,None,303.64231685484174,None,304.6426771535125,None,0.68,7.5023545806088805,307.64375132992154,None,None,307.64375132992154,None,,,,,,,,,,,,,,,,,,,23951,2019_Oct_11_1037,Mmi_3levels,3.1.5,59.971464867429205,
,,,1,1,1.9,,,,,,,,,0,0,0,0,0,17,17,19,,,,,,,,,,,,,,,,,,,,,,,,,,,,,,,,,,,,,,,,,,,,,,,,,,,,,,,,,,,,True,True,False,0.68,-0.31999999999999995,-5.22,9.7,1.9,-7.799999999999999,-2.9499999999999993,gamble,win,1.9,72.44166666666666,314.1628677982262,None,314.1628677982262,None,314.1628677982262,None,314.1628677982262,None,314.1628677982262,None,314.1628677982262,None,314.1628677982262,None,1,2.001118333794693,314.1628677982262,None,316.1970094570397,None,316.1970094570397,None,316.1970094570397,None,316.1970094570397,None,316.1970094570397,None,316.1970094570397,None,316.1970094570397,None,320.19847529026265,None,320.19847529026265,None,320.19847529026265,None,320.19847529026265,None,320.19847529026265,None,320.19847529026265,None,320.19847529026265,None,321.18217673513755,None,,,,,,,,,,,,,,,,,,,,,,,,,,,,,,23951,2019_Oct_11_1037,Mmi_3levels,3.1.5,59.971464867429205,
,,,1,1,-1.3,,,,,,,,,0,0,0,0,0,18,18,12,,,,,,,,,,,,,,,,,,,,,,,,,,,,,,,,,,,,,,,,,,,,,,,,,,,,,,,,,,,,True,False,True,0.68,-0.31999999999999995,-5.54,-1.5816666666666666,-1.3,-2.881666666666667,-2.0908333333333333,certain,certain,-2.0908333333333333,70.35083333333333,323.19960386345156,None,323.19960386345156,None,323.19960386345156,None,323.19960386345156,None,323.19960386345156,None,323.19960386345156,None,323.19960386345156,None,3,2.1510425782789753,323.19960386345156,None,325.38371296419245,None,325.38371296419245,None,325.38371296419245,None,325.38371296419245,None,325.38371296419245,None,325.38371296419245,None,325.38371296419245,None,329.38525335300164,None,329.38525335300164,None,329.38525335300164,None,329.38525335300164,None,329.38525335300164,None,329.38525335300164,None,329.38525335300164,None,330.3690175141628,None,,,,,,,,,,,,,,,,,,,,,,,,,,,,,,23951,2019_Oct_11_1037,Mmi_3levels,3.1.5,59.971464867429205,
,,,1,1,10.5,,,,,,,,,0,0,0,0,0,19,19,15,,,,,,,,,,,,,,,,,,,,,,,,,,,,,,,,,,,,,,,,,,,,,,,,,,,,,,,,,,,,True,True,True,0.68,-0.31999999999999995,-5.86,10.34,10.5,0.16000000000000014,0.08000000000000007,gamble,win,10.5,80.85083333333333,332.3863422485392,None,332.3863422485392,None,332.3863422485392,None,332.3863422485392,None,332.3863422485392,None,332.3863422485392,None,332.3863422485392,None,1,1.7510428982604935,332.3863422485392,None,334.170436630151,None,334.170436630151,None,334.170436630151,None,334.170436630151,None,334.170436630151,None,334.170436630151,None,334.170436630151,None,338.15522377075285,None,338.15522377075285,None,338.15522377075285,None,338.15522377075285,None,338.15522377075285,None,338.15522377075285,None,338.15522377075285,None,347.65883395702986,None,339.15564774565337,None,340.1560304429977,None,0.67,7.502779195471703,343.15714269715227,None,None,343.15714269715227,None,,,,,,,,,,,,,,,,,,,23951,2019_Oct_11_1037,Mmi_3levels,3.1.5,59.971464867429205,
,,,1,1,9.1,,,,,,,,,0,0,0,0,0,20,20,2,,,,,,,,,,,,,,,,,,,,,,,,,,,,,,,,,,,,,,,,,,,,,,,,,,,,,,,,,,,,True,True,False,0.67,-0.32999999999999996,-6.19,10.809999999999999,9.1,-1.709999999999999,-0.8549999999999995,gamble,win,9.1,89.95083333333332,349.67627708439613,None,349.67627708439613,None,349.67627708439613,None,349.67627708439613,None,349.67627708439613,None,349.67627708439613,None,349.67627708439613,None,1,2.301096095111461,349.67627708439613,None,351.9937382906928,None,351.9937382906928,None,351.9937382906928,None,351.9937382906928,None,351.9937382906928,None,351.9937382906928,None,351.9937382906928,None,355.9952258826279,None,355.9952258826279,None,355.9952258826279,None,355.9952258826279,None,355.9952258826279,None,355.9952258826279,None,355.9952258826279,None,356.99563097864575,None,,,,,,,,,,,,,,,,,,,,,,,,,,,,,,23951,2019_Oct_11_1037,Mmi_3levels,3.1.5,59.971464867429205,
,,,1,1,8.5,,,,,,,,,0,0,0,0,0,21,21,0,,,,,,,,,,,,,,,,,,,,,,,,,,,,,,,,,,,,,,,,,,,,,,,,,,,,,,,,,,,,True,True,True,0.67,-0.32999999999999996,-6.5200000000000005,11.14,8.5,-2.6400000000000006,-1.3200000000000003,gamble,win,8.5,98.45083333333332,359.0131013044029,None,359.0131013044029,None,359.0131013044029,None,359.0131013044029,None,359.0131013044029,None,359.0131013044029,None,359.0131013044029,None,1,2.2344865983932323,359.0131013044029,None,361.2806291467541,None,361.2806291467541,None,361.2806291467541,None,361.2806291467541,None,361.2806291467541,None,361.2806291467541,None,361.2806291467541,None,365.2820514625537,None,365.2820514625537,None,365.2820514625537,None,365.2820514625537,None,365.2820514625537,None,365.2820514625537,None,365.2820514625537,None,374.7689586376482,None,366.26573306860246,None,367.26621144028286,None,0.69,7.5027334381802575,370.267316974835,None,None,370.267316974835,None,,,,,,,,,,,,,,,,,,,23951,2019_Oct_11_1037,Mmi_3levels,3.1.5,59.971464867429205,
,,,1,1,7.1,,,,,,,,,0,0,0,0,0,22,22,20,,,,,,,,,,,,,,,,,,,,,,,,,,,,,,,,,,,,,,,,,,,,,,,,,,,,,,,,,,,,True,True,False,0.69,-0.31000000000000005,-6.83,11.170000000000002,7.1,-4.070000000000002,1.5149999999999988,gamble,win,7.1,105.55083333333332,376.7863838460762,None,376.7863838460762,None,376.7863838460762,None,376.7863838460762,None,376.7863838460762,None,376.7863838460762,None,376.7863838460762,None,None,,376.7863838460762,None,379.78753001822315,None,379.78753001822315,None,379.78753001822315,None,379.78753001822315,None,379.78753001822315,None,379.78753001822315,None,379.78753001822315,None,383.7723491569295,None,383.7723491569295,None,383.7723491569295,None,383.7723491569295,None,383.7723491569295,None,383.7723491569295,None,383.7723491569295,None,384.77273665399025,None,,,,,,,,,,,,,,,,,,,,,,,,,,,,,,23951,2019_Oct_11_1037,Mmi_3levels,3.1.5,59.971464867429205,
,,,1,1,6.7,,,,,,,,,0,0,0,0,0,23,23,13,,,,,,,,,,,,,,,,,,,,,,,,,,,,,,,,,,,,,,,,,,,,,,,,,,,,,,,,,,,,True,True,True,0.69,-0.31000000000000005,-7.140000000000001,11.48,6.7,-4.78,0.96,gamble,win,6.7,112.25083333333332,386.7901263445201,None,386.7901263445201,None,386.7901263445201,None,386.7901263445201,None,386.7901263445201,None,386.7901263445201,None,386.7901263445201,None,None,,386.7901263445201,None,389.79127443655307,None,389.79127443655307,None,389.79127443655307,None,389.79127443655307,None,389.79127443655307,None,389.79127443655307,None,389.79127443655307,None,393.7761022147488,None,393.7761022147488,None,393.7761022147488,None,393.7761022147488,None,393.7761022147488,None,393.7761022147488,None,393.7761022147488,None,403.27963624553377,None,394.7764657132293,None,395.7769178464632,None,0.7,7.502608325587062,398.77794946539143,None,None,398.77794946539143,None,,,,,,,,,,,,,,,,,,,23951,2019_Oct_11_1037,Mmi_3levels,3.1.5,59.971464867429205,
,,,1,1,3.1,,,,,,,,,0,0,0,0,0,24,24,22,,,,,,,,,,,,,,,,,,,,,,,,,,,,,,,,,,,,,,,,,,,,,,,,,,,,,,,,,,,,True,True,False,0.7,-0.30000000000000004,-7.44,11.64,3.1,-8.540000000000001,-2.7200000000000006,gamble,win,3.1,115.35083333333331,405.29707521314776,None,405.29707521314776,None,405.29707521314776,None,405.29707521314776,None,405.29707521314776,None,405.29707521314776,None,405.29707521314776,None,None,,405.29707521314776,None,408.2982261850102,None,408.2982261850102,None,408.2982261850102,None,408.2982261850102,None,408.2982261850102,None,408.2982261850102,None,408.2982261850102,None,412.2997313759024,None,412.2997313759024,None,412.2997313759024,None,412.2997313759024,None,412.2997313759024,None,412.2997313759024,None,412.2997313759024,None,413.2834254612126,None,,,,,,,,,,,,,,,,,,,,,,,,,,,,,,23951,2019_Oct_11_1037,Mmi_3levels,3.1.5,59.971464867429205,
,,,1,1,5.7,,,,,,,,,0,0,0,0,0,25,25,5,,,,,,,,,,,,,,,,,,,,,,,,,,,,,,,,,,,,,,,,,,,,,,,,,,,,,,,,,,,,True,True,False,0.7,-0.30000000000000004,-7.74,11.940000000000001,5.7,-6.240000000000001,-0.27000000000000046,certain,certain,-0.27000000000000046,115.08083333333332,415.30088650751895,None,415.30088650751895,None,415.30088650751895,None,415.30088650751895,None,415.30088650751895,None,415.30088650751895,None,415.30088650751895,None,3,1.834223573964664,415.30088650751895,None,417.1682220412549,None,417.1682220412549,None,417.1682220412549,None,417.1682220412549,None,417.1682220412549,None,417.1682220412549,None,417.1682220412549,None,421.15304437977284,None,421.15304437977284,None,421.15304437977284,None,421.15304437977284,None,421.15304437977284,None,421.15304437977284,None,421.15304437977284,None,422.15343251679496,None,,,,,,,,,,,,,,,,,,,,,,,,,,,,,,23951,2019_Oct_11_1037,Mmi_3levels,3.1.5,59.971464867429205,
,,,1,1,9.7,,,,,,,,,0,0,0,0,0,26,26,6,,,,,,,,,,,,,,,,,,,,,,,,,,,,,,,,,,,,,,,,,,,,,,,,,,,,,,,,,,,,True,True,False,0.7,-0.30000000000000004,-8.040000000000001,12.240000000000002,9.7,-2.5400000000000027,-1.2700000000000014,gamble,win,9.7,124.78083333333332,424.17085580533603,None,424.17085580533603,None,424.17085580533603,None,424.17085580533603,None,424.17085580533603,None,424.17085580533603,None,424.17085580533603,None,1,1.5174935243830987,424.17085580533603,None,425.72143857083665,None,425.72143857083665,None,425.72143857083665,None,425.72143857083665,None,425.72143857083665,None,425.72143857083665,None,425.72143857083665,None,429.7062647491266,None,429.7062647491266,None,429.7062647491266,None,429.7062647491266,None,429.7062647491266,None,429.7062647491266,None,429.7062647491266,None,439.20983397782857,None,430.70659432961565,None,431.7070154246867,None,0.65,7.502859830698071,434.70812767884127,None,None,434.70812767884127,None,,,,,,,,,,,,,,,,,,,23951,2019_Oct_11_1037,Mmi_3levels,3.1.5,59.971464867429205,
,,,2,0,10.5,,,,,,,,,0,1,1,1,0,0,0,3,,,,,,,,,,,,,,,,,,,,,,,,,,,,,,,,,,,,,,,,,,,,,,,,477.22409617350604,None,0.7,5.917869822106695,480.24192487804703,None,4,2.884581872753188,480.24192487804703,None,483.14295569702244,None,False,True,True,0.7,0.7,0.7,-10.499999999999998,10.5,1.7763568394002505e-15,8.881784197001252e-16,gamble,lose,1.7763568394002505e-15,124.78083333333332,486.1607997606543,None,486.1607997606543,None,486.1607997606543,None,486.1607997606543,None,486.1607997606543,None,486.1607997606543,None,486.1607997606543,None,1,1.7175610403864994,486.1607997606543,None,487.8947815889296,None,487.8947815889296,None,487.8947815889296,None,487.8947815889296,None,487.8947815889296,None,487.8947815889296,None,487.8947815889296,None,491.89629157953823,None,491.89629157953823,None,491.89629157953823,None,491.89629157953823,None,491.89629157953823,None,491.89629157953823,None,491.89629157953823,None,492.89667907659896,None,,,,,,,,,,,,441.21057761380507,None,4,35.99707249330913,441.21057761380507,None,,,,,,,,,,,,,23951,2019_Oct_11_1037,Mmi_3levels,3.1.5,59.971464867429205,
,,,2,0,-1.5,,,,,,,,,0,1,1,1,0,1,1,8,,,,,,,,,,,,,,,,,,,,,,,,,,,,,,,,,,,,,,,,,,,,,,,,,,,,,,,,,,,,False,True,True,0.7,0.7,1.4,-11.2,-1.5,-12.7,-7.1,certain,certain,-7.1,117.68083333333333,494.9140956455376,None,494.9140956455376,None,494.9140956455376,None,494.9140956455376,None,494.9140956455376,None,494.9140956455376,None,494.9140956455376,None,3,1.7675484811297792,494.9140956455376,None,496.7147407273487,None,496.7147407273487,None,496.7147407273487,None,496.7147407273487,None,496.7147407273487,None,496.7147407273487,None,496.7147407273487,None,500.6995400272299,None,500.6995400272299,None,500.6995400272299,None,500.6995400272299,None,500.6995400272299,None,500.6995400272299,None,500.6995400272299,None,510.21992746029446,None,501.71672492988364,None,502.7170167526083,None,0.67,7.502719359014009,505.7181315666112,None,None,505.7181315666112,None,,,,,,,,,,,,,,,,,,,23951,2019_Oct_11_1037,Mmi_3levels,3.1.5,59.971464867429205,
,,,2,0,0.7,,,,,,,,,0,1,1,1,0,2,2,4,,,,,,,,,,,,,,,,,,,,,,,,,,,,,,,,,,,,,,,,,,,,,,,,,,,,,,,,,,,,False,True,True,0.67,0.67,2.07,-11.450000000000001,0.7,-10.750000000000002,-5.025000000000001,gamble,lose,-10.750000000000002,106.93083333333333,512.237250274784,None,512.237250274784,None,512.237250274784,None,512.237250274784,None,512.237250274784,None,512.237250274784,None,512.237250274784,None,1,2.267784147178645,512.237250274784,None,514.5381255829652,None,514.5381255829652,None,514.5381255829652,None,514.5381255829652,None,514.5381255829652,None,514.5381255829652,None,514.5381255829652,None,518.5229504813315,None,518.5229504813315,None,518.5229504813315,None,518.5229504813315,None,518.5229504813315,None,518.5229504813315,None,518.5229504813315,None,519.5233264590734,None,,,,,,,,,,,,,,,,,,,,,,,,,,,,,,23951,2019_Oct_11_1037,Mmi_3levels,3.1.5,59.971464867429205,
,,,2,0,12.5,,,,,,,,,0,1,1,1,0,3,3,17,,,,,,,,,,,,,,,,,,,,,,,,,,,,,,,,,,,,,,,,,,,,,,,,,,,,,,,,,,,,False,True,False,0.67,0.67,2.7399999999999998,-12.120000000000001,12.5,0.379999999999999,0.1899999999999995,gamble,lose,0.379999999999999,107.31083333333332,521.5407481477096,None,521.5407481477096,None,521.5407481477096,None,521.5407481477096,None,521.5407481477096,None,521.5407481477096,None,521.5407481477096,None,1,1.3007837935992939,521.5407481477096,None,522.8746224623501,None,522.8746224623501,None,522.8746224623501,None,522.8746224623501,None,522.8746224623501,None,522.8746224623501,None,522.8746224623501,None,526.8761177338301,None,526.8761177338301,None,526.8761177338301,None,526.8761177338301,None,526.8761177338301,None,526.8761177338301,None,526.8761177338301,None,536.3629385140403,None,527.8597673417735,None,528.8601148412017,None,0.65,7.502728318483605,531.8613093304875,None,None,531.8613093304875,None,,,,,,,,,,,,,,,,,,,23951,2019_Oct_11_1037,Mmi_3levels,3.1.5,59.971464867429205,
,,,2,0,5.5,,,,,,,,,0,1,1,1,0,4,4,2,,,,,,,,,,,,,,,,,,,,,,,,,,,,,,,,,,,,,,,,,,,,,,,,,,,,,,,,,,,,False,True,True,0.65,0.65,3.3899999999999997,-12.489999999999998,5.5,-6.989999999999998,-0.7449999999999992,gamble,lose,-6.989999999999998,100.32083333333333,538.3803864411229,None,538.3803864411229,None,538.3803864411229,None,538.3803864411229,None,538.3803864411229,None,538.3803864411229,None,538.3803864411229,None,1,1.900955943408917,538.3803864411229,None,540.3144479446819,None,540.3144479446819,None,540.3144479446819,None,540.3144479446819,None,540.3144479446819,None,540.3144479446819,None,540.3144479446819,None,544.3159496157823,None,544.3159496157823,None,544.3159496157823,None,544.3159496157823,None,544.3159496157823,None,544.3159496157823,None,544.3159496157823,None,545.299677939066,None,,,,,,,,,,,,,,,,,,,,,,,,,,,,,,23951,2019_Oct_11_1037,Mmi_3levels,3.1.5,59.971464867429205,
,,,2,0,5.3,,,,,,,,,0,1,1,1,0,5,5,12,,,,,,,,,,,,,,,,,,,,,,,,,,,,,,,,,,,,,,,,,,,,,,,,,,,,,,,,,,,,False,True,False,0.65,0.65,4.04,-13.14,5.3,-7.840000000000001,-1.2700000000000005,gamble,lose,-7.840000000000001,92.48083333333332,547.3171002676645,None,547.3171002676645,None,547.3171002676645,None,547.3171002676645,None,547.3171002676645,None,547.3171002676645,None,547.3171002676645,None,None,,547.3171002676645,None,550.3182086820461,None,550.3182086820461,None,550.3182086820461,None,550.3182086820461,None,550.3182086820461,None,550.3182086820461,None,550.3182086820461,None,554.3197372315562,None,554.3197372315562,None,554.3197372315562,None,554.3197372315562,None,554.3197372315562,None,554.3197372315562,None,554.3197372315562,None,555.3034306769041,None,,,,,,,,,,,,,,,,,,,,,,,,,,,,,,23951,2019_Oct_11_1037,Mmi_3levels,3.1.5,59.971464867429205,
,,,2,0,2.1,,,,,,,,,0,1,1,1,0,6,6,18,,,,,,,,,,,,,,,,,,,,,,,,,,,,,,,,,,,,,,,,,,,,,,,,,,,,,,,,,,,,False,False,False,0.65,0.65,4.69,2.6658333333333335,0.525,-2.1408333333333336,-0.8079166666666668,certain,certain,-0.8079166666666668,91.67291666666665,557.3209630789861,None,557.3209630789861,None,557.3209630789861,None,557.3209630789861,None,557.3209630789861,None,557.3209630789861,None,557.3209630789861,None,3,1.9341722170047433,557.3209630789861,None,559.2882971728077,None,559.2882971728077,None,559.2882971728077,None,559.2882971728077,None,559.2882971728077,None,559.2882971728077,None,559.2882971728077,None,563.273065434526,None,563.273065434526,None,563.273065434526,None,563.273065434526,None,563.273065434526,None,563.273065434526,None,563.273065434526,None,572.7766657013908,None,564.2734410922876,None,565.2738170700295,None,0.64,7.50277823552824,568.2749376436914,None,None,568.2749376436914,None,,,,,,,,,,,,,,,,,,,23951,2019_Oct_11_1037,Mmi_3levels,3.1.5,59.971464867429205,
,,,2,0,5.1,,,,,,,,,0,1,1,1,0,7,7,23,,,,,,,,,,,,,,,,,,,,,,,,,,,,,,,,,,,,,,,,,,,,,,,,,,,,,,,,,,,,False,True,True,0.64,0.64,5.33,-14.290000000000001,5.1,-9.190000000000001,-2.045000000000001,gamble,lose,-9.190000000000001,82.48291666666665,574.7940707510115,None,574.7940707510115,None,574.7940707510115,None,574.7940707510115,None,574.7940707510115,None,574.7940707510115,None,574.7940707510115,None,None,,574.7940707510115,None,577.7952092436126,None,577.7952092436126,None,577.7952092436126,None,577.7952092436126,None,577.7952092436126,None,577.7952092436126,None,577.7952092436126,None,581.7967121946376,None,581.7967121946376,None,581.7967121946376,None,581.7967121946376,None,581.7967121946376,None,581.7967121946376,None,581.7967121946376,None,582.7804424378073,None,,,,,,,,,,,,,,,,,,,,,,,,,,,,,,23951,2019_Oct_11_1037,Mmi_3levels,3.1.5,59.971464867429205,
,,,2,0,0.5,,,,,,,,,0,1,1,1,0,8,8,14,,,,,,,,,,,,,,,,,,,,,,,,,,,,,,,,,,,,,,,,,,,,,,,,,,,,,,,,,,,,False,False,False,0.64,0.64,5.97,2.7375000000000003,0.125,-2.6125000000000003,-1.2437500000000001,certain,certain,-1.2437500000000001,81.23916666666665,584.7978161292849,None,584.7978161292849,None,584.7978161292849,None,584.7978161292849,None,584.7978161292849,None,584.7978161292849,None,584.7978161292849,None,3,2.050875708157946,584.7978161292849,None,586.8819893862283,None,586.8819893862283,None,586.8819893862283,None,586.8819893862283,None,586.8819893862283,None,586.8819893862283,None,586.8819893862283,None,590.8668110847839,None,590.8668110847839,None,590.8668110847839,None,590.8668110847839,None,590.8668110847839,None,590.8668110847839,None,590.8668110847839,None,600.3703339162321,None,591.8671374654623,None,592.8675121632796,None,0.57,7.502716479184528,595.8686445762414,None,None,595.8686445762414,None,,,,,,,,,,,,,,,,,,,23951,2019_Oct_11_1037,Mmi_3levels,3.1.5,59.971464867429205,
,,,2,0,8.5,,,,,,,,,0,1,1,1,0,9,9,11,,,,,,,,,,,,,,,,,,,,,,,,,,,,,,,,,,,,,,,,,,,,,,,,,,,,,,,,,,,,False,True,False,0.57,0.57,6.54,-14.52,8.5,-6.02,1.2400000000000002,certain,certain,1.2400000000000002,82.47916666666664,602.3877712839403,None,602.3877712839403,None,602.3877712839403,None,602.3877712839403,None,602.3877712839403,None,602.3877712839403,None,602.3877712839403,None,3,2.1342259738230496,602.3877712839403,None,604.5552477693318,None,604.5552477693318,None,604.5552477693318,None,604.5552477693318,None,604.5552477693318,None,604.5552477693318,None,604.5552477693318,None,608.5400873868266,None,608.5400873868266,None,608.5400873868266,None,608.5400873868266,None,608.5400873868266,None,608.5400873868266,None,608.5400873868266,None,609.5404358461974,None,,,,,,,,,,,,,,,,,,,,,,,,,,,,,,23951,2019_Oct_11_1037,Mmi_3levels,3.1.5,59.971464867429205,
,,,2,0,13.9,,,,,,,,,0,1,1,1,0,10,10,5,,,,,,,,,,,,,,,,,,,,,,,,,,,,,,,,,,,,,,,,,,,,,,,,,,,,,,,,,,,,False,False,False,0.57,0.57,7.11,2.5875,3.475,0.8875000000000002,0.4437500000000001,gamble,win,3.475,85.95416666666664,611.5578693741327,None,611.5578693741327,None,611.5578693741327,None,611.5578693741327,None,611.5578693741327,None,611.5578693741327,None,611.5578693741327,None,1,1.8343576460274562,611.5578693741327,None,613.425238825861,None,613.425238825861,None,613.425238825861,None,613.425238825861,None,613.425238825861,None,613.425238825861,None,613.425238825861,None,617.4100624443035,None,617.4100624443035,None,617.4100624443035,None,617.4100624443035,None,617.4100624443035,None,617.4100624443035,None,617.4100624443035,None,618.4104605007387,None,,,,,,,,,,,,,,,,,,,,,,,,,,,,,,23951,2019_Oct_11_1037,Mmi_3levels,3.1.5,59.971464867429205,
,,,2,0,-0.7,,,,,,,,,0,1,1,1,0,11,11,13,,,,,,,,,,,,,,,,,,,,,,,,,,,,,,,,,,,,,,,,,,,,,,,,,,,,,,,,,,,,False,True,True,0.57,0.57,7.680000000000001,-15.66,-0.7,-16.36,-8.53,certain,certain,-8.53,77.42416666666664,620.4278853891847,None,620.4278853891847,None,620.4278853891847,None,620.4278853891847,None,620.4278853891847,None,620.4278853891847,None,620.4278853891847,None,3,2.3845177165512723,620.4278853891847,None,622.8454923468526,None,622.8454923468526,None,622.8454923468526,None,622.8454923468526,None,622.8454923468526,None,622.8454923468526,None,622.8454923468526,None,626.8303166052565,None,626.8303166052565,None,626.8303166052565,None,626.8303166052565,None,626.8303166052565,None,626.8303166052565,None,626.8303166052565,None,636.3338387967433,None,627.8306887432263,None,628.8310237633932,None,0.59,7.502779835434012,631.8321603361082,None,None,631.8321603361082,None,,,,,,,,,,,,,,,,,,,23951,2019_Oct_11_1037,Mmi_3levels,3.1.5,59.971464867429205,
,,,2,0,4.5,,,,,,,,,0,1,1,1,0,12,12,20,,,,,,,,,,,,,,,,,,,,,,,,,,,,,,,,,,,,,,,,,,,,,,,,,,,,,,,,,,,,False,True,True,0.59,0.59,8.270000000000001,-16.53,4.5,-12.030000000000001,-3.7650000000000006,gamble,lose,-12.030000000000001,65.39416666666664,638.3512812841482,None,638.3512812841482,None,638.3512812841482,None,638.3512812841482,None,638.3512812841482,None,638.3512812841482,None,638.3512812841482,None,None,,638.3512812841482,None,641.3524088973936,None,641.3524088973936,None,641.3524088973936,None,641.3524088973936,None,641.3524088973936,None,641.3524088973936,None,641.3524088973936,None,645.35389104965,None,645.35389104965,None,645.35389104965,None,645.35389104965,None,645.35389104965,None,645.35389104965,None,645.35389104965,None,646.3376113734066,None,,,,,,,,,,,,,,,,,,,,,,,,,,,,,,23951,2019_Oct_11_1037,Mmi_3levels,3.1.5,59.971464867429205,
,,,2,0,5.9,,,,,,,,,0,1,1,1,0,13,13,26,,,,,,,,,,,,,,,,,,,,,,,,,,,,,,,,,,,,,,,,,,,,,,,,,,,,,,,,,,,,False,True,True,0.59,0.59,8.860000000000001,-17.12,5.9,-11.22,-2.66,certain,certain,-2.66,62.73416666666664,648.3550365818346,None,648.3550365818346,None,648.3550365818346,None,648.3550365818346,None,648.3550365818346,None,648.3550365818346,None,648.3550365818346,None,3,1.1173344937978982,648.3550365818346,None,649.5054311984732,None,649.5054311984732,None,649.5054311984732,None,649.5054311984732,None,649.5054311984732,None,649.5054311984732,None,649.5054311984732,None,653.5069738271495,None,653.5069738271495,None,653.5069738271495,None,653.5069738271495,None,653.5069738271495,None,653.5069738271495,None,653.5069738271495,None,662.9939037208997,None,654.4906515934254,None,655.4910301310165,None,0.63,7.502790074828226,658.4921689435987,None,None,658.4921689435987,None,,,,,,,,,,,,,,,,,,,23951,2019_Oct_11_1037,Mmi_3levels,3.1.5,59.971464867429205,
,,,2,0,6.5,,,,,,,,,0,1,1,1,0,14,14,9,,,,,,,,,,,,,,,,,,,,,,,,,,,,,,,,,,,,,,,,,,,,,,,,,,,,,,,,,,,,False,False,True,0.63,0.63,9.490000000000002,2.9958333333333336,1.625,-1.3708333333333336,0.12708333333333321,certain,certain,0.12708333333333321,62.86124999999997,665.011304290786,None,665.011304290786,None,665.011304290786,None,665.011304290786,None,665.011304290786,None,665.011304290786,None,665.011304290786,None,3,1.500741556099456,665.011304290786,None,666.5452864390427,None,666.5452864390427,None,666.5452864390427,None,666.5452864390427,None,666.5452864390427,None,666.5452864390427,None,666.5452864390427,None,670.5301350160071,None,670.5301350160071,None,670.5301350160071,None,670.5301350160071,None,670.5301350160071,None,670.5301350160071,None,670.5301350160071,None,671.5303833213075,None,,,,,,,,,,,,,,,,,,,,,,,,,,,,,,23951,2019_Oct_11_1037,Mmi_3levels,3.1.5,59.971464867429205,
,,,2,0,7.3,,,,,,,,,0,1,1,1,0,15,15,21,,,,,,,,,,,,,,,,,,,,,,,,,,,,,,,,,,,,,,,,,,,,,,,,,,,,,,,,,,,,False,True,True,0.63,0.63,10.120000000000003,-18.940000000000005,7.3,-11.640000000000004,-2.170000000000002,certain,certain,-2.170000000000002,60.69124999999997,673.5478648464014,None,673.5478648464014,None,673.5478648464014,None,673.5478648464014,None,673.5478648464014,None,673.5478648464014,None,673.5478648464014,None,3,1.6174399275560063,673.5478648464014,None,675.19840777426,None,675.19840777426,None,675.19840777426,None,675.19840777426,None,675.19840777426,None,675.19840777426,None,675.19840777426,None,679.1833088281173,None,679.1833088281173,None,679.1833088281173,None,679.1833088281173,None,679.1833088281173,None,679.1833088281173,None,679.1833088281173,None,688.6868790167618,None,680.1836358487581,None,681.1839945475231,None,0.6,7.50281439338778,684.1851007220375,None,None,684.1851007220375,None,,,,,,,,,,,,,,,,,,,23951,2019_Oct_11_1037,Mmi_3levels,3.1.5,59.971464867429205,
,,,2,0,9.3,,,,,,,,,0,1,1,1,0,16,16,10,,,,,,,,,,,,,,,,,,,,,,,,,,,,,,,,,,,,,,,,,,,,,,,,,,,,,,,,,,,,False,True,False,0.6,0.6,10.720000000000002,-19.120000000000005,9.3,-9.820000000000004,-0.26000000000000156,certain,certain,-0.26000000000000156,60.43124999999996,690.7042821464966,None,690.7042821464966,None,690.7042821464966,None,690.7042821464966,None,690.7042821464966,None,690.7042821464966,None,690.7042821464966,None,3,2.101017059790138,690.7042821464966,None,692.838385887555,None,692.838385887555,None,692.838385887555,None,692.838385887555,None,692.838385887555,None,692.838385887555,None,692.838385887555,None,696.8398929983341,None,696.8398929983341,None,696.8398929983341,None,696.8398929983341,None,696.8398929983341,None,696.8398929983341,None,696.8398929983341,None,697.8236136420719,None,,,,,,,,,,,,,,,,,,,,,,,,,,,,,,23951,2019_Oct_11_1037,Mmi_3levels,3.1.5,59.971464867429205,
,,,2,0,-0.3,,,,,,,,,0,1,1,1,0,17,17,16,,,,,,,,,,,,,,,,,,,,,,,,,,,,,,,,,,,,,,,,,,,,,,,,,,,,,,,,,,,,False,True,False,0.6,0.6,11.320000000000002,-19.720000000000002,-0.3,-20.020000000000003,-10.160000000000002,gamble,lose,-20.020000000000003,40.41124999999996,699.841025411296,None,699.841025411296,None,699.841025411296,None,699.841025411296,None,699.841025411296,None,699.841025411296,None,699.841025411296,None,1,2.767988775064623,699.841025411296,None,702.6420826287085,None,702.6420826287085,None,702.6420826287085,None,702.6420826287085,None,702.6420826287085,None,702.6420826287085,None,702.6420826287085,None,706.643588459563,None,706.643588459563,None,706.643588459563,None,706.643588459563,None,706.643588459563,None,706.643588459563,None,706.643588459563,None,707.6273299020695,None,,,,,,,,,,,,,,,,,,,,,,,,,,,,,,23951,2019_Oct_11_1037,Mmi_3levels,3.1.5,59.971464867429205,
,,,2,0,10.3,,,,,,,,,0,1,1,1,0,18,18,7,,,,,,,,,,,,,,,,,,,,,,,,,,,,,,,,,,,,,,,,,,,,,,,,,,,,,,,,,,,,False,False,False,0.6,0.6,11.920000000000002,3.0933333333333337,2.575,-0.5183333333333335,1.0283333333333333,gamble,win,2.575,42.98624999999996,709.6447509507434,None,709.6447509507434,None,709.6447509507434,None,709.6447509507434,None,709.6447509507434,None,709.6447509507434,None,709.6447509507434,None,1,2.1177111115021034,709.6447509507434,None,711.7955228250485,None,711.7955228250485,None,711.7955228250485,None,711.7955228250485,None,711.7955228250485,None,711.7955228250485,None,711.7955228250485,None,715.7803867611037,None,715.7803867611037,None,715.7803867611037,None,715.7803867611037,None,715.7803867611037,None,715.7803867611037,None,715.7803867611037,None,725.2839223917945,None,716.7807083420657,None,717.7811086383681,None,0.67,7.502732478236794,720.7822068133564,None,None,720.7822068133564,None,,,,,,,,,,,,,,,,,,,23951,2019_Oct_11_1037,Mmi_3levels,3.1.5,59.971464867429205,
,,,2,0,11.7,,,,,,,,,0,1,1,1,0,19,19,22,,,,,,,,,,,,,,,,,,,,,,,,,,,,,,,,,,,,,,,,,,,,,,,,,,,,,,,,,,,,False,False,True,0.67,0.67,12.590000000000002,3.394166666666667,2.925,-0.4691666666666672,1.2279166666666663,certain,certain,1.2279166666666663,44.21416666666663,727.301330961207,None,727.301330961207,None,727.301330961207,None,727.301330961207,None,727.301330961207,None,727.301330961207,None,727.301330961207,None,3,1.6842314934956448,727.301330961207,None,729.0186212976187,None,729.0186212976187,None,729.0186212976187,None,729.0186212976187,None,729.0186212976187,None,729.0186212976187,None,729.0186212976187,None,733.0034887534657,None,733.0034887534657,None,733.0034887534657,None,733.0034887534657,None,733.0034887534657,None,733.0034887534657,None,733.0034887534657,None,734.0038445724012,None,,,,,,,,,,,,,,,,,,,,,,,,,,,,,,23951,2019_Oct_11_1037,Mmi_3levels,3.1.5,59.971464867429205,
,,,2,0,11.1,,,,,,,,,0,1,1,1,0,20,20,15,,,,,,,,,,,,,,,,,,,,,,,,,,,,,,,,,,,,,,,,,,,,,,,,,,,,,,,,,,,,False,True,False,0.67,0.67,13.260000000000002,-22.64,11.1,-11.540000000000001,-0.22000000000000064,certain,certain,-0.22000000000000064,43.99416666666663,736.0212931394462,None,736.0212931394462,None,736.0212931394462,None,736.0212931394462,None,736.0212931394462,None,736.0212931394462,None,736.0212931394462,None,3,2.7346288299731896,736.0212931394462,None,738.7723187587299,None,738.7723187587299,None,738.7723187587299,None,738.7723187587299,None,738.7723187587299,None,738.7723187587299,None,738.7723187587299,None,742.773849228126,None,742.773849228126,None,742.773849228126,None,742.773849228126,None,742.773849228126,None,742.773849228126,None,742.773849228126,None,752.2773723795553,None,743.7742008873074,None,744.774576225087,None,0.66,7.502613765264869,747.7756926389957,None,None,747.7756926389957,None,,,,,,,,,,,,,,,,,,,23951,2019_Oct_11_1037,Mmi_3levels,3.1.5,59.971464867429205,
,,,2,0,6.3,,,,,,,,,0,1,1,1,0,21,21,19,,,,,,,,,,,,,,,,,,,,,,,,,,,,,,,,,,,,,,,,,,,,,,,,,,,,,,,,,,,,False,True,False,0.66,0.66,13.920000000000002,-23.160000000000004,6.3,-16.860000000000003,-5.280000000000001,gamble,lose,-16.860000000000003,27.134166666666626,754.2948209466003,None,754.2948209466003,None,754.2948209466003,None,754.2948209466003,None,754.2948209466003,None,754.2948209466003,None,754.2948209466003,None,1,2.584617870621514,754.2948209466003,None,756.9124487030367,None,756.9124487030367,None,756.9124487030367,None,756.9124487030367,None,756.9124487030367,None,756.9124487030367,None,756.9124487030367,None,760.913973732755,None,760.913973732755,None,760.913973732755,None,760.913973732755,None,760.913973732755,None,760.913973732755,None,760.913973732755,None,761.8976742176865,None,,,,,,,,,,,,,,,,,,,,,,,,,,,,,,23951,2019_Oct_11_1037,Mmi_3levels,3.1.5,59.971464867429205,
,,,2,0,5.7,,,,,,,,,0,1,1,1,0,22,22,0,,,,,,,,,,,,,,,,,,,,,,,,,,,,,,,,,,,,,,,,,,,,,,,,,,,,,,,,,,,,False,True,True,0.66,0.66,14.580000000000002,-23.82,5.7,-18.12,-6.210000000000001,certain,certain,-6.210000000000001,20.924166666666626,763.9150994261136,None,763.9150994261136,None,763.9150994261136,None,763.9150994261136,None,763.9150994261136,None,763.9150994261136,None,763.9150994261136,None,3,1.3341063009074787,763.9150994261136,None,765.2822562504298,None,765.2822562504298,None,765.2822562504298,None,765.2822562504298,None,765.2822562504298,None,765.2822562504298,None,765.2822562504298,None,769.283769440849,None,769.283769440849,None,769.283769440849,None,769.283769440849,None,769.283769440849,None,769.283769440849,None,769.283769440849,None,778.7706833355469,None,770.2674744055148,None,771.2678670222722,None,0.57,7.502743357592408,774.2689639173359,None,None,774.2689639173359,None,,,,,,,,,,,,,,,,,,,23951,2019_Oct_11_1037,Mmi_3levels,3.1.5,59.971464867429205,
,,,2,0,13.7,,,,,,,,,0,1,1,1,0,23,23,1,,,,,,,,,,,,,,,,,,,,,,,,,,,,,,,,,,,,,,,,,,,,,,,,,,,,,,,,,,,,False,True,False,0.57,0.57,15.150000000000002,-23.130000000000003,13.7,-9.430000000000003,-4.715000000000002,gamble,lose,-9.430000000000003,11.494166666666622,780.7880496674597,None,780.7880496674597,None,780.7880496674597,None,780.7880496674597,None,780.7880496674597,None,780.7880496674597,None,780.7880496674597,None,1,1.8012396066151268,780.7880496674597,None,782.6221257301568,None,782.6221257301568,None,782.6221257301568,None,782.6221257301568,None,782.6221257301568,None,782.6221257301568,None,782.6221257301568,None,786.6236293211441,None,786.6236293211441,None,786.6236293211441,None,786.6236293211441,None,786.6236293211441,None,786.6236293211441,None,786.6236293211441,None,787.6073000478373,None,,,,,,,,,,,,,,,,,,,,,,,,,,,,,,23951,2019_Oct_11_1037,Mmi_3levels,3.1.5,59.971464867429205,
,,,2,0,0.3,,,,,,,,,0,1,1,1,0,24,24,25,,,,,,,,,,,,,,,,,,,,,,,,,,,,,,,,,,,,,,,,,,,,,,,,,,,,,,,,,,,,False,True,False,0.57,0.57,15.720000000000002,-23.700000000000003,0.3,-23.400000000000002,-11.55,certain,certain,-11.55,-0.055833333333378476,789.6247751733099,None,789.6247751733099,None,789.6247751733099,None,789.6247751733099,None,789.6247751733099,None,789.6247751733099,None,789.6247751733099,None,3,1.3838915136220749,789.6247751733099,None,791.0419389572135,None,791.0419389572135,None,791.0419389572135,None,791.0419389572135,None,791.0419389572135,None,791.0419389572135,None,791.0419389572135,None,795.0435043045454,None,795.0435043045454,None,795.0435043045454,None,795.0435043045454,None,795.0435043045454,None,795.0435043045454,None,795.0435043045454,None,796.0271379134356,None,,,,,,,,,,,,,,,,,,,,,,,,,,,,,,23951,2019_Oct_11_1037,Mmi_3levels,3.1.5,59.971464867429205,
,,,2,0,0.9,,,,,,,,,0,1,1,1,0,25,25,24,,,,,,,,,,,,,,,,,,,,,,,,,,,,,,,,,,,,,,,,,,,,,,,,,,,,,,,,,,,,False,True,False,0.57,0.57,16.290000000000003,-24.270000000000003,0.9,-23.370000000000005,-11.235000000000003,certain,certain,-11.235000000000003,-11.290833333333381,798.0445768810487,None,798.0445768810487,None,798.0445768810487,None,798.0445768810487,None,798.0445768810487,None,798.0445768810487,None,798.0445768810487,None,3,1.8176040778380411,798.0445768810487,None,799.8952804393975,None,799.8952804393975,None,799.8952804393975,None,799.8952804393975,None,799.8952804393975,None,799.8952804393975,None,799.8952804393975,None,803.8967757108776,None,803.8967757108776,None,803.8967757108776,None,803.8967757108776,None,803.8967757108776,None,803.8967757108776,None,803.8967757108776,None,813.3836720066174,None,804.8804854752598,None,805.880860173078,None,0.65,7.502702080036215,808.8819737071562,None,None,808.8819737071562,None,,,,,,,,,,,,,,,,,,,23951,2019_Oct_11_1037,Mmi_3levels,3.1.5,59.971464867429205,
,,,2,0,8.7,,,,,,,,,0,1,1,1,0,26,26,6,,,,,,,,,,,,,,,,,,,,,,,,,,,,,,,,,,,,,,,,,,,,,,,,,,,,,,,,,,,,False,True,False,0.65,0.65,16.94,-26.04,8.7,-17.34,-4.32,gamble,lose,-17.34,-28.63083333333338,815.4010783361628,None,815.4010783361628,None,815.4010783361628,None,815.4010783361628,None,815.4010783361628,None,815.4010783361628,None,815.4010783361628,None,1,2.551259205455608,815.4010783361628,None,817.9853992643639,None,817.9853992643639,None,817.9853992643639,None,817.9853992643639,None,817.9853992643639,None,817.9853992643639,None,817.9853992643639,None,821.9702305623505,None,821.9702305623505,None,821.9702305623505,None,821.9702305623505,None,821.9702305623505,None,821.9702305623505,None,821.9702305623505,None,822.9705652625362,None,,,,,,,,,,,,,,,,,,,,,,,,,,,,,,23951,2019_Oct_11_1037,Mmi_3levels,3.1.5,59.971464867429205,
,,,3,1,11.9,,,,,,,,,0,2,2,2,0,0,0,14,,,,,,,,,,,,,,,,,,,,,,,,,,,,,,,,,,,,,,,,,,,,,,,,870.9219483006609,None,0.58,5.967231059920778,873.9397466070004,None,4,2.934672987358681,873.9397466070004,None,876.8908695005257,None,True,False,False,0.58,-0.42000000000000004,-0.42000000000000004,-1.5050000000000001,11.9,10.395,5.1975,gamble,lose,10.395,-18.23583333333338,879.9253263406808,None,879.9253263406808,None,879.9253263406808,None,879.9253263406808,None,879.9253263406808,None,879.9253263406808,None,879.9253263406808,None,1,1.0673432132816743,879.9253263406808,None,881.0257687144922,None,881.0257687144922,None,881.0257687144922,None,881.0257687144922,None,881.0257687144922,None,881.0257687144922,None,881.0257687144922,None,885.0105686543357,None,885.0105686543357,None,885.0105686543357,None,885.0105686543357,None,885.0105686543357,None,885.0105686543357,None,885.0105686543357,None,894.5141689211996,None,886.0109487918317,None,887.0113225297064,None,0.61,7.502863670471015,890.0124373437093,None,None,890.0124373437093,None,824.9713277773953,None,4,45.93426885128429,824.9713277773953,None,,,,,,,,,,,,,23951,2019_Oct_11_1037,Mmi_3levels,3.1.5,59.971464867429205,
,,,3,1,9.9,,,,,,,,,0,2,2,2,0,1,1,23,,,,,,,,,,,,,,,,,,,,,,,,,,,,,,,,,,,,,,,,,,,,,,,,,,,,,,,,,,,,True,False,False,0.61,-0.39,-0.81,-1.4325,9.9,8.467500000000001,4.233750000000001,gamble,lose,8.467500000000001,-9.76833333333338,896.5315682111623,None,896.5315682111623,None,896.5315682111623,None,896.5315682111623,None,896.5315682111623,None,896.5315682111623,None,896.5315682111623,None,1,0.9505862852920473,896.5315682111623,None,897.515241817684,None,897.515241817684,None,897.515241817684,None,897.515241817684,None,897.515241817684,None,897.515241817684,None,897.515241817684,None,901.5167684473081,None,901.5167684473081,None,901.5167684473081,None,901.5167684473081,None,901.5167684473081,None,901.5167684473081,None,901.5167684473081,None,902.500475651841,None,,,,,,,,,,,,,,,,,,,,,,,,,,,,,,23951,2019_Oct_11_1037,Mmi_3levels,3.1.5,59.971464867429205,
,,,3,1,1.9,,,,,,,,,0,2,2,2,0,2,2,6,,,,,,,,,,,,,,,,,,,,,,,,,,,,,,,,,,,,,,,,,,,,,,,,,,,,,,,,,,,,True,True,False,0.61,-0.39,-1.2000000000000002,6.66,1.9,-4.76,-1.43,gamble,win,1.9,-7.86833333333338,904.5178944606478,None,904.5178944606478,None,904.5178944606478,None,904.5178944606478,None,904.5178944606478,None,904.5178944606478,None,904.5178944606478,None,1,1.2340837422425466,904.5178944606478,None,905.7850757635151,None,905.7850757635151,None,905.7850757635151,None,905.7850757635151,None,905.7850757635151,None,905.7850757635151,None,905.7850757635151,None,909.7698712236233,None,909.7698712236233,None,909.7698712236233,None,909.7698712236233,None,909.7698712236233,None,909.7698712236233,None,909.7698712236233,None,910.7702788794904,None,,,,,,,,,,,,,,,,,,,,,,,,,,,,,,23951,2019_Oct_11_1037,Mmi_3levels,3.1.5,59.971464867429205,
,,,3,1,11.7,,,,,,,,,0,2,2,2,0,3,3,16,,,,,,,,,,,,,,,,,,,,,,,,,,,,,,,,,,,,,,,,,,,,,,,,,,,,,,,,,,,,True,True,False,0.61,-0.39,-1.5900000000000003,7.050000000000001,11.7,4.649999999999999,2.3249999999999993,gamble,win,11.7,3.831666666666619,912.787699288202,None,912.787699288202,None,912.787699288202,None,912.787699288202,None,912.787699288202,None,912.787699288202,None,912.787699288202,None,1,1.200669080390071,912.787699288202,None,914.0214659292169,None,914.0214659292169,None,914.0214659292169,None,914.0214659292169,None,914.0214659292169,None,914.0214659292169,None,914.0214659292169,None,918.0062933874315,None,918.0062933874315,None,918.0062933874315,None,918.0062933874315,None,918.0062933874315,None,918.0062933874315,None,918.0062933874315,None,927.5098632560948,None,919.0067199221803,None,920.0070418231244,None,0.63,7.5027379179155105,923.0082647907248,None,None,923.0082647907248,None,,,,,,,,,,,,,,,,,,,23951,2019_Oct_11_1037,Mmi_3levels,3.1.5,59.971464867429205,
,,,3,1,3.9,,,,,,,,,0,2,2,2,0,4,4,10,,,,,,,,,,,,,,,,,,,,,,,,,,,,,,,,,,,,,,,,,,,,,,,,,,,,,,,,,,,,True,True,False,0.63,-0.37,-1.9600000000000004,7.140000000000001,3.9,-3.2400000000000007,0.3299999999999996,certain,certain,0.3299999999999996,4.161666666666619,929.5272926242769,None,929.5272926242769,None,929.5272926242769,None,929.5272926242769,None,929.5272926242769,None,929.5272926242769,None,929.5272926242769,None,3,1.7342150944659807,929.5272926242769,None,931.2946081591972,None,931.2946081591972,None,931.2946081591972,None,931.2946081591972,None,931.2946081591972,None,931.2946081591972,None,931.2946081591972,None,935.2960794320979,None,935.2960794320979,None,935.2960794320979,None,935.2960794320979,None,935.2960794320979,None,935.2960794320979,None,935.2960794320979,None,936.2798224745093,None,,,,,,,,,,,,,,,,,,,,,,,,,,,,,,23951,2019_Oct_11_1037,Mmi_3levels,3.1.5,59.971464867429205,
,,,3,1,2.1,,,,,,,,,0,2,2,2,0,5,5,26,,,,,,,,,,,,,,,,,,,,,,,,,,,,,,,,,,,,,,,,,,,,,,,,,,,,,,,,,,,,True,True,False,0.63,-0.37,-2.3300000000000005,7.51,2.1,-5.41,-1.655,gamble,win,2.1,6.261666666666619,938.2972694416494,None,938.2972694416494,None,938.2972694416494,None,938.2972694416494,None,938.2972694416494,None,938.2972694416494,None,938.2972694416494,None,1,1.6173356137323935,938.2972694416494,None,939.9478248487685,None,939.9478248487685,None,939.9478248487685,None,939.9478248487685,None,939.9478248487685,None,939.9478248487685,None,939.9478248487685,None,943.9327022240286,None,943.9327022240286,None,943.9327022240286,None,943.9327022240286,None,943.9327022240286,None,943.9327022240286,None,943.9327022240286,None,953.4362788122944,None,944.9330478035699,None,945.9334247412553,None,0.64,7.50278463514951,948.9345414751442,None,None,948.9345414751442,None,,,,,,,,,,,,,,,,,,,23951,2019_Oct_11_1037,Mmi_3levels,3.1.5,59.971464867429205,
,,,3,1,2.7,,,,,,,,,0,2,2,2,0,6,6,24,,,,,,,,,,,,,,,,,,,,,,,,,,,,,,,,,,,,,,,,,,,,,,,,,,,,,,,,,,,,True,False,False,0.64,-0.36,-2.6900000000000004,-1.4841666666666666,2.7,1.2158333333333335,1.9579166666666667,gamble,lose,1.2158333333333335,7.477499999999952,955.4536813020668,None,955.4536813020668,None,955.4536813020668,None,955.4536813020668,None,955.4536813020668,None,955.4536813020668,None,955.4536813020668,None,1,1.0673400134710391,955.4536813020668,None,956.5374907405485,None,956.5374907405485,None,956.5374907405485,None,956.5374907405485,None,956.5374907405485,None,956.5374907405485,None,956.5374907405485,None,960.5389232957405,None,960.5389232957405,None,960.5389232957405,None,960.5389232957405,None,960.5389232957405,None,960.5389232957405,None,960.5389232957405,None,961.539312392706,None,,,,,,,,,,,,,,,,,,,,,,,,,,,,,,23951,2019_Oct_11_1037,Mmi_3levels,3.1.5,59.971464867429205,
,,,3,1,10.7,,,,,,,,,0,2,2,2,0,7,7,2,,,,,,,,,,,,,,,,,,,,,,,,,,,,,,,,,,,,,,,,,,,,,,,,,,,,,,,,,,,,True,True,False,0.64,-0.36,-3.0500000000000003,8.09,10.7,2.6099999999999994,1.3049999999999997,gamble,win,10.7,18.177499999999952,963.5567606397699,None,963.5567606397699,None,963.5567606397699,None,963.5567606397699,None,963.5567606397699,None,963.5567606397699,None,963.5567606397699,None,1,1.1673462531016412,963.5567606397699,None,964.7572054134398,None,964.7572054134398,None,964.7572054134398,None,964.7572054134398,None,964.7572054134398,None,964.7572054134398,None,964.7572054134398,None,968.7420088730751,None,968.7420088730751,None,968.7420088730751,None,968.7420088730751,None,968.7420088730751,None,968.7420088730751,None,968.7420088730751,None,978.2455550631403,None,969.7423429332985,None,970.7427749077251,None,0.64,7.502670401911928,973.743907320687,None,None,973.743907320687,None,,,,,,,,,,,,,,,,,,,23951,2019_Oct_11_1037,Mmi_3levels,3.1.5,59.971464867429205,
,,,3,1,13.7,,,,,,,,,0,2,2,2,0,8,8,9,,,,,,,,,,,,,,,,,,,,,,,,,,,,,,,,,,,,,,,,,,,,,,,,,,,,,,,,,,,,True,True,True,0.64,-0.36,-3.41,8.45,13.7,5.25,2.625,gamble,win,13.7,31.87749999999995,980.2630074699573,None,980.2630074699573,None,980.2630074699573,None,980.2630074699573,None,980.2630074699573,None,980.2630074699573,None,980.2630074699573,None,1,1.1506774798936021,980.2630074699573,None,981.4467975495854,None,981.4467975495854,None,981.4467975495854,None,981.4467975495854,None,981.4467975495854,None,981.4467975495854,None,981.4467975495854,None,985.4316435667006,None,985.4316435667006,None,985.4316435667006,None,985.4316435667006,None,985.4316435667006,None,985.4316435667006,None,985.4316435667006,None,986.4319635477577,None,,,,,,,,,,,,,,,,,,,,,,,,,,,,,,23951,2019_Oct_11_1037,Mmi_3levels,3.1.5,59.971464867429205,
,,,3,1,8.3,,,,,,,,,0,2,2,2,0,9,9,13,,,,,,,,,,,,,,,,,,,,,,,,,,,,,,,,,,,,,,,,,,,,,,,,,,,,,,,,,,,,True,True,False,0.64,-0.36,-3.77,8.81,8.3,-0.5099999999999998,-0.2549999999999999,gamble,win,8.3,40.17749999999995,988.449400915466,None,988.449400915466,None,988.449400915466,None,988.449400915466,None,988.449400915466,None,988.449400915466,None,988.449400915466,None,1,2.3344816386861567,988.449400915466,None,990.8169913141137,None,990.8169913141137,None,990.8169913141137,None,990.8169913141137,None,990.8169913141137,None,990.8169913141137,None,990.8169913141137,None,994.8018306116273,None,994.8018306116273,None,994.8018306116273,None,994.8018306116273,None,994.8018306116273,None,994.8018306116273,None,994.8018306116273,None,995.802177151113,None,,,,,,,,,,,,,,,,,,,,,,,,,,,,,,23951,2019_Oct_11_1037,Mmi_3levels,3.1.5,59.971464867429205,
,,,3,1,7.5,,,,,,,,,0,2,2,2,0,10,10,21,,,,,,,,,,,,,,,,,,,,,,,,,,,,,,,,,,,,,,,,,,,,,,,,,,,,,,,,,,,,True,True,False,0.64,-0.36,-4.13,9.17,7.5,-1.67,-0.835,gamble,win,7.5,47.67749999999995,997.8195754811313,None,997.8195754811313,None,997.8195754811313,None,997.8195754811313,None,997.8195754811313,None,997.8195754811313,None,997.8195754811313,None,1,1.4007650747071239,997.8195754811313,None,999.3034895534183,None,999.3034895534183,None,999.3034895534183,None,999.3034895534183,None,999.3034895534183,None,999.3034895534183,None,999.3034895534183,None,1003.2382780539392,None,1003.2382780539392,None,1003.2382780539392,None,1003.2382780539392,None,1003.2382780539392,None,1003.2382780539392,None,1003.2382780539392,None,1012.7418220041372,None,1004.2386732305449,None,1005.2390879259947,None,0.68,7.502666562138984,1008.2401425835587,None,None,1008.2401425835587,None,,,,,,,,,,,,,,,,,,,23951,2019_Oct_11_1037,Mmi_3levels,3.1.5,59.971464867429205,
,,,3,1,6.9,,,,,,,,,0,2,2,2,0,11,11,4,,,,,,,,,,,,,,,,,,,,,,,,,,,,,,,,,,,,,,,,,,,,,,,,,,,,,,,,,,,,True,True,True,0.68,-0.31999999999999995,-4.45,8.93,6.9,-2.0299999999999994,-1.0149999999999997,gamble,win,6.9,54.57749999999995,1014.7592891300837,None,1014.7592891300837,None,1014.7592891300837,None,1014.7592891300837,None,1014.7592891300837,None,1014.7592891300837,None,1014.7592891300837,None,1,1.6509077062637516,1014.7592891300837,None,1016.4432803178051,None,1016.4432803178051,None,1016.4432803178051,None,1016.4432803178051,None,1016.4432803178051,None,1016.4432803178051,None,1016.4432803178051,None,1020.428077057838,None,1020.428077057838,None,1020.428077057838,None,1020.428077057838,None,1020.428077057838,None,1020.428077057838,None,1020.428077057838,None,1021.4285231114318,None,,,,,,,,,,,,,,,,,,,,,,,,,,,,,,23951,2019_Oct_11_1037,Mmi_3levels,3.1.5,59.971464867429205,
,,,3,1,0.3,,,,,,,,,0,2,2,2,0,12,12,18,,,,,,,,,,,,,,,,,,,,,,,,,,,,,,,,,,,,,,,,,,,,,,,,,,,,,,,,,,,,True,False,True,0.68,-0.31999999999999995,-4.7700000000000005,-1.5174999999999998,0.3,-1.2174999999999998,-0.4587499999999999,gamble,lose,-1.2174999999999998,53.35999999999995,1023.4458644848228,None,1023.4458644848228,None,1023.4458644848228,None,1023.4458644848228,None,1023.4458644848228,None,1023.4458644848228,None,1023.4458644848228,None,1,1.2007058782119202,1023.4458644848228,None,1024.67968648256,None,1024.67968648256,None,1024.67968648256,None,1024.67968648256,None,1024.67968648256,None,1024.67968648256,None,1024.67968648256,None,1028.6644861024224,None,1028.6644861024224,None,1028.6644861024224,None,1028.6644861024224,None,1028.6644861024224,None,1028.6644861024224,None,1028.6644861024224,None,1038.1680873292298,None,1029.6648915184223,None,1030.665255336884,None,0.65,7.502680321324988,1033.6663797503188,None,None,1033.6663797503188,None,,,,,,,,,,,,,,,,,,,23951,2019_Oct_11_1037,Mmi_3levels,3.1.5,59.971464867429205,
,,,3,1,5.3,,,,,,,,,0,2,2,2,0,13,13,3,,,,,,,,,,,,,,,,,,,,,,,,,,,,,,,,,,,,,,,,,,,,,,,,,,,,,,,,,,,,True,True,True,0.65,-0.35,-5.12,10.02,5.3,-4.72,0.29000000000000004,certain,certain,0.29000000000000004,53.64999999999995,1040.1855058180554,None,1040.1855058180554,None,1040.1855058180554,None,1040.1855058180554,None,1040.1855058180554,None,1040.1855058180554,None,1040.1855058180554,None,3,1.1674016098249922,1040.1855058180554,None,1041.3859374725016,None,1041.3859374725016,None,1041.3859374725016,None,1041.3859374725016,None,1041.3859374725016,None,1041.3859374725016,None,1041.3859374725016,None,1045.3874404235266,None,1045.3874404235266,None,1045.3874404235266,None,1045.3874404235266,None,1045.3874404235266,None,1045.3874404235266,None,1045.3874404235266,None,1046.3711930653708,None,,,,,,,,,,,,,,,,,,,,,,,,,,,,,,23951,2019_Oct_11_1037,Mmi_3levels,3.1.5,59.971464867429205,
,,,3,1,3.3,,,,,,,,,0,2,2,2,0,14,14,0,,,,,,,,,,,,,,,,,,,,,,,,,,,,,,,,,,,,,,,,,,,,,,,,,,,,,,,,,,,,True,True,False,0.65,-0.35,-5.47,10.37,3.3,-7.069999999999999,-1.8849999999999998,gamble,win,3.3,56.949999999999946,1048.3885766762605,None,1048.3885766762605,None,1048.3885766762605,None,1048.3885766762605,None,1048.3885766762605,None,1048.3885766762605,None,1048.3885766762605,None,1,1.900975782234127,1048.3885766762605,None,1050.322623780672,None,1050.322623780672,None,1050.322623780672,None,1050.322623780672,None,1050.322623780672,None,1050.322623780672,None,1050.322623780672,None,1054.307475557447,None,1054.307475557447,None,1054.307475557447,None,1054.307475557447,None,1054.307475557447,None,1054.307475557447,None,1054.307475557447,None,1055.3079340903014,None,,,,,,,,,,,,,,,,,,,,,,,,,,,,,,23951,2019_Oct_11_1037,Mmi_3levels,3.1.5,59.971464867429205,
,,,3,1,6.7,,,,,,,,,0,2,2,2,0,15,15,8,,,,,,,,,,,,,,,,,,,,,,,,,,,,,,,,,,,,,,,,,,,,,,,,,,,,,,,,,,,,True,True,False,0.65,-0.35,-5.819999999999999,10.719999999999999,6.7,-4.019999999999999,1.3400000000000007,gamble,win,6.7,63.64999999999995,1057.3252732238252,None,1057.3252732238252,None,1057.3252732238252,None,1057.3252732238252,None,1057.3252732238252,None,1057.3252732238252,None,1057.3252732238252,None,1,1.5506736401202943,1057.3252732238252,None,1058.9092261738106,None,1058.9092261738106,None,1058.9092261738106,None,1058.9092261738106,None,1058.9092261738106,None,1058.9092261738106,None,1058.9092261738106,None,1062.8940094746395,None,1062.8940094746395,None,1062.8940094746395,None,1062.8940094746395,None,1062.8940094746395,None,1062.8940094746395,None,1062.8940094746395,None,1072.3975550247424,None,1063.8944110508655,None,1064.8947870286074,None,0.65,7.502713599355047,1067.8959348006601,None,None,1067.8959348006601,None,,,,,,,,,,,,,,,,,,,23951,2019_Oct_11_1037,Mmi_3levels,3.1.5,59.971464867429205,
,,,3,1,4.3,,,,,,,,,0,2,2,2,0,16,16,25,,,,,,,,,,,,,,,,,,,,,,,,,,,,,,,,,,,,,,,,,,,,,,,,,,,,,,,,,,,,True,True,True,0.65,-0.35,-6.169999999999999,11.069999999999999,4.3,-6.769999999999999,-1.2349999999999994,gamble,win,4.3,67.94999999999995,1074.415024390556,None,1074.415024390556,None,1074.415024390556,None,1074.415024390556,None,1074.415024390556,None,1074.415024390556,None,1074.415024390556,None,1,1.4674776053252572,1074.415024390556,None,1075.9155563590639,None,1075.9155563590639,None,1075.9155563590639,None,1075.9155563590639,None,1075.9155563590639,None,1075.9155563590639,None,1075.9155563590639,None,1079.9004135755158,None,1079.9004135755158,None,1079.9004135755158,None,1079.9004135755158,None,1079.9004135755158,None,1079.9004135755158,None,1079.9004135755158,None,1080.9007953129176,None,,,,,,,,,,,,,,,,,,,,,,,,,,,,,,23951,2019_Oct_11_1037,Mmi_3levels,3.1.5,59.971464867429205,
,,,3,1,11.3,,,,,,,,,0,2,2,2,0,17,17,17,,,,,,,,,,,,,,,,,,,,,,,,,,,,,,,,,,,,,,,,,,,,,,,,,,,,,,,,,,,,True,True,True,0.65,-0.35,-6.519999999999999,11.419999999999998,11.3,-0.11999999999999744,-0.05999999999999872,gamble,win,11.3,79.24999999999994,1082.9182234011741,None,1082.9182234011741,None,1082.9182234011741,None,1082.9182234011741,None,1082.9182234011741,None,1082.9182234011741,None,1082.9182234011741,None,1,1.8342373331497583,1082.9182234011741,None,1084.7856216511982,None,1084.7856216511982,None,1084.7856216511982,None,1084.7856216511982,None,1084.7856216511982,None,1084.7856216511982,None,1084.7856216511982,None,1088.7704161513639,None,1088.7704161513639,None,1088.7704161513639,None,1088.7704161513639,None,1088.7704161513639,None,1088.7704161513639,None,1088.7704161513639,None,1098.2739879399142,None,1089.7707738901854,None,1090.7711770663173,None,0.64,7.502722238843489,1093.7722835608129,None,None,1093.7722835608129,None,,,,,,,,,,,,,,,,,,,23951,2019_Oct_11_1037,Mmi_3levels,3.1.5,59.971464867429205,
,,,3,1,1.5,,,,,,,,,0,2,2,2,0,18,18,19,,,,,,,,,,,,,,,,,,,,,,,,,,,,,,,,,,,,,,,,,,,,,,,,,,,,,,,,,,,,True,False,True,0.64,-0.36,-6.879999999999999,-1.8333333333333333,1.5,-0.33333333333333326,0.5833333333333334,gamble,lose,-0.33333333333333326,78.91666666666661,1100.2913907496677,None,1100.2913907496677,None,1100.2913907496677,None,1100.2913907496677,None,1100.2913907496677,None,1100.2913907496677,None,1100.2913907496677,None,1,1.100705078259125,1100.2913907496677,None,1101.4251770695173,None,1101.4251770695173,None,1101.4251770695173,None,1101.4251770695173,None,1101.4251770695173,None,1101.4251770695173,None,1101.4251770695173,None,1105.4100019678835,None,1105.4100019678835,None,1105.4100019678835,None,1105.4100019678835,None,1105.4100019678835,None,1105.4100019678835,None,1105.4100019678835,None,1106.4103747458148,None,,,,,,,,,,,,,,,,,,,,,,,,,,,,,,23951,2019_Oct_11_1037,Mmi_3levels,3.1.5,59.971464867429205,
,,,3,1,13.1,,,,,,,,,0,2,2,2,0,19,19,20,,,,,,,,,,,,,,,,,,,,,,,,,,,,,,,,,,,,,,,,,,,,,,,,,,,,,,,,,,,,True,True,True,0.64,-0.36,-7.239999999999999,12.28,13.1,0.8200000000000003,0.41000000000000014,gamble,win,13.1,92.01666666666661,1108.4278012341665,None,1108.4278012341665,None,1108.4278012341665,None,1108.4278012341665,None,1108.4278012341665,None,1108.4278012341665,None,1108.4278012341665,None,1,1.200694038912843,1108.4278012341665,None,1109.661662909556,None,1109.661662909556,None,1109.661662909556,None,1109.661662909556,None,1109.661662909556,None,1109.661662909556,None,1109.661662909556,None,1113.646403332923,None,1113.646403332923,None,1113.646403332923,None,1113.646403332923,None,1113.646403332923,None,1113.646403332923,None,1113.646403332923,None,1123.1499930404116,None,1114.6467985095278,None,1115.6471642478764,None,0.65,7.502734398122811,1118.6482867414252,None,None,1118.6482867414252,None,,,,,,,,,,,,,,,,,,,23951,2019_Oct_11_1037,Mmi_3levels,3.1.5,59.971464867429205,
,,,3,1,0.9,,,,,,,,,0,2,2,2,0,20,20,22,,,,,,,,,,,,,,,,,,,,,,,,,,,,,,,,,,,,,,,,,,,,,,,,,,,,,,,,,,,,True,False,False,0.65,-0.35,-7.589999999999999,-1.8575,0.9,-0.9574999999999999,-0.028749999999999942,gamble,lose,-0.9574999999999999,91.05916666666661,1125.1674438473237,None,1125.1674438473237,None,1125.1674438473237,None,1125.1674438473237,None,1125.1674438473237,None,1125.1674438473237,None,1125.1674438473237,None,1,1.5674508869078636,1125.1674438473237,None,1126.768020453189,None,1126.768020453189,None,1126.768020453189,None,1126.768020453189,None,1126.768020453189,None,1126.768020453189,None,1126.768020453189,None,1130.7528613506083,None,1130.7528613506083,None,1130.7528613506083,None,1130.7528613506083,None,1130.7528613506083,None,1130.7528613506083,None,1130.7528613506083,None,1131.7532440479526,None,,,,,,,,,,,,,,,,,,,,,,,,,,,,,,23951,2019_Oct_11_1037,Mmi_3levels,3.1.5,59.971464867429205,
,,,3,1,8.5,,,,,,,,,0,2,2,2,0,21,21,12,,,,,,,,,,,,,,,,,,,,,,,,,,,,,,,,,,,,,,,,,,,,,,,,,,,,,,,,,,,,True,True,True,0.65,-0.35,-7.939999999999999,12.839999999999998,8.5,-4.339999999999998,-2.169999999999999,gamble,win,8.5,99.55916666666661,1133.7706458977627,None,1133.7706458977627,None,1133.7706458977627,None,1133.7706458977627,None,1133.7706458977627,None,1133.7706458977627,None,1133.7706458977627,None,1,1.8843070090251786,1133.7706458977627,None,1135.6880130296286,None,1135.6880130296286,None,1135.6880130296286,None,1135.6880130296286,None,1135.6880130296286,None,1135.6880130296286,None,1135.6880130296286,None,1139.6895156606724,None,1139.6895156606724,None,1139.6895156606724,None,1139.6895156606724,None,1139.6895156606724,None,1139.6895156606724,None,1139.6895156606724,None,1140.6732481437102,None,,,,,,,,,,,,,,,,,,,,,,,,,,,,,,23951,2019_Oct_11_1037,Mmi_3levels,3.1.5,59.971464867429205,
,,,3,1,-0.7,,,,,,,,,0,2,2,2,0,22,22,11,,,,,,,,,,,,,,,,,,,,,,,,,,,,,,,,,,,,,,,,,,,,,,,,,,,,,,,,,,,,True,True,False,0.65,-0.35,-8.29,13.189999999999998,-0.7,-13.889999999999997,-7.294999999999998,gamble,win,-0.7,98.85916666666661,1142.69063783424,None,1142.69063783424,None,1142.69063783424,None,1142.69063783424,None,1142.69063783424,None,1142.69063783424,None,1142.69063783424,None,1,2.484516276636896,1142.69063783424,None,1145.2082798298343,None,1145.2082798298343,None,1145.2082798298343,None,1145.2082798298343,None,1145.2082798298343,None,1145.2082798298343,None,1145.2082798298343,None,1149.1931869633318,None,1149.1931869633318,None,1149.1931869633318,None,1149.1931869633318,None,1149.1931869633318,None,1149.1931869633318,None,1149.1931869633318,None,1158.696670757091,None,1150.193464386908,None,1151.1938630833056,None,0.6,7.502726718577833,1154.1949462191842,None,None,1154.1949462191842,None,,,,,,,,,,,,,,,,,,,23951,2019_Oct_11_1037,Mmi_3levels,3.1.5,59.971464867429205,
,,,3,1,9.5,,,,,,,,,0,2,2,2,0,23,23,7,,,,,,,,,,,,,,,,,,,,,,,,,,,,,,,,,,,,,,,,,,,,,,,,,,,,,,,,,,,,True,True,True,0.6,-0.4,-8.69,14.29,9.5,-4.789999999999999,-2.3949999999999996,gamble,win,9.5,108.35916666666661,1160.7141522821848,None,1160.7141522821848,None,1160.7141522821848,None,1160.7141522821848,None,1160.7141522821848,None,1160.7141522821848,None,1160.7141522821848,None,1,1.2006646006557276,1160.7141522821848,None,1161.9478885249991,None,1161.9478885249991,None,1161.9478885249991,None,1161.9478885249991,None,1161.9478885249991,None,1161.9478885249991,None,1161.9478885249991,None,1165.9493972356831,None,1165.9493972356831,None,1165.9493972356831,None,1165.9493972356831,None,1165.9493972356831,None,1165.9493972356831,None,1165.9493972356831,None,1166.9331015603875,None,,,,,,,,,,,,,,,,,,,,,,,,,,,,,,23951,2019_Oct_11_1037,Mmi_3levels,3.1.5,59.971464867429205,
,,,3,1,-0.5,,,,,,,,,0,2,2,2,0,24,24,5,,,,,,,,,,,,,,,,,,,,,,,,,,,,,,,,,,,,,,,,,,,,,,,,,,,,,,,,,,,,True,True,True,0.6,-0.4,-9.09,14.690000000000001,-0.5,-15.190000000000001,-7.845000000000001,gamble,win,-0.5,107.85916666666661,1168.9505523672997,None,1168.9505523672997,None,1168.9505523672997,None,1168.9505523672997,None,1168.9505523672997,None,1168.9505523672997,None,1168.9505523672997,None,1,2.334430121736659,1168.9505523672997,None,1171.3180928489037,None,1171.3180928489037,None,1171.3180928489037,None,1171.3180928489037,None,1171.3180928489037,None,1171.3180928489037,None,1171.3180928489037,None,1175.3196194785269,None,1175.3196194785269,None,1175.3196194785269,None,1175.3196194785269,None,1175.3196194785269,None,1175.3196194785269,None,1175.3196194785269,None,1184.8064584976564,None,1176.3032873253906,None,1177.303625545368,None,0.58,7.5027123194304295,1180.304756038442,None,None,1180.304756038442,None,,,,,,,,,,,,,,,,,,,23951,2019_Oct_11_1037,Mmi_3levels,3.1.5,59.971464867429205,
,,,3,1,13.3,,,,,,,,,0,2,2,2,0,25,25,15,,,,,,,,,,,,,,,,,,,,,,,,,,,,,,,,,,,,,,,,,,,,,,,,,,,,,,,,,,,,True,True,False,0.58,-0.42000000000000004,-9.51,15.39,13.3,-2.09,-1.045,gamble,win,13.3,121.15916666666661,1186.823888825781,None,1186.823888825781,None,1186.823888825781,None,1186.823888825781,None,1186.823888825781,None,1186.823888825781,None,1186.823888825781,None,1,1.900993061211011,1186.823888825781,None,1188.7579631285826,None,1188.7579631285826,None,1188.7579631285826,None,1188.7579631285826,None,1188.7579631285826,None,1188.7579631285826,None,1188.7579631285826,None,1192.7594769589641,None,1192.7594769589641,None,1192.7594769589641,None,1192.7594769589641,None,1192.7594769589641,None,1192.7594769589641,None,1192.7594769589641,None,1193.7431697643497,None,,,,,,,,,,,,,,,,,,,,,,,,,,,,,,23951,2019_Oct_11_1037,Mmi_3levels,3.1.5,59.971464867429205,
,,,3,1,4.5,,,,,,,,,0,2,2,2,0,26,26,1,,,,,,,,,,,,,,,,,,,,,,,,,,,,,,,,,,,,,,,,,,,,,,,,,,,,,,,,,,,,True,False,False,0.58,-0.42000000000000004,-9.93,-2.2975000000000003,4.5,2.2024999999999997,1.1012499999999998,gamble,lose,2.2024999999999997,123.36166666666661,1195.7605844134023,None,1195.7605844134023,None,1195.7605844134023,None,1195.7605844134023,None,1195.7605844134023,None,1195.7605844134023,None,1195.7605844134023,None,1,1.3674067295223722,1195.7605844134023,None,1197.1611213416163,None,1197.1611213416163,None,1197.1611213416163,None,1197.1611213416163,None,1197.1611213416163,None,1197.1611213416163,None,1197.1611213416163,None,1201.1459446400777,None,1201.1459446400777,None,1201.1459446400777,None,1201.1459446400777,None,1201.1459446400777,None,1201.1459446400777,None,1201.1459446400777,None,1210.6495641058045,None,1202.146317418009,None,1203.1466959555992,None,0.62,7.502667202102202,1206.1478510872157,None,None,1206.1478510872157,None,,,,,,,,,,,,,,,,,,,23951,2019_Oct_11_1037,Mmi_3levels,3.1.5,59.971464867429205,
,,,,,,,,,,,,,,,,,,,,,,,,,,,,,,0,0,0,0,,,,,,,,,,,,,,,,,,,,,,,,,,,,,,,,,,,,,,,,,,,,,,,,,,,,,,,,,,,,,,,,,,,,,,,,,,,,,,,,,,,,,,,,,,,,,,,,,,,,,,,,,,,,,,,,,,,,,,,,,1212.6502347861006,None,4,37.39761518118121,1212.6502347861006,None,123.36166666666661,4,1250.0809660868072,None,1250.0809660868072,None,1250.0809660868072,None,4,6.902872629940248,1250.0809660868072,None,23951,2019_Oct_11_1037,Mmi_3levels,3.1.5,59.971464867429205,
