currSlide,currImage,currText,blockNum,targetHappiness,highAmount,instructionLoop1.thisRepN,instructionLoop1.thisTrialN,instructionLoop1.thisN,instructionLoop1.thisIndex,instructionLoop2.thisRepN,instructionLoop2.thisTrialN,instructionLoop2.thisN,instructionLoop2.thisIndex,blockLoop.thisRepN,blockLoop.thisTrialN,blockLoop.thisN,blockLoop.thisIndex,trialLoop.thisRepN,trialLoop.thisTrialN,trialLoop.thisN,trialLoop.thisIndex,doRatingLoop.thisRepN,doRatingLoop.thisTrialN,doRatingLoop.thisN,doRatingLoop.thisIndex,trialHappyLoop.thisRepN,trialHappyLoop.thisTrialN,trialHappyLoop.thisN,trialHappyLoop.thisIndex,logWinningsLoop.thisRepN,logWinningsLoop.thisTrialN,logWinningsLoop.thisN,logWinningsLoop.thisIndex,instrImage.started,instrImage.stopped,instrText.started,instrText.stopped,instrContinueText.started,instrContinueText.stopped,instrKeyResp.keys,instrKeyResp.rt,instrKeyResp.started,instrKeyResp.stopped,lifeHappyText.started,lifeHappyText.stopped,lifeHappySlider.response,lifeHappySlider.rt,lifeHappySlider.started,lifeHappySlider.stopped,lifeHappyResp.keys,lifeHappyResp.started,lifeHappyResp.stopped,instrImage_2.started,instrImage_2.stopped,instrText_2.started,instrText_2.stopped,instrContinueText_2.started,instrContinueText_2.stopped,instrKeyResp_2.keys,instrKeyResp_2.rt,instrKeyResp_2.started,instrKeyResp_2.stopped,localizing.started,localizing.stopped,start_exp.keys,start_exp.rt,start_exp.started,start_exp.stopped,blockHappyText.started,blockHappyText.stopped,blockHappySlider.response,blockHappySlider.rt,blockHappySlider.started,blockHappySlider.stopped,blockHappyResp.keys,blockHappyResp.started,blockHappyResp.stopped,blankText.started,blankText.stopped,isHappyBlock,isCongruent,isWinOnTop,lastHappyRating,diff,sumDiff,RPE,winAmount,loseAmount,certainAmount,choice,outcome,outcomeAmount,currentWinnings,fixCross.started,fixCross.stopped,certainBox.started,certainBox.stopped,outcome1Box.started,outcome1Box.stopped,outcome2Box.started,outcome2Box.stopped,certainText.started,certainText.stopped,outcome1Text.started,outcome1Text.stopped,outcome2Text.started,outcome2Text.stopped,choiceKey.keys,choiceKey.rt,choiceKey.started,choiceKey.stopped,fixCross_2.started,fixCross_2.stopped,certainBox_2.started,certainBox_2.stopped,outcome1Box_2.started,outcome1Box_2.stopped,outcome2Box_2.started,outcome2Box_2.stopped,certainText_2.started,certainText_2.stopped,outcome1Text_2.started,outcome1Text_2.stopped,outcome2Text_2.started,outcome2Text_2.stopped,fixCross_3.started,fixCross_3.stopped,certainBox_3.started,certainBox_3.stopped,outcome1Box_3.started,outcome1Box_3.stopped,outcome2Box_3.started,outcome2Box_3.stopped,certainText_3.started,certainText_3.stopped,outcome1Text_3.started,outcome1Text_3.stopped,outcome2Text_3.started,outcome2Text_3.stopped,fixCross_ITI.started,fixCross_ITI.stopped,fixCross_ISI.started,fixCross_ISI.stopped,happyText.started,happyText.stopped,happySlider.response,happySlider.rt,happySlider.started,happySlider.stopped,happyResp.keys,happyResp.started,happyResp.stopped,endOfBlockText.started,endOfBlockText.stopped,restKeyResp.keys,restKeyResp.rt,restKeyResp.started,restKeyResp.stopped,finalWinnings,cashBonus,goodbyeText.started,goodbyeText.stopped,finalWinningsText.started,finalWinningsText.stopped,spaceToContinue.started,spaceToContinue.stopped,goodbyeKeyResp_2.keys,goodbyeKeyResp_2.rt,goodbyeKeyResp_2.started,goodbyeKeyResp_2.stopped,participant,date,expName,psychopyVersion,frameRate,
1,black.png,"Welcome! You are about to play our gambling task.
This task has 3 blocks and takes about 15 minutes.",,,,0,0,0,0,,,,,,,,,,,,,,,,,,,,,,,,,1446.383566772347,None,1446.383566772347,None,1446.383566772347,None,4,15.122857226968335,1446.383566772347,None,,,,,,,,,,,,,,,,,,,,,,,,,,,,,,,,,,,,,,,,,,,,,,,,,,,,,,,,,,,,,,,,,,,,,,,,,,,,,,,,,,,,,,,,,,,,,,,,,,,,,,,,,,,,,,,,,,,,,,,,,,,,,,,,23520,2019_Dec_13_1403,Mmi_3levels,3.1.5,59.9422664917764,
2,black.png,"In this game, you may win or lose points. Your goal is to get as many points as possible. These points will be converted to a cash bonus at the end.
Sometimes we will ask you to rate your mood.",,,,0,1,1,1,,,,,,,,,,,,,,,,,,,,,,,,,1461.5561165586623,None,1461.5561165586623,None,1461.5561165586623,None,4,10.170842991519748,1461.5561165586623,None,,,,,,,,,,,,,,,,,,,,,,,,,,,,,,,,,,,,,,,,,,,,,,,,,,,,,,,,,,,,,,,,,,,,,,,,,,,,,,,,,,,,,,,,,,,,,,,,,,,,,,,,,,,,,,,,,,,,,,,,,,,,,,,,23520,2019_Dec_13_1403,Mmi_3levels,3.1.5,59.9422664917764,
3,black.png,"On the next screen, please rate how you feel about your life these days. Use the LEFT (green) and RIGHT (blue) buttons to move the slider (you can press and hold them to slide gradually) and the TOP (red) button to lock in your response.
Make your rating as accurately and quickly as you can!",,,,0,2,2,2,,,,,,,,,,,,,,,,,,,,,,,,,1471.7767209060912,None,1471.7767209060912,None,1471.7767209060912,None,4,30.76214499372145,1471.7767209060912,None,,,,,,,,,,,,,,,,,,,,,,,,,,,,,,,,,,,,,,,,,,,,,,,,,,,,,,,,,,,,,,,,,,,,,,,,,,,,,,,,,,,,,,,,,,,,,,,,,,,,,,,,,,,,,,,,,,,,,,,,,,,,,,,,23520,2019_Dec_13_1403,Mmi_3levels,3.1.5,59.9422664917764,
,,,,,,,,,,,,,,,,,,,,,,,,,,,,,,,,,,,,,,,,,,,,1502.5552836402385,None,0.08,10.502682106107386,1506.5568102840298,None,None,1506.5568102840298,None,,,,,,,,,,,,,,,,,,,,,,,,,,,,,,,,,,,,,,,,,,,,,,,,,,,,,,,,,,,,,,,,,,,,,,,,,,,,,,,,,,,,,,,,,,,,,,,,,,,,,,,,,,,,,,,,,,,,,,,23520,2019_Dec_13_1403,Mmi_3levels,3.1.5,59.9422664917764,
4,black.png,"In this game you can win money by earning points according to your choices. You will decide whether to gamble a number of points or stick with a guaranteed number of points. 
Make your choice by pressing the left or right arrow key once. An example of one trial is shown on the next screen.",,,,,,,,0,0,0,0,,,,,,,,,,,,,,,,,,,,,,,,,,,,,,,,,,,,,,,,1513.0926718538212,None,1513.0926718538212,None,1513.0926718538212,None,4,15.339440655123326,1513.0926718538212,None,,,,,,,,,,,,,,,,,,,,,,,,,,,,,,,,,,,,,,,,,,,,,,,,,,,,,,,,,,,,,,,,,,,,,,,,,,,,,,,,,,,,,,,,,,,,,,,,,,,,,,,,,,,,,23520,2019_Dec_13_1403,Mmi_3levels,3.1.5,59.9422664917764,
5,example_start.png,"The GAMBLING OPTION will be shown on the RIGHT SIDE. 
Select this option using the RIGHT (blue) button on your keypad.",,,,,,,,0,1,1,1,,,,,,,,,,,,,,,,,,,,,,,,,,,,,,,,,,,,,,,,1528.4986103093725,None,1528.4986103093725,None,1528.4986103093725,None,4,7.052958956286602,1528.4986103093725,None,,,,,,,,,,,,,,,,,,,,,,,,,,,,,,,,,,,,,,,,,,,,,,,,,,,,,,,,,,,,,,,,,,,,,,,,,,,,,,,,,,,,,,,,,,,,,,,,,,,,,,,,,,,,,23520,2019_Dec_13_1403,Mmi_3levels,3.1.5,59.9422664917764,
6,example_gamble.png,"Once you select the gambling choice, the choice you made will remain on the screen.",,,,,,,,0,2,2,2,,,,,,,,,,,,,,,,,,,,,,,,,,,,,,,,,,,,,,,,1535.5846402547577,None,1535.5846402547577,None,1535.5846402547577,None,4,2.7679997414525133,1535.5846402547577,None,,,,,,,,,,,,,,,,,,,,,,,,,,,,,,,,,,,,,,,,,,,,,,,,,,,,,,,,,,,,,,,,,,,,,,,,,,,,,,,,,,,,,,,,,,,,,,,,,,,,,,,,,,,,,23520,2019_Dec_13_1403,Mmi_3levels,3.1.5,59.9422664917764,
7,example_win.png,"The outcome you received will then be shown on the screen. In this example , you WON 10 points.",,,,,,,,0,3,3,3,,,,,,,,,,,,,,,,,,,,,,,,,,,,,,,,,,,,,,,,1538.3857385039337,None,1538.3857385039337,None,1538.3857385039337,None,4,2.4010580591821054,1538.3857385039337,None,,,,,,,,,,,,,,,,,,,,,,,,,,,,,,,,,,,,,,,,,,,,,,,,,,,,,,,,,,,,,,,,,,,,,,,,,,,,,,,,,,,,,,,,,,,,,,,,,,,,,,,,,,,,,23520,2019_Dec_13_1403,Mmi_3levels,3.1.5,59.9422664917764,
8,example_start.png,"The GUARANTEED OPTION will be shown on the LEFT SIDE. You are 100% guaranteed to gain or lose this amount. In this example, you have a 100% chance of winning 1 point. Select this option using the LEFT (green) button on your keyboard.",,,,,,,,0,4,4,4,,,,,,,,,,,,,,,,,,,,,,,,,,,,,,,,,,,,,,,,1540.8366603139184,None,1540.8366603139184,None,1540.8366603139184,None,4,1.0171594634011853,1540.8366603139184,None,,,,,,,,,,,,,,,,,,,,,,,,,,,,,,,,,,,,,,,,,,,,,,,,,,,,,,,,,,,,,,,,,,,,,,,,,,,,,,,,,,,,,,,,,,,,,,,,,,,,,,,,,,,,,23520,2019_Dec_13_1403,Mmi_3levels,3.1.5,59.9422664917764,
9,example_certain.png,"Once you select the guaranteed choice, your selection will remain on the screen.",,,,,,,,0,5,5,5,,,,,,,,,,,,,,,,,,,,,,,,,,,,,,,,,,,,,,,,1541.887077957068,None,1541.887077957068,None,1541.887077957068,None,4,1.2172480349763646,1541.887077957068,None,,,,,,,,,,,,,,,,,,,,,,,,,,,,,,,,,,,,,,,,,,,,,,,,,,,,,,,,,,,,,,,,,,,,,,,,,,,,,,,,,,,,,,,,,,,,,,,,,,,,,,,,,,,,,23520,2019_Dec_13_1403,Mmi_3levels,3.1.5,59.9422664917764,
10,black.png,"Please make your choices as fast as possible.
You will be given a break at the end of each block.
Let's play!",,,,,,,,0,6,6,6,,,,,,,,,,,,,,,,,,,,,,,,,,,,,,,,,,,,,,,,1543.1375521733935,None,1543.1375521733935,None,1543.1375521733935,None,4,3.234909233331564,1543.1375521733935,None,,,,,,,,,,,,,,,,,,,,,,,,,,,,,,,,,,,,,,,,,,,,,,,,,,,,,,,,,,,,,,,,,,,,,,,,,,,,,,,,,,,,,,,,,,,,,,,,,,,,,,,,,,,,,23520,2019_Dec_13_1403,Mmi_3levels,3.1.5,59.9422664917764,
,,,,,,,,,,,,,,,,,,,,,,,,,,,,,,,,,,,,,,,,,,,,,,,,,,,,,,,,,,,,,,,1546.38876843268,None,space,358.90492762601207,1546.38876843268,None,,,,,,,,,,,,,,,,,,,,,,,,,,,,,,,,,,,,,,,,,,,,,,,,,,,,,,,,,,,,,,,,,,,,,,,,,,,,,,,,,,,,,,,,,,,,,,,,,,,,,,,23520,2019_Dec_13_1403,Mmi_3levels,3.1.5,59.9422664917764,
,,,1,1,0.1,,,,,,,,,0,0,0,0,0,0,0,6,,,,,,,,,,,,,,,,,,,,,,,,,,,,,,,,,,,,,,,,,,,,,,,,1905.3102321932092,None,0.18,7.493801909411559,1908.328037064388,None,None,1908.328037064388,None,1912.813090610518,None,True,False,False,0.18,-0.8200000000000001,-0.8200000000000001,-2.9383333333333335,0.1,-2.8383333333333334,-1.3691666666666666,gamble,lose,-2.8383333333333334,-2.8383333333333334,1915.8475836086254,None,1915.8475836086254,None,1915.8475836086254,None,1915.8475836086254,None,1915.8475836086254,None,1915.8475836086254,None,1915.8475836086254,None,1,2.0510032139172836,1915.8475836086254,None,1917.9316923699153,None,1917.9316923699153,None,1917.9316923699153,None,1917.9316923699153,None,1917.9316923699153,None,1917.9316923699153,None,1917.9316923699153,None,1921.9165590453704,None,1921.9165590453704,None,1921.9165590453704,None,1921.9165590453704,None,1921.9165590453704,None,1921.9165590453704,None,1921.9165590453704,None,1922.9169231871929,None,,,,,,,,,,,,,,,,,,,,,,,,,,,,,,23520,2019_Dec_13_1403,Mmi_3levels,3.1.5,59.9422664917764,
,,,1,1,2.9,,,,,,,,,0,0,0,0,0,1,1,9,,,,,,,,,,,,,,,,,,,,,,,,,,,,,,,,,,,,,,,,,,,,,,,,,,,,,,,,,,,True,False,False,0.18,-0.8200000000000001,-1.6400000000000001,-3.006666666666667,2.9,-0.10666666666666691,1.3966666666666665,gamble,lose,-0.10666666666666691,-2.9450000000000003,1924.9344147940137,None,1924.9344147940137,None,1924.9344147940137,None,1924.9344147940137,None,1924.9344147940137,None,1924.9344147940137,None,1924.9344147940137,None,1,1.4674777835098212,1924.9344147940137,None,1926.434986605469,None,1926.434986605469,None,1926.434986605469,None,1926.434986605469,None,1926.434986605469,None,1926.434986605469,None,1926.434986605469,None,1930.4198526409564,None,1930.4198526409564,None,1930.4198526409564,None,1930.4198526409564,None,1930.4198526409564,None,1930.4198526409564,None,1930.4198526409564,None,1931.4201899041182,None,,,,,,,,,,,,,,,,,,,,,,,,,,,,,,23520,2019_Dec_13_1403,Mmi_3levels,3.1.5,59.9422664917764,
,,,1,1,3.9,,,,,,,,,0,0,0,0,0,2,2,10,,,,,,,,,,,,,,,,,,,,,,,,,,,,,,,,,,,,,,,,,,,,,,,,,,,,,,,,,,,True,True,False,0.18,-0.8200000000000001,-2.46,13.940000000000001,3.9,-10.040000000000001,-3.0700000000000003,certain,certain,-3.0700000000000003,-6.015000000000001,1933.437708389596,None,1933.437708389596,None,1933.437708389596,None,1933.437708389596,None,1933.437708389596,None,1933.437708389596,None,1933.437708389596,None,3,1.6508532694060705,1933.437708389596,None,1935.1216604867077,None,1935.1216604867077,None,1935.1216604867077,None,1935.1216604867077,None,1935.1216604867077,None,1935.1216604867077,None,1935.1216604867077,None,1939.1231976899726,None,1939.1231976899726,None,1939.1231976899726,None,1939.1231976899726,None,1939.1231976899726,None,1939.1231976899726,None,1939.1231976899726,None,1948.6101807397754,None,1940.1069146628179,None,1941.1073546408552,None,0.18,7.50284337805715,1944.1084361868634,None,None,1944.1084361868634,None,,,,,,,,,,,,,,,,,,,23520,2019_Dec_13_1403,Mmi_3levels,3.1.5,59.9422664917764,
,,,1,1,0.7,,,,,,,,,0,0,0,0,0,3,3,26,,,,,,,,,,,,,,,,,,,,,,,,,,,,,,,,,,,,,,,,,,,,,,,,,,,,,,,,,,,True,False,False,0.18,-0.8200000000000001,-3.2800000000000002,-3.1433333333333335,0.7,-2.4433333333333334,-0.8716666666666667,certain,certain,-0.8716666666666667,-6.886666666666668,1950.6276205091854,None,1950.6276205091854,None,1950.6276205091854,None,1950.6276205091854,None,1950.6276205091854,None,1950.6276205091854,None,1950.6276205091854,None,3,0.8839401937038929,1950.6276205091854,None,1951.544668170165,None,1951.544668170165,None,1951.544668170165,None,1951.544668170165,None,1951.544668170165,None,1951.544668170165,None,1951.544668170165,None,1955.5462872893368,None,1955.5462872893368,None,1955.5462872893368,None,1955.5462872893368,None,1955.5462872893368,None,1955.5462872893368,None,1955.5462872893368,None,1956.5298829882413,None,,,,,,,,,,,,,,,,,,,,,,,,,,,,,,23520,2019_Dec_13_1403,Mmi_3levels,3.1.5,59.9422664917764,
,,,1,1,8.5,,,,,,,,,0,0,0,0,0,4,4,20,,,,,,,,,,,,,,,,,,,,,,,,,,,,,,,,,,,,,,,,,,,,,,,,,,,,,,,,,,,True,False,False,0.18,-0.8200000000000001,-4.1000000000000005,-3.211666666666667,8.5,5.288333333333333,2.6441666666666666,gamble,lose,5.288333333333333,-1.5983333333333345,1958.547370755252,None,1958.547370755252,None,1958.547370755252,None,1958.547370755252,None,1958.547370755252,None,1958.547370755252,None,1958.547370755252,None,1,1.0339637445285916,1958.547370755252,None,1959.614396209341,None,1959.614396209341,None,1959.614396209341,None,1959.614396209341,None,1959.614396209341,None,1959.614396209341,None,1959.614396209341,None,1963.599279843951,None,1963.599279843951,None,1963.599279843951,None,1963.599279843951,None,1963.599279843951,None,1963.599279843951,None,1963.599279843951,None,1973.1029343815135,None,1964.5996177470806,None,1965.600057725118,None,0.17,7.502621949115564,1968.6011741493858,None,None,1968.6011741493858,None,,,,,,,,,,,,,,,,,,,23520,2019_Dec_13_1403,Mmi_3levels,3.1.5,59.9422664917764,
,,,1,1,4.5,,,,,,,,,0,0,0,0,0,5,5,1,,,,,,,,,,,,,,,,,,,,,,,,,,,,,,,,,,,,,,,,,,,,,,,,,,,,,,,,,,,True,True,True,0.17,-0.83,-4.930000000000001,16.55,4.5,-12.05,-3.7750000000000004,certain,certain,-3.7750000000000004,-5.373333333333335,1975.120409989133,None,1975.120409989133,None,1975.120409989133,None,1975.120409989133,None,1975.120409989133,None,1975.120409989133,None,1975.120409989133,None,3,1.2340292772605608,1975.120409989133,None,1976.3875342542888,None,1976.3875342542888,None,1976.3875342542888,None,1976.3875342542888,None,1976.3875342542888,None,1976.3875342542888,None,1976.3875342542888,None,1980.3891044159063,None,1980.3891044159063,None,1980.3891044159063,None,1980.3891044159063,None,1980.3891044159063,None,1980.3891044159063,None,1980.3891044159063,None,1981.3727871504634,None,,,,,,,,,,,,,,,,,,,,,,,,,,,,,,23520,2019_Dec_13_1403,Mmi_3levels,3.1.5,59.9422664917764,
,,,1,1,3.3,,,,,,,,,0,0,0,0,0,6,6,15,,,,,,,,,,,,,,,,,,,,,,,,,,,,,,,,,,,,,,,,,,,,,,,,,,,,,,,,,,,True,True,False,0.17,-0.83,-5.760000000000001,17.38,3.3,-14.079999999999998,-5.389999999999999,certain,certain,-5.389999999999999,-10.763333333333334,1983.3902310796657,None,1983.3902310796657,None,1983.3902310796657,None,1983.3902310796657,None,1983.3902310796657,None,1983.3902310796657,None,1983.3902310796657,None,3,0.9839662404046976,1983.3902310796657,None,1984.4072439903794,None,1984.4072439903794,None,1984.4072439903794,None,1984.4072439903794,None,1984.4072439903794,None,1984.4072439903794,None,1984.4072439903794,None,1988.4088205516782,None,1988.4088205516782,None,1988.4088205516782,None,1988.4088205516782,None,1988.4088205516782,None,1988.4088205516782,None,1988.4088205516782,None,1989.3925410443517,None,,,,,,,,,,,,,,,,,,,,,,,,,,,,,,23520,2019_Dec_13_1403,Mmi_3levels,3.1.5,59.9422664917764,
,,,1,1,7.9,,,,,,,,,0,0,0,0,0,7,7,22,,,,,,,,,,,,,,,,,,,,,,,,,,,,,,,,,,,,,,,,,,,,,,,,,,,,,,,,,,,True,True,True,0.17,-0.83,-6.590000000000001,18.21,7.9,-10.31,-1.205,gamble,win,7.9,-2.8633333333333333,1991.4099651345387,None,1991.4099651345387,None,1991.4099651345387,None,1991.4099651345387,None,1991.4099651345387,None,1991.4099651345387,None,1991.4099651345387,None,1,1.1673958036008116,1991.4099651345387,None,1992.6104220077323,None,1992.6104220077323,None,1992.6104220077323,None,1992.6104220077323,None,1992.6104220077323,None,1992.6104220077323,None,1992.6104220077323,None,1996.6119860896542,None,1996.6119860896542,None,1996.6119860896542,None,1996.6119860896542,None,1996.6119860896542,None,1996.6119860896542,None,1996.6119860896542,None,2006.115643827059,None,1997.5957024225354,None,1998.596032326066,None,0.19,7.5194268702107365,2001.597318981836,None,None,2001.597318981836,None,,,,,,,,,,,,,,,,,,,23520,2019_Dec_13_1403,Mmi_3levels,3.1.5,59.9422664917764,
,,,1,1,12.3,,,,,,,,,0,0,0,0,0,8,8,19,,,,,,,,,,,,,,,,,,,,,,,,,,,,,,,,,,,,,,,,,,,,,,,,,,,,,,,,,,,True,False,False,0.19,-0.81,-7.4,-3.4516666666666667,12.3,8.848333333333334,4.424166666666667,gamble,lose,8.848333333333334,5.985000000000001,2008.1331783117384,None,2008.1331783117384,None,2008.1331783117384,None,2008.1331783117384,None,2008.1331783117384,None,2008.1331783117384,None,2008.1331783117384,None,1,1.1005616999609629,2008.1331783117384,None,2009.2668266800101,None,2009.2668266800101,None,2009.2668266800101,None,2009.2668266800101,None,2009.2668266800101,None,2009.2668266800101,None,2009.2668266800101,None,2013.2684848372373,None,2013.2684848372373,None,2013.2684848372373,None,2013.2684848372373,None,2013.2684848372373,None,2013.2684848372373,None,2013.2684848372373,None,2014.252074136457,None,,,,,,,,,,,,,,,,,,,,,,,,,,,,,,23520,2019_Dec_13_1403,Mmi_3levels,3.1.5,59.9422664917764,
,,,1,1,4.1,,,,,,,,,0,0,0,0,0,9,9,21,,,,,,,,,,,,,,,,,,,,,,,,,,,,,,,,,,,,,,,,,,,,,,,,,,,,,,,,,,,True,True,False,0.19,-0.81,-8.21,19.55,4.1,-15.450000000000001,-5.675000000000001,certain,certain,-5.675000000000001,0.3100000000000005,2016.269572142959,None,2016.269572142959,None,2016.269572142959,None,2016.269572142959,None,2016.269572142959,None,2016.269572142959,None,2016.269572142959,None,3,1.417458200488909,2016.269572142959,None,2017.7200978127184,None,2017.7200978127184,None,2017.7200978127184,None,2017.7200978127184,None,2017.7200978127184,None,2017.7200978127184,None,2017.7200978127184,None,2021.7216330960764,None,2021.7216330960764,None,2021.7216330960764,None,2021.7216330960764,None,2021.7216330960764,None,2021.7216330960764,None,2021.7216330960764,None,2031.2086219055927,None,2022.7053455891473,None,2023.705711330891,None,0.19,7.502758262307907,2026.7068725529207,None,None,2026.7068725529207,None,,,,,,,,,,,,,,,,,,,23520,2019_Dec_13_1403,Mmi_3levels,3.1.5,59.9422664917764,
,,,1,1,-0.7,,,,,,,,,0,0,0,0,0,10,10,4,,,,,,,,,,,,,,,,,,,,,,,,,,,,,,,,,,,,,,,,,,,,,,,,,,,,,,,,,,,True,False,False,0.19,-0.81,-9.020000000000001,-3.586666666666667,-0.7,-4.286666666666667,-2.4933333333333336,certain,certain,-2.4933333333333336,-2.183333333333333,2033.2260655148093,None,2033.2260655148093,None,2033.2260655148093,None,2033.2260655148093,None,2033.2260655148093,None,2033.2260655148093,None,2033.2260655148093,None,3,1.3007894645925262,2033.2260655148093,None,2034.5599134891163,None,2034.5599134891163,None,2034.5599134891163,None,2034.5599134891163,None,2034.5599134891163,None,2034.5599134891163,None,2034.5599134891163,None,2038.56145869198,None,2038.56145869198,None,2038.56145869198,None,2038.56145869198,None,2038.56145869198,None,2038.56145869198,None,2038.56145869198,None,2039.5451148678658,None,,,,,,,,,,,,,,,,,,,,,,,,,,,,,,23520,2019_Dec_13_1403,Mmi_3levels,3.1.5,59.9422664917764,
,,,1,1,1.9,,,,,,,,,0,0,0,0,0,11,11,17,,,,,,,,,,,,,,,,,,,,,,,,,,,,,,,,,,,,,,,,,,,,,,,,,,,,,,,,,,,True,True,False,0.19,-0.81,-9.830000000000002,21.17,1.9,-19.270000000000003,-8.685000000000002,certain,certain,-8.685000000000002,-10.868333333333336,2041.5626263136946,None,2041.5626263136946,None,2041.5626263136946,None,2041.5626263136946,None,2041.5626263136946,None,2041.5626263136946,None,2041.5626263136946,None,3,1.2838840685071773,2041.5626263136946,None,2042.879773681696,None,2042.879773681696,None,2042.879773681696,None,2042.879773681696,None,2042.879773681696,None,2042.879773681696,None,2042.879773681696,None,2046.8813144047854,None,2046.8813144047854,None,2046.8813144047854,None,2046.8813144047854,None,2046.8813144047854,None,2046.8813144047854,None,2046.8813144047854,None,2056.3682523368443,None,2047.8649846599656,None,2048.8654118386403,None,0.06,7.502733943521889,2051.8665298628293,None,None,2051.8665298628293,None,,,,,,,,,,,,,,,,,,,23520,2019_Dec_13_1403,Mmi_3levels,3.1.5,59.9422664917764,
,,,1,1,-1.3,,,,,,,,,0,0,0,0,0,12,12,16,,,,,,,,,,,,,,,,,,,,,,,,,,,,,,,,,,,,,,,,,,,,,,,,,,,,,,,,,,,True,True,False,0.06,-0.94,-10.770000000000001,23.93,-1.3,-25.23,-13.265,certain,certain,-13.265,-24.133333333333336,2058.3857407438227,None,2058.3857407438227,None,2058.3857407438227,None,2058.3857407438227,None,2058.3857407438227,None,2058.3857407438227,None,2058.3857407438227,None,3,0.9006174411770189,2058.3857407438227,None,2059.3193866162183,None,2059.3193866162183,None,2059.3193866162183,None,2059.3193866162183,None,2059.3193866162183,None,2059.3193866162183,None,2059.3193866162183,None,2063.320973097023,None,2063.320973097023,None,2063.320973097023,None,2063.320973097023,None,2063.320973097023,None,2063.320973097023,None,2063.320973097023,None,2064.3046884699506,None,,,,,,,,,,,,,,,,,,,,,,,,,,,,,,23520,2019_Dec_13_1403,Mmi_3levels,3.1.5,59.9422664917764,
,,,1,1,13.5,,,,,,,,,0,0,0,0,0,13,13,12,,,,,,,,,,,,,,,,,,,,,,,,,,,,,,,,,,,,,,,,,,,,,,,,,,,,,,,,,,,True,False,True,0.06,-0.94,-11.71,-4.265833333333333,13.5,9.234166666666667,4.617083333333333,gamble,lose,9.234166666666667,-14.89916666666667,2066.3221826366425,None,2066.3221826366425,None,2066.3221826366425,None,2066.3221826366425,None,2066.3221826366425,None,2066.3221826366425,None,2066.3221826366425,None,1,1.000652767412248,2066.3221826366425,None,2067.3558510359144,None,2067.3558510359144,None,2067.3558510359144,None,2067.3558510359144,None,2067.3558510359144,None,2067.3558510359144,None,2067.3558510359144,None,2071.3407215511797,None,2071.3407215511797,None,2071.3407215511797,None,2071.3407215511797,None,2071.3407215511797,None,2071.3407215511797,None,2071.3407215511797,None,2072.341116091484,None,,,,,,,,,,,,,,,,,,,,,,,,,,,,,,23520,2019_Dec_13_1403,Mmi_3levels,3.1.5,59.9422664917764,
,,,1,1,13.1,,,,,,,,,0,0,0,0,0,14,14,14,,,,,,,,,,,,,,,,,,,,,,,,,,,,,,,,,,,,,,,,,,,,,,,,,,,,,,,,,,,True,True,False,0.06,-0.94,-12.65,25.810000000000002,13.1,-12.710000000000003,0.1949999999999985,gamble,win,13.1,-1.79916666666667,2074.358597458813,None,2074.358597458813,None,2074.358597458813,None,2074.358597458813,None,2074.358597458813,None,2074.358597458813,None,2074.358597458813,None,1,1.417382364270452,2074.358597458813,None,2075.809088250313,None,2075.809088250313,None,2075.809088250313,None,2075.809088250313,None,2075.809088250313,None,2075.809088250313,None,2075.809088250313,None,2079.793955565736,None,2079.793955565736,None,2079.793955565736,None,2079.793955565736,None,2079.793955565736,None,2079.793955565736,None,2079.793955565736,None,2089.3142902306317,None,2080.794342746409,None,2081.794742086473,None,0.12,7.519419190593908,2084.795871630089,None,None,2084.795871630089,None,,,,,,,,,,,,,,,,,,,23520,2019_Dec_13_1403,Mmi_3levels,3.1.5,59.9422664917764,
,,,1,1,4.3,,,,,,,,,0,0,0,0,0,15,15,25,,,,,,,,,,,,,,,,,,,,,,,,,,,,,,,,,,,,,,,,,,,,,,,,,,,,,,,,,,,True,False,False,0.12,-0.88,-13.530000000000001,-4.2075000000000005,4.3,0.09249999999999936,0.04624999999999968,gamble,lose,0.09249999999999936,-1.7066666666666706,2091.331747279175,None,2091.331747279175,None,2091.331747279175,None,2091.331747279175,None,2091.331747279175,None,2091.331747279175,None,2091.331747279175,None,1,0.9673193914131843,2091.331747279175,None,2092.332164538344,None,2092.332164538344,None,2092.332164538344,None,2092.332164538344,None,2092.332164538344,None,2092.332164538344,None,2092.332164538344,None,2096.3336707031594,None,2096.3336707031594,None,2096.3336707031594,None,2096.3336707031594,None,2096.3336707031594,None,2096.3336707031594,None,2096.3336707031594,None,2097.3173614373154,None,,,,,,,,,,,,,,,,,,,,,,,,,,,,,,23520,2019_Dec_13_1403,Mmi_3levels,3.1.5,59.9422664917764,
,,,1,1,9.1,,,,,,,,,0,0,0,0,0,16,16,24,,,,,,,,,,,,,,,,,,,,,,,,,,,,,,,,,,,,,,,,,,,,,,,,,,,,,,,,,,,True,True,False,0.12,-0.88,-14.410000000000002,26.730000000000004,9.1,-17.630000000000003,-4.2650000000000015,gamble,win,9.1,7.393333333333329,2099.3348069664353,None,2099.3348069664353,None,2099.3348069664353,None,2099.3348069664353,None,2099.3348069664353,None,2099.3348069664353,None,2099.3348069664353,None,1,1.1506779181581805,2099.3348069664353,None,2100.5186073911173,None,2100.5186073911173,None,2100.5186073911173,None,2100.5186073911173,None,2100.5186073911173,None,2100.5186073911173,None,2100.5186073911173,None,2104.520160273598,None,2104.520160273598,None,2104.520160273598,None,2104.520160273598,None,2104.520160273598,None,2104.520160273598,None,2104.520160273598,None,2114.0071628424303,None,2105.5038708467655,None,2106.5042119497375,None,0.26,7.502759542243439,2109.5053904509077,None,None,2109.5053904509077,None,,,,,,,,,,,,,,,,,,,23520,2019_Dec_13_1403,Mmi_3levels,3.1.5,59.9422664917764,
,,,1,1,6.9,,,,,,,,,0,0,0,0,0,17,17,0,,,,,,,,,,,,,,,,,,,,,,,,,,,,,,,,,,,,,,,,,,,,,,,,,,,,,,,,,,,True,True,True,0.26,-0.74,-15.150000000000002,25.51,6.9,-18.61,-5.8549999999999995,certain,certain,-5.8549999999999995,1.5383333333333296,2116.0246122113567,None,2116.0246122113567,None,2116.0246122113567,None,2116.0246122113567,None,2116.0246122113567,None,2116.0246122113567,None,2116.0246122113567,None,3,1.1506846378251794,2116.0246122113567,None,2117.2083739179725,None,2117.2083739179725,None,2117.2083739179725,None,2117.2083739179725,None,2117.2083739179725,None,2117.2083739179725,None,2117.2083739179725,None,2121.209907921395,None,2121.209907921395,None,2121.209907921395,None,2121.209907921395,None,2121.209907921395,None,2121.209907921395,None,2121.209907921395,None,2122.1935759366897,None,,,,,,,,,,,,,,,,,,,,,,,,,,,,,,23520,2019_Dec_13_1403,Mmi_3levels,3.1.5,59.9422664917764,
,,,1,1,8.1,,,,,,,,,0,0,0,0,0,18,18,2,,,,,,,,,,,,,,,,,,,,,,,,,,,,,,,,,,,,,,,,,,,,,,,,,,,,,,,,,,,True,True,True,0.26,-0.74,-15.890000000000002,26.25,8.1,-18.15,-5.0249999999999995,certain,certain,-5.0249999999999995,-3.48666666666667,2124.2110438646887,None,2124.2110438646887,None,2124.2110438646887,None,2124.2110438646887,None,2124.2110438646887,None,2124.2110438646887,None,2124.2110438646887,None,3,0.800586594719789,2124.2110438646887,None,2125.0447155278016,None,2125.0447155278016,None,2125.0447155278016,None,2125.0447155278016,None,2125.0447155278016,None,2125.0447155278016,None,2125.0447155278016,None,2129.046249531224,None,2129.046249531224,None,2129.046249531224,None,2129.046249531224,None,2129.046249531224,None,2129.046249531224,None,2129.046249531224,None,2130.029972263783,None,,,,,,,,,,,,,,,,,,,,,,,,,,,,,,23520,2019_Dec_13_1403,Mmi_3levels,3.1.5,59.9422664917764,
,,,1,1,9.5,,,,,,,,,0,0,0,0,0,19,19,11,,,,,,,,,,,,,,,,,,,,,,,,,,,,,,,,,,,,,,,,,,,,,,,,,,,,,,,,,,,True,True,True,0.26,-0.74,-16.630000000000003,26.990000000000002,9.5,-17.490000000000002,-3.995000000000001,certain,certain,-3.995000000000001,-7.481666666666671,2132.0474129931426,None,2132.0474129931426,None,2132.0474129931426,None,2132.0474129931426,None,2132.0474129931426,None,2132.0474129931426,None,2132.0474129931426,None,3,1.6508721484606212,2132.0474129931426,None,2133.7313481310994,None,2133.7313481310994,None,2133.7313481310994,None,2133.7313481310994,None,2133.7313481310994,None,2133.7313481310994,None,2133.7313481310994,None,2137.7329144529103,None,2137.7329144529103,None,2137.7329144529103,None,2137.7329144529103,None,2137.7329144529103,None,2137.7329144529103,None,2137.7329144529103,None,2147.2365881895166,None,2138.7166215062534,None,2139.7170090069085,None,0.08,7.519511665977916,2142.7181715088773,None,None,2142.7181715088773,None,,,,,,,,,,,,,,,,,,,23520,2019_Dec_13_1403,Mmi_3levels,3.1.5,59.9422664917764,
,,,1,1,8.3,,,,,,,,,0,0,0,0,0,20,20,23,,,,,,,,,,,,,,,,,,,,,,,,,,,,,,,,,,,,,,,,,,,,,,,,,,,,,,,,,,,True,True,False,0.08,-0.92,-17.550000000000004,30.430000000000007,8.3,-22.130000000000006,-6.915000000000003,certain,certain,-6.915000000000003,-14.396666666666674,2149.2540314787475,None,2149.2540314787475,None,2149.2540314787475,None,2149.2540314787475,None,2149.2540314787475,None,2149.2540314787475,None,2149.2540314787475,None,3,1.3840819466277026,2149.2540314787475,None,2150.67121833278,None,2150.67121833278,None,2150.67121833278,None,2150.67121833278,None,2150.67121833278,None,2150.67121833278,None,2150.67121833278,None,2154.6727609757727,None,2154.6727609757727,None,2154.6727609757727,None,2154.6727609757727,None,2154.6727609757727,None,2154.6727609757727,None,2154.6727609757727,None,2155.656491707934,None,,,,,,,,,,,,,,,,,,,,,,,,,,,,,,23520,2019_Dec_13_1403,Mmi_3levels,3.1.5,59.9422664917764,
,,,1,1,-0.5,,,,,,,,,0,0,0,0,0,21,21,7,,,,,,,,,,,,,,,,,,,,,,,,,,,,,,,,,,,,,,,,,,,,,,,,,,,,,,,,,,,True,True,False,0.08,-0.92,-18.470000000000006,31.35000000000001,-0.5,-31.85000000000001,-16.175000000000004,certain,certain,-16.175000000000004,-30.57166666666668,2157.673932117308,None,2157.673932117308,None,2157.673932117308,None,2157.673932117308,None,2157.673932117308,None,2157.673932117308,None,2157.673932117308,None,3,1.5175972015495063,2157.673932117308,None,2159.2245132722965,None,2159.2245132722965,None,2159.2245132722965,None,2159.2245132722965,None,2159.2245132722965,None,2159.2245132722965,None,2159.2245132722965,None,2163.2260453558156,None,2163.2260453558156,None,2163.2260453558156,None,2163.2260453558156,None,2163.2260453558156,None,2163.2260453558156,None,2163.2260453558156,None,2172.713029365572,None,2164.2097773679125,None,2165.210171268249,None,0.0,7.502780661186989,2168.211313291238,None,None,2168.211313291238,None,,,,,,,,,,,,,,,,,,,23520,2019_Dec_13_1403,Mmi_3levels,3.1.5,59.9422664917764,
,,,1,1,13.7,,,,,,,,,0,0,0,0,0,22,22,18,,,,,,,,,,,,,,,,,,,,,,,,,,,,,,,,,,,,,,,,,,,,,,,,,,,,,,,,,,,True,True,True,0.0,-1.0,-19.470000000000006,33.470000000000006,13.7,-19.770000000000007,-3.0350000000000037,gamble,win,13.7,-16.87166666666668,2174.730490893893,None,2174.730490893893,None,2174.730490893893,None,2174.730490893893,None,2174.730490893893,None,2174.730490893893,None,2174.730490893893,None,1,1.4674563445769309,2174.730490893893,None,2176.2310524658606,None,2176.2310524658606,None,2176.2310524658606,None,2176.2310524658606,None,2176.2310524658606,None,2176.2310524658606,None,2176.2310524658606,None,2180.2159313007105,None,2180.2159313007105,None,2180.2159313007105,None,2180.2159313007105,None,2180.2159313007105,None,2180.2159313007105,None,2180.2159313007105,None,2181.216276243489,None,,,,,,,,,,,,,,,,,,,,,,,,,,,,,,23520,2019_Dec_13_1403,Mmi_3levels,3.1.5,59.9422664917764,
,,,1,1,10.3,,,,,,,,,0,0,0,0,0,23,23,8,,,,,,,,,,,,,,,,,,,,,,,,,,,,,,,,,,,,,,,,,,,,,,,,,,,,,,,,,,,True,False,False,0.0,-1.0,-20.470000000000006,-5.2058333333333335,10.3,5.094166666666667,2.5470833333333336,gamble,lose,5.094166666666667,-11.777500000000014,2183.233800168695,None,2183.233800168695,None,2183.233800168695,None,2183.233800168695,None,2183.233800168695,None,2183.233800168695,None,2183.233800168695,None,1,1.0175034462263284,2183.233800168695,None,2184.2841512551677,None,2184.2841512551677,None,2184.2841512551677,None,2184.2841512551677,None,2184.2841512551677,None,2184.2841512551677,None,2184.2841512551677,None,2188.2856846186223,None,2188.2856846186223,None,2188.2856846186223,None,2188.2856846186223,None,2188.2856846186223,None,2188.2856846186223,None,2188.2856846186223,None,2197.772642709675,None,2189.2694204705294,None,2190.2698338898917,None,0.21,7.502699065262277,2193.2709167158355,None,None,2193.2709167158355,None,,,,,,,,,,,,,,,,,,,23520,2019_Dec_13_1403,Mmi_3levels,3.1.5,59.9422664917764,
,,,1,1,11.5,,,,,,,,,0,0,0,0,0,24,24,5,,,,,,,,,,,,,,,,,,,,,,,,,,,,,,,,,,,,,,,,,,,,,,,,,,,,,,,,,,,True,False,False,0.21,-0.79,-21.260000000000005,-4.536666666666667,11.5,6.963333333333333,3.4816666666666665,gamble,lose,6.963333333333333,-4.814166666666681,2199.7901333565424,None,2199.7901333565424,None,2199.7901333565424,None,2199.7901333565424,None,2199.7901333565424,None,2199.7901333565424,None,2199.7901333565424,None,1,1.2007336593742366,2199.7901333565424,None,2201.023953364249,None,2201.023953364249,None,2201.023953364249,None,2201.023953364249,None,2201.023953364249,None,2201.023953364249,None,2201.023953364249,None,2205.008803400535,None,2205.008803400535,None,2205.008803400535,None,2205.008803400535,None,2205.008803400535,None,2205.008803400535,None,2205.008803400535,None,2206.009192821093,None,,,,,,,,,,,,,,,,,,,,,,,,,,,,,,23520,2019_Dec_13_1403,Mmi_3levels,3.1.5,59.9422664917764,
,,,1,1,6.1,,,,,,,,,0,0,0,0,0,25,25,13,,,,,,,,,,,,,,,,,,,,,,,,,,,,,,,,,,,,,,,,,,,,,,,,,,,,,,,,,,,True,True,False,0.21,-0.79,-22.050000000000004,33.11000000000001,6.1,-27.010000000000005,-10.455000000000002,certain,certain,-10.455000000000002,-15.269166666666683,2208.0266319505317,None,2208.0266319505317,None,2208.0266319505317,None,2208.0266319505317,None,2208.0266319505317,None,2208.0266319505317,None,2208.0266319505317,None,3,1.0506790701001592,2208.0266319505317,None,2209.110417527958,None,2209.110417527958,None,2209.110417527958,None,2209.110417527958,None,2209.110417527958,None,2209.110417527958,None,2209.110417527958,None,2213.111920812913,None,2213.111920812913,None,2213.111920812913,None,2213.111920812913,None,2213.111920812913,None,2213.111920812913,None,2213.111920812913,None,2214.0956406656187,None,,,,,,,,,,,,,,,,,,,,,,,,,,,,,,23520,2019_Dec_13_1403,Mmi_3levels,3.1.5,59.9422664917764,
,,,1,1,12.1,,,,,,,,,0,0,0,0,0,26,26,3,,,,,,,,,,,,,,,,,,,,,,,,,,,,,,,,,,,,,,,,,,,,,,,,,,,,,,,,,,,True,True,True,0.21,-0.79,-22.840000000000003,33.900000000000006,12.1,-21.800000000000004,-4.850000000000002,certain,certain,-4.850000000000002,-20.119166666666686,2216.1130596360636,None,2216.1130596360636,None,2216.1130596360636,None,2216.1130596360636,None,2216.1130596360636,None,2216.1130596360636,None,2216.1130596360636,None,3,0.984010398202372,2216.1130596360636,None,2217.1302162196043,None,2217.1302162196043,None,2217.1302162196043,None,2217.1302162196043,None,2217.1302162196043,None,2217.1302162196043,None,2217.1302162196043,None,2221.131671186973,None,2221.131671186973,None,2221.131671186973,None,2221.131671186973,None,2221.131671186973,None,2221.131671186973,None,2221.131671186973,None,2230.618635997689,None,2222.1153862399187,None,2223.1157711807027,None,0.03,7.502739063267654,2226.1169103238353,None,None,2226.1169103238353,None,,,,,,,,,,,,,,,,,,,23520,2019_Dec_13_1403,Mmi_3levels,3.1.5,59.9422664917764,
,,,2,0,12.5,,,,,,,,,0,1,1,1,0,0,0,19,,,,,,,,,,,,,,,,,,,,,,,,,,,,,,,,,,,,,,,,,,,,,,,,2236.654314216634,None,0.12,7.501728553710564,2239.672161645689,None,None,2239.672161645689,None,2244.157247190218,None,False,True,True,0.12,0.12,0.12,-1.7999999999999998,12.5,10.7,5.35,gamble,lose,10.7,-9.419166666666687,2247.191745628057,None,2247.191745628057,None,2247.191745628057,None,2247.191745628057,None,2247.191745628057,None,2247.191745628057,None,2247.191745628057,None,1,1.0506198730545293,2247.191745628057,None,2248.2754480096337,None,2248.2754480096337,None,2248.2754480096337,None,2248.2754480096337,None,2248.2754480096337,None,2248.2754480096337,None,2248.2754480096337,None,2252.2770223310436,None,2252.2770223310436,None,2252.2770223310436,None,2252.2770223310436,None,2252.2770223310436,None,2252.2770223310436,None,2252.2770223310436,None,2253.2606833066893,None,,,,,,,,,,,,2232.6194529169115,None,4,4.0183946017423295,2232.6194529169115,None,,,,,,,,,,,,,23520,2019_Dec_13_1403,Mmi_3levels,3.1.5,59.9422664917764,
,,,2,0,1.1,,,,,,,,,0,1,1,1,0,1,1,10,,,,,,,,,,,,,,,,,,,,,,,,,,,,,,,,,,,,,,,,,,,,,,,,,,,,,,,,,,,False,True,False,0.12,0.12,0.24,-1.92,1.1,-0.8199999999999998,0.14000000000000012,gamble,lose,-0.8199999999999998,-10.239166666666687,2255.27816147418,None,2255.27816147418,None,2255.27816147418,None,2255.27816147418,None,2255.27816147418,None,2255.27816147418,None,2255.27816147418,None,1,1.0506483516364824,2255.27816147418,None,2256.361984169751,None,2256.361984169751,None,2256.361984169751,None,2256.361984169751,None,2256.361984169751,None,2256.361984169751,None,2256.361984169751,None,2260.3467910081927,None,2260.3467910081927,None,2260.3467910081927,None,2260.3467910081927,None,2260.3467910081927,None,2260.3467910081927,None,2260.3467910081927,None,2269.8504170671804,None,2261.347145550495,None,2262.347526011501,None,0.0,7.5028075398477085,2265.3486677145083,None,None,2265.3486677145083,None,,,,,,,,,,,,,,,,,,,23520,2019_Dec_13_1403,Mmi_3levels,3.1.5,59.9422664917764,
,,,2,0,5.1,,,,,,,,,0,1,1,1,0,2,2,8,,,,,,,,,,,,,,,,,,,,,,,,,,,,,,,,,,,,,,,,,,,,,,,,,,,,,,,,,,,False,True,False,0.0,0.0,0.24,-0.24,5.1,4.859999999999999,2.4299999999999997,gamble,lose,4.859999999999999,-5.379166666666688,2271.8678350776718,None,2271.8678350776718,None,2271.8678350776718,None,2271.8678350776718,None,2271.8678350776718,None,2271.8678350776718,None,2271.8678350776718,None,1,0.9339668163738679,2271.8678350776718,None,2272.8348917622025,None,2272.8348917622025,None,2272.8348917622025,None,2272.8348917622025,None,2272.8348917622025,None,2272.8348917622025,None,2272.8348917622025,None,2276.819797795695,None,2276.819797795695,None,2276.819797795695,None,2276.819797795695,None,2276.819797795695,None,2276.819797795695,None,2276.819797795695,None,2277.8201308990647,None,,,,,,,,,,,,,,,,,,,,,,,,,,,,,,23520,2019_Dec_13_1403,Mmi_3levels,3.1.5,59.9422664917764,
,,,2,0,11.9,,,,,,,,,0,1,1,1,0,3,3,1,,,,,,,,,,,,,,,,,,,,,,,,,,,,,,,,,,,,,,,,,,,,,,,,,,,,,,,,,,,False,False,True,0.0,0.0,0.24,0.03,2.975,2.9450000000000003,1.4725000000000001,gamble,win,2.975,-2.4041666666666877,2279.837621545932,None,2279.837621545932,None,2279.837621545932,None,2279.837621545932,None,2279.837621545932,None,2279.837621545932,None,2279.837621545932,None,1,1.1173186234555033,2279.837621545932,None,2280.988038997093,None,2280.988038997093,None,2280.988038997093,None,2280.988038997093,None,2280.988038997093,None,2280.988038997093,None,2280.988038997093,None,2284.972915592054,None,2284.972915592054,None,2284.972915592054,None,2284.972915592054,None,2284.972915592054,None,2284.972915592054,None,2284.972915592054,None,2294.4765528504795,None,2285.973237815968,None,2286.9736915533176,None,0.08,7.5027662619068,2289.9748463756696,None,None,2289.9748463756696,None,,,,,,,,,,,,,,,,,,,23520,2019_Dec_13_1403,Mmi_3levels,3.1.5,59.9422664917764,
,,,2,0,8.1,,,,,,,,,0,1,1,1,0,4,4,9,,,,,,,,,,,,,,,,,,,,,,,,,,,,,,,,,,,,,,,,,,,,,,,,,,,,,,,,,,,False,True,True,0.08,0.08,0.32,-1.4400000000000002,8.1,6.659999999999999,3.3299999999999996,gamble,lose,6.659999999999999,4.255833333333312,2296.493999019567,None,2296.493999019567,None,2296.493999019567,None,2296.493999019567,None,2296.493999019567,None,2296.493999019567,None,2296.493999019567,None,1,1.0173216953007795,2296.493999019567,None,2297.544397783662,None,2297.544397783662,None,2297.544397783662,None,2297.544397783662,None,2297.544397783662,None,2297.544397783662,None,2297.544397783662,None,2301.5292395003635,None,2301.5292395003635,None,2301.5292395003635,None,2301.5292395003635,None,2301.5292395003635,None,2301.5292395003635,None,2301.5292395003635,None,2302.529637560492,None,,,,,,,,,,,,,,,,,,,,,,,,,,,,,,23520,2019_Dec_13_1403,Mmi_3levels,3.1.5,59.9422664917764,
,,,2,0,13.9,,,,,,,,,0,1,1,1,0,5,5,12,,,,,,,,,,,,,,,,,,,,,,,,,,,,,,,,,,,,,,,,,,,,,,,,,,,,,,,,,,,False,True,False,0.08,0.08,0.4,-1.52,13.9,12.38,6.19,gamble,lose,12.38,16.635833333333313,2304.5470504512414,None,2304.5470504512414,None,2304.5470504512414,None,2304.5470504512414,None,2304.5470504512414,None,2304.5470504512414,None,2304.5470504512414,None,1,1.1007220119572594,2304.5470504512414,None,2305.680859131513,None,2305.680859131513,None,2305.680859131513,None,2305.680859131513,None,2305.680859131513,None,2305.680859131513,None,2305.680859131513,None,2309.682356016787,None,2309.682356016787,None,2309.682356016787,None,2309.682356016787,None,2309.682356016787,None,2309.682356016787,None,2309.682356016787,None,2310.666145945994,None,,,,,,,,,,,,,,,,,,,,,,,,,,,,,,23520,2019_Dec_13_1403,Mmi_3levels,3.1.5,59.9422664917764,
,,,2,0,-1.5,,,,,,,,,0,1,1,1,0,6,6,7,,,,,,,,,,,,,,,,,,,,,,,,,,,,,,,,,,,,,,,,,,,,,,,,,,,,,,,,,,,False,True,True,0.08,0.08,0.48000000000000004,-1.6,-1.5,-3.1,-2.3,certain,certain,-2.3,14.335833333333312,2312.683554356965,None,2312.683554356965,None,2312.683554356965,None,2312.683554356965,None,2312.683554356965,None,2312.683554356965,None,2312.683554356965,None,3,1.3841129850807192,2312.683554356965,None,2314.100747610679,None,2314.100747610679,None,2314.100747610679,None,2314.100747610679,None,2314.100747610679,None,2314.100747610679,None,2314.100747610679,None,2318.0857314002897,None,2318.0857314002897,None,2318.0857314002897,None,2318.0857314002897,None,2318.0857314002897,None,2318.0857314002897,None,2318.0857314002897,None,2327.5893184212255,None,2319.0860171460226,None,2320.086398886968,None,0.0,7.502684665982088,2323.087624745771,None,None,2323.087624745771,None,,,,,,,,,,,,,,,,,,,23520,2019_Dec_13_1403,Mmi_3levels,3.1.5,59.9422664917764,
,,,2,0,0.9,,,,,,,,,0,1,1,1,0,7,7,20,,,,,,,,,,,,,,,,,,,,,,,,,,,,,,,,,,,,,,,,,,,,,,,,,,,,,,,,,,,False,False,False,0.0,0.0,0.48000000000000004,0.04,0.225,0.185,0.20500000000000002,gamble,win,0.225,14.560833333333312,2329.606727152179,None,2329.606727152179,None,2329.606727152179,None,2329.606727152179,None,2329.606727152179,None,2329.606727152179,None,2329.606727152179,None,1,0.8172401633710251,2329.606727152179,None,2330.4570869422205,None,2330.4570869422205,None,2330.4570869422205,None,2330.4570869422205,None,2330.4570869422205,None,2330.4570869422205,None,2330.4570869422205,None,2334.4586324650663,None,2334.4586324650663,None,2334.4586324650663,None,2334.4586324650663,None,2334.4586324650663,None,2334.4586324650663,None,2334.4586324650663,None,2335.4422876809986,None,,,,,,,,,,,,,,,,,,,,,,,,,,,,,,23520,2019_Dec_13_1403,Mmi_3levels,3.1.5,59.9422664917764,
,,,2,0,9.3,,,,,,,,,0,1,1,1,0,8,8,14,,,,,,,,,,,,,,,,,,,,,,,,,,,,,,,,,,,,,,,,,,,,,,,,,,,,,,,,,,,False,True,False,0.0,0.0,0.48000000000000004,-0.48000000000000004,9.3,8.82,4.41,gamble,lose,8.82,23.380833333333314,2337.459753689094,None,2337.459753689094,None,2337.459753689094,None,2337.459753689094,None,2337.459753689094,None,2337.459753689094,None,2337.459753689094,None,1,1.000646687716653,2337.459753689094,None,2338.493460806436,None,2338.493460806436,None,2338.493460806436,None,2338.493460806436,None,2338.493460806436,None,2338.493460806436,None,2338.493460806436,None,2342.4783412412035,None,2342.4783412412035,None,2342.4783412412035,None,2342.4783412412035,None,2342.4783412412035,None,2342.4783412412035,None,2342.4783412412035,None,2351.982083774379,None,2343.478728741862,None,2344.47909512357,None,0.06,7.5028132995612395,2347.4803120228244,None,None,2347.4803120228244,None,,,,,,,,,,,,,,,,,,,23520,2019_Dec_13_1403,Mmi_3levels,3.1.5,59.9422664917764,
,,,2,0,-0.7,,,,,,,,,0,1,1,1,0,9,9,24,,,,,,,,,,,,,,,,,,,,,,,,,,,,,,,,,,,,,,,,,,,,,,,,,,,,,,,,,,,False,False,False,0.06,0.06,0.54,0.255,-0.175,-0.43,-0.3025,certain,certain,-0.3025,23.078333333333315,2353.9994675465787,None,2353.9994675465787,None,2353.9994675465787,None,2353.9994675465787,None,2353.9994675465787,None,2353.9994675465787,None,2353.9994675465787,None,3,1.0337765538752137,2353.9994675465787,None,2355.0665397183366,None,2355.0665397183366,None,2355.0665397183366,None,2355.0665397183366,None,2355.0665397183366,None,2355.0665397183366,None,2355.0665397183366,None,2359.0680919608494,None,2359.0680919608494,None,2359.0680919608494,None,2359.0680919608494,None,2359.0680919608494,None,2359.0680919608494,None,2359.0680919608494,None,2360.0517670157897,None,,,,,,,,,,,,,,,,,,,,,,,,,,,,,,23520,2019_Dec_13_1403,Mmi_3levels,3.1.5,59.9422664917764,
,,,2,0,5.9,,,,,,,,,0,1,1,1,0,10,10,23,,,,,,,,,,,,,,,,,,,,,,,,,,,,,,,,,,,,,,,,,,,,,,,,,,,,,,,,,,,False,True,False,0.06,0.06,0.6000000000000001,-1.44,5.9,4.460000000000001,2.2300000000000004,gamble,lose,4.460000000000001,27.538333333333316,2362.0691978256436,None,2362.0691978256436,None,2362.0691978256436,None,2362.0691978256436,None,2362.0691978256436,None,2362.0691978256436,None,2362.0691978256436,None,1,1.1340477083394944,2362.0691978256436,None,2363.2363309223583,None,2363.2363309223583,None,2363.2363309223583,None,2363.2363309223583,None,2363.2363309223583,None,2363.2363309223583,None,2363.2363309223583,None,2367.2378700455265,None,2367.2378700455265,None,2367.2378700455265,None,2367.2378700455265,None,2367.2378700455265,None,2367.2378700455265,None,2367.2378700455265,None,2368.221583178569,None,,,,,,,,,,,,,,,,,,,,,,,,,,,,,,23520,2019_Dec_13_1403,Mmi_3levels,3.1.5,59.9422664917764,
,,,2,0,-1.1,,,,,,,,,0,1,1,1,0,11,11,25,,,,,,,,,,,,,,,,,,,,,,,,,,,,,,,,,,,,,,,,,,,,,,,,,,,,,,,,,,,False,False,True,0.06,0.06,0.6600000000000001,0.265,-0.275,-0.54,-0.40750000000000003,certain,certain,-0.40750000000000003,27.130833333333317,2370.2390223080074,None,2370.2390223080074,None,2370.2390223080074,None,2370.2390223080074,None,2370.2390223080074,None,2370.2390223080074,None,2370.2390223080074,None,3,1.4507922164521005,2370.2390223080074,None,2371.7229191118786,None,2371.7229191118786,None,2371.7229191118786,None,2371.7229191118786,None,2371.7229191118786,None,2371.7229191118786,None,2371.7229191118786,None,2375.724465594678,None,2375.724465594678,None,2375.724465594678,None,2375.724465594678,None,2375.724465594678,None,2375.724465594678,None,2375.724465594678,None,2385.21144992442,None,2376.7081787277166,None,2377.7085732680207,None,0.04,7.502758582293609,2380.7096941720665,None,None,2380.7096941720665,None,,,,,,,,,,,,,,,,,,,23520,2019_Dec_13_1403,Mmi_3levels,3.1.5,59.9422664917764,
,,,2,0,13.3,,,,,,,,,0,1,1,1,0,12,12,5,,,,,,,,,,,,,,,,,,,,,,,,,,,,,,,,,,,,,,,,,,,,,,,,,,,,,,,,,,,False,True,False,0.04,0.04,0.7000000000000002,-1.2600000000000002,13.3,12.040000000000001,6.0200000000000005,gamble,lose,12.040000000000001,39.17083333333332,2387.228904733074,None,2387.228904733074,None,2387.228904733074,None,2387.228904733074,None,2387.228904733074,None,2387.228904733074,None,2387.228904733074,None,1,1.6175227732637723,2387.228904733074,None,2388.879522814219,None,2388.879522814219,None,2388.879522814219,None,2388.879522814219,None,2388.879522814219,None,2388.879522814219,None,2388.879522814219,None,2392.8643920495488,None,2392.8643920495488,None,2392.8643920495488,None,2392.8643920495488,None,2392.8643920495488,None,2392.8643920495488,None,2392.8643920495488,None,2393.864774110476,None,,,,,,,,,,,,,,,,,,,,,,,,,,,,,,23520,2019_Dec_13_1403,Mmi_3levels,3.1.5,59.9422664917764,
,,,2,0,10.7,,,,,,,,,0,1,1,1,0,13,13,21,,,,,,,,,,,,,,,,,,,,,,,,,,,,,,,,,,,,,,,,,,,,,,,,,,,,,,,,,,,False,False,False,0.04,0.04,0.7400000000000002,0.2016666666666667,2.675,2.473333333333333,1.2366666666666666,gamble,win,2.675,41.84583333333332,2395.8822183596603,None,2395.8822183596603,None,2395.8822183596603,None,2395.8822183596603,None,2395.8822183596603,None,2395.8822183596603,None,2395.8822183596603,None,1,1.234074714990129,2395.8822183596603,None,2397.149375263187,None,2397.149375263187,None,2397.149375263187,None,2397.149375263187,None,2397.149375263187,None,2397.149375263187,None,2397.149375263187,None,2401.1509134264015,None,2401.1509134264015,None,2401.1509134264015,None,2401.1509134264015,None,2401.1509134264015,None,2401.1509134264015,None,2401.1509134264015,None,2410.637906395714,None,2402.1346275193937,None,2403.134999980801,None,0.5,7.502838898282789,2406.1361791219388,None,None,2406.1361791219388,None,,,,,,,,,,,,,,,,,,,23520,2019_Dec_13_1403,Mmi_3levels,3.1.5,59.9422664917764,
,,,2,0,1.3,,,,,,,,,0,1,1,1,0,14,14,4,,,,,,,,,,,,,,,,,,,,,,,,,,,,,,,,,,,,,,,,,,,,,,,,,,,,,,,,,,,False,True,True,0.5,0.5,1.2400000000000002,-8.24,1.3,-6.94,-2.8200000000000003,certain,certain,-2.8200000000000003,39.02583333333332,2412.655361524354,None,2412.655361524354,None,2412.655361524354,None,2412.655361524354,None,2412.655361524354,None,2412.655361524354,None,2412.655361524354,None,3,1.1340067503806495,2412.655361524354,None,2413.822476061996,None,2413.822476061996,None,2413.822476061996,None,2413.822476061996,None,2413.822476061996,None,2413.822476061996,None,2413.822476061996,None,2417.8239982260093,None,2417.8239982260093,None,2417.8239982260093,None,2417.8239982260093,None,2417.8239982260093,None,2417.8239982260093,None,2417.8239982260093,None,2418.807677120756,None,,,,,,,,,,,,,,,,,,,,,,,,,,,,,,23520,2019_Dec_13_1403,Mmi_3levels,3.1.5,59.9422664917764,
,,,2,0,12.3,,,,,,,,,0,1,1,1,0,15,15,17,,,,,,,,,,,,,,,,,,,,,,,,,,,,,,,,,,,,,,,,,,,,,,,,,,,,,,,,,,,False,True,False,0.5,0.5,1.7400000000000002,-8.74,12.3,3.5600000000000005,1.7800000000000002,gamble,lose,3.5600000000000005,42.58583333333332,2420.82520072598,None,2420.82520072598,None,2420.82520072598,None,2420.82520072598,None,2420.82520072598,None,2420.82520072598,None,2420.82520072598,None,1,0.9339207386765338,2420.82520072598,None,2421.7922231722187,None,2421.7922231722187,None,2421.7922231722187,None,2421.7922231722187,None,2421.7922231722187,None,2421.7922231722187,None,2421.7922231722187,None,2425.777026170854,None,2425.777026170854,None,2425.777026170854,None,2425.777026170854,None,2425.777026170854,None,2425.777026170854,None,2425.777026170854,None,2435.280712386837,None,2426.7774143114766,None,2427.777817491351,None,0.01,7.5027669018782035,2430.7789783933986,None,None,2430.7789783933986,None,,,,,,,,,,,,,,,,,,,23520,2019_Dec_13_1403,Mmi_3levels,3.1.5,59.9422664917764,
,,,2,0,10.5,,,,,,,,,0,1,1,1,0,16,16,15,,,,,,,,,,,,,,,,,,,,,,,,,,,,,,,,,,,,,,,,,,,,,,,,,,,,,,,,,,,False,False,False,0.01,0.01,1.7500000000000002,0.18083333333333335,2.625,2.444166666666667,1.2220833333333334,gamble,win,2.625,45.21083333333332,2437.2981467165155,None,2437.2981467165155,None,2437.2981467165155,None,2437.2981467165155,None,2437.2981467165155,None,2437.2981467165155,None,2437.2981467165155,None,1,1.0006556472690136,2437.2981467165155,None,2438.331929990054,None,2438.331929990054,None,2438.331929990054,None,2438.331929990054,None,2438.331929990054,None,2438.331929990054,None,2438.331929990054,None,2442.3167765065155,None,2442.3167765065155,None,2442.3167765065155,None,2442.3167765065155,None,2442.3167765065155,None,2442.3167765065155,None,2442.3167765065155,None,2443.3171604873496,None,,,,,,,,,,,,,,,,,,,,,,,,,,,,,,23520,2019_Dec_13_1403,Mmi_3levels,3.1.5,59.9422664917764,
,,,2,0,0.7,,,,,,,,,0,1,1,1,0,17,17,22,,,,,,,,,,,,,,,,,,,,,,,,,,,,,,,,,,,,,,,,,,,,,,,,,,,,,,,,,,,False,True,False,0.01,0.01,1.7600000000000002,-1.9000000000000004,0.7,-1.2000000000000004,-0.2500000000000002,certain,certain,-0.2500000000000002,44.96083333333332,2445.334571458192,None,2445.334571458192,None,2445.334571458192,None,2445.334571458192,None,2445.334571458192,None,2445.334571458192,None,2445.334571458192,None,3,1.917696908571088,2445.334571458192,None,2447.285303197663,None,2447.285303197663,None,2447.285303197663,None,2447.285303197663,None,2447.285303197663,None,2447.285303197663,None,2447.285303197663,None,2451.2868567201112,None,2451.2868567201112,None,2451.2868567201112,None,2451.2868567201112,None,2451.2868567201112,None,2451.2868567201112,None,2451.2868567201112,None,2452.270574332928,None,,,,,,,,,,,,,,,,,,,,,,,,,,,,,,23520,2019_Dec_13_1403,Mmi_3levels,3.1.5,59.9422664917764,
,,,2,0,3.7,,,,,,,,,0,1,1,1,0,18,18,18,,,,,,,,,,,,,,,,,,,,,,,,,,,,,,,,,,,,,,,,,,,,,,,,,,,,,,,,,,,False,True,False,0.01,0.01,1.7700000000000002,-1.9100000000000001,3.7,1.79,0.895,gamble,lose,1.79,46.75083333333332,2454.28807329938,None,2454.28807329938,None,2454.28807329938,None,2454.28807329938,None,2454.28807329938,None,2454.28807329938,None,2454.28807329938,None,1,1.0839618886238895,2454.28807329938,None,2455.405115456637,None,2455.405115456637,None,2455.405115456637,None,2455.405115456637,None,2455.405115456637,None,2455.405115456637,None,2455.405115456637,None,2459.389979892203,None,2459.389979892203,None,2459.389979892203,None,2459.389979892203,None,2459.389979892203,None,2459.389979892203,None,2459.389979892203,None,2468.893619710503,None,2460.3903446739932,None,2461.390746893914,None,0.13,7.502905134973844,2464.391887316986,None,None,2464.391887316986,None,,,,,,,,,,,,,,,,,,,23520,2019_Dec_13_1403,Mmi_3levels,3.1.5,59.9422664917764,
,,,2,0,8.9,,,,,,,,,0,1,1,1,0,19,19,16,,,,,,,,,,,,,,,,,,,,,,,,,,,,,,,,,,,,,,,,,,,,,,,,,,,,,,,,,,,False,True,True,0.13,0.13,1.9000000000000004,-3.7200000000000006,8.9,5.18,2.59,gamble,lose,5.18,51.93083333333332,2470.9110716393043,None,2470.9110716393043,None,2470.9110716393043,None,2470.9110716393043,None,2470.9110716393043,None,2470.9110716393043,None,2470.9110716393043,None,1,1.3007942643525894,2470.9110716393043,None,2472.244917693708,None,2472.244917693708,None,2472.244917693708,None,2472.244917693708,None,2472.244917693708,None,2472.244917693708,None,2472.244917693708,None,2476.2298150876304,None,2476.2298150876304,None,2476.2298150876304,None,2476.2298150876304,None,2476.2298150876304,None,2476.2298150876304,None,2476.2298150876304,None,2477.2302557056355,None,,,,,,,,,,,,,,,,,,,,,,,,,,,,,,23520,2019_Dec_13_1403,Mmi_3levels,3.1.5,59.9422664917764,
,,,2,0,13.5,,,,,,,,,0,1,1,1,0,20,20,6,,,,,,,,,,,,,,,,,,,,,,,,,,,,,,,,,,,,,,,,,,,,,,,,,,,,,,,,,,,False,False,False,0.13,0.13,2.0300000000000002,0.6241666666666668,3.375,2.7508333333333335,1.3754166666666667,gamble,win,3.375,55.30583333333332,2479.2476129191637,None,2479.2476129191637,None,2479.2476129191637,None,2479.2476129191637,None,2479.2476129191637,None,2479.2476129191637,None,2479.2476129191637,None,None,,2479.2476129191637,None,2482.248726783557,None,2482.248726783557,None,2482.248726783557,None,2482.248726783557,None,2482.248726783557,None,2482.248726783557,None,2482.248726783557,None,2486.233632497064,None,2486.233632497064,None,2486.233632497064,None,2486.233632497064,None,2486.233632497064,None,2486.233632497064,None,2486.233632497064,None,2495.7373148732404,None,2487.234022237608,None,2488.234404618521,None,0.0,7.502787060868286,2491.235548881399,None,None,2491.235548881399,None,,,,,,,,,,,,,,,,,,,23520,2019_Dec_13_1403,Mmi_3levels,3.1.5,59.9422664917764,
,,,2,0,7.3,,,,,,,,,0,1,1,1,0,21,21,2,,,,,,,,,,,,,,,,,,,,,,,,,,,,,,,,,,,,,,,,,,,,,,,,,,,,,,,,,,,False,True,False,0.0,0.0,2.0300000000000002,-2.0300000000000002,7.3,5.27,2.635,gamble,lose,5.27,60.57583333333332,2497.754749202919,None,2497.754749202919,None,2497.754749202919,None,2497.754749202919,None,2497.754749202919,None,2497.754749202919,None,2497.754749202919,None,1,1.2173805083621119,2497.754749202919,None,2499.0052099799177,None,2499.0052099799177,None,2499.0052099799177,None,2499.0052099799177,None,2499.0052099799177,None,2499.0052099799177,None,2499.0052099799177,None,2502.9900795352296,None,2502.9900795352296,None,2502.9900795352296,None,2502.9900795352296,None,2502.9900795352296,None,2502.9900795352296,None,2502.9900795352296,None,2503.990468955788,None,,,,,,,,,,,,,,,,,,,,,,,,,,,,,,23520,2019_Dec_13_1403,Mmi_3levels,3.1.5,59.9422664917764,
,,,2,0,10.9,,,,,,,,,0,1,1,1,0,22,22,11,,,,,,,,,,,,,,,,,,,,,,,,,,,,,,,,,,,,,,,,,,,,,,,,,,,,,,,,,,,False,False,False,0.0,0.0,2.0300000000000002,0.1691666666666667,2.725,2.555833333333333,1.2779166666666666,gamble,win,2.725,63.30083333333332,2506.0079292041737,None,2506.0079292041737,None,2506.0079292041737,None,2506.0079292041737,None,2506.0079292041737,None,2506.0079292041737,None,2506.0079292041737,None,1,0.8672392674125149,2506.0079292041737,None,2506.908253539983,None,2506.908253539983,None,2506.908253539983,None,2506.908253539983,None,2506.908253539983,None,2506.908253539983,None,2506.908253539983,None,2510.8931195754703,None,2510.8931195754703,None,2510.8931195754703,None,2510.8931195754703,None,2510.8931195754703,None,2510.8931195754703,None,2510.8931195754703,None,2520.4134727994388,None,2511.893531714897,None,2512.8938916969273,None,0.19,7.519471347990475,2515.89503084006,None,None,2515.89503084006,None,,,,,,,,,,,,,,,,,,,23520,2019_Dec_13_1403,Mmi_3levels,3.1.5,59.9422664917764,
,,,2,0,-0.5,,,,,,,,,0,1,1,1,0,23,23,0,,,,,,,,,,,,,,,,,,,,,,,,,,,,,,,,,,,,,,,,,,,,,,,,,,,,,,,,,,,False,True,False,0.19,0.19,2.22,-4.880000000000001,-0.5,-5.380000000000001,-2.9400000000000004,certain,certain,-2.9400000000000004,60.360833333333325,2522.430922808333,None,2522.430922808333,None,2522.430922808333,None,2522.430922808333,None,2522.430922808333,None,2522.430922808333,None,2522.430922808333,None,3,1.0173760925827082,2522.430922808333,None,2523.4812726148702,None,2523.4812726148702,None,2523.4812726148702,None,2523.4812726148702,None,2523.4812726148702,None,2523.4812726148702,None,2523.4812726148702,None,2527.4829115730536,None,2527.4829115730536,None,2527.4829115730536,None,2527.4829115730536,None,2527.4829115730536,None,2527.4829115730536,None,2527.4829115730536,None,2528.46654726996,None,,,,,,,,,,,,,,,,,,,,,,,,,,,,,,23520,2019_Dec_13_1403,Mmi_3levels,3.1.5,59.9422664917764,
,,,2,0,2.9,,,,,,,,,0,1,1,1,0,24,24,26,,,,,,,,,,,,,,,,,,,,,,,,,,,,,,,,,,,,,,,,,,,,,,,,,,,,,,,,,,,False,False,False,0.19,0.19,2.41,0.8658333333333333,0.725,-0.14083333333333337,0.2920833333333333,certain,certain,0.2920833333333333,60.652916666666655,2530.48394352154,None,2530.48394352154,None,2530.48394352154,None,2530.48394352154,None,2530.48394352154,None,2530.48394352154,None,2530.48394352154,None,3,1.0174964065772656,2530.48394352154,None,2531.534350285234,None,2531.534350285234,None,2531.534350285234,None,2531.534350285234,None,2531.534350285234,None,2531.534350285234,None,2531.534350285234,None,2535.5359700443732,None,2535.5359700443732,None,2535.5359700443732,None,2535.5359700443732,None,2535.5359700443732,None,2535.5359700443732,None,2535.5359700443732,None,2536.5196198205776,None,,,,,,,,,,,,,,,,,,,,,,,,,,,,,,23520,2019_Dec_13_1403,Mmi_3levels,3.1.5,59.9422664917764,
,,,2,0,9.9,,,,,,,,,0,1,1,1,0,25,25,13,,,,,,,,,,,,,,,,,,,,,,,,,,,,,,,,,,,,,,,,,,,,,,,,,,,,,,,,,,,False,True,True,0.19,0.19,2.6,-5.26,9.9,4.640000000000001,2.3200000000000003,certain,certain,2.3200000000000003,62.972916666666656,2538.5370797489777,None,2538.5370797489777,None,2538.5370797489777,None,2538.5370797489777,None,2538.5370797489777,None,2538.5370797489777,None,2538.5370797489777,None,3,1.1173691809308366,2538.5370797489777,None,2539.6874786410663,None,2539.6874786410663,None,2539.6874786410663,None,2539.6874786410663,None,2539.6874786410663,None,2539.6874786410663,None,2539.6874786410663,None,2543.689058402204,None,2543.689058402204,None,2543.689058402204,None,2543.689058402204,None,2543.689058402204,None,2543.689058402204,None,2543.689058402204,None,2553.1760388921393,None,2544.672769935325,None,2545.673193914161,None,0.02,7.502810419704474,2548.674300418923,None,None,2548.674300418923,None,,,,,,,,,,,,,,,,,,,23520,2019_Dec_13_1403,Mmi_3levels,3.1.5,59.9422664917764,
,,,2,0,1.7,,,,,,,,,0,1,1,1,0,26,26,3,,,,,,,,,,,,,,,,,,,,,,,,,,,,,,,,,,,,,,,,,,,,,,,,,,,,,,,,,,,False,True,True,0.02,0.02,2.62,-2.9000000000000004,1.7,-1.2000000000000004,0.24999999999999978,certain,certain,0.24999999999999978,63.222916666666656,2555.1934933808116,None,2555.1934933808116,None,2555.1934933808116,None,2555.1934933808116,None,2555.1934933808116,None,2555.1934933808116,None,2555.1934933808116,None,3,1.4008225509387557,2555.1934933808116,None,2556.6273722015794,None,2556.6273722015794,None,2556.6273722015794,None,2556.6273722015794,None,2556.6273722015794,None,2556.6273722015794,None,2556.6273722015794,None,2560.6122356771957,None,2560.6122356771957,None,2560.6122356771957,None,2560.6122356771957,None,2560.6122356771957,None,2560.6122356771957,None,2560.6122356771957,None,2561.6126023788893,None,,,,,,,,,,,,,,,,,,,,,,,,,,,,,,23520,2019_Dec_13_1403,Mmi_3levels,3.1.5,59.9422664917764,
,,,3,1,12.5,,,,,,,,,0,2,2,2,0,0,0,16,,,,,,,,,,,,,,,,,,,,,,,,,,,,,,,,,,,,,,,,,,,,,,,,2568.848741310834,None,0.05,7.502099415196426,2571.8498759741924,None,None,2571.8498759741924,None,2576.3516051678707,None,True,True,True,0.05,-0.95,-0.95,14.249999999999998,12.5,-1.7499999999999982,-0.8749999999999991,certain,certain,-0.8749999999999991,62.347916666666656,2579.386130804349,None,2579.386130804349,None,2579.386130804349,None,2579.386130804349,None,2579.386130804349,None,2579.386130804349,None,2579.386130804349,None,3,1.0339487052806362,2579.386130804349,None,2580.4531815371774,None,2580.4531815371774,None,2580.4531815371774,None,2580.4531815371774,None,2580.4531815371774,None,2580.4531815371774,None,2580.4531815371774,None,2584.454744659146,None,2584.454744659146,None,2584.454744659146,None,2584.454744659146,None,2584.454744659146,None,2584.454744659146,None,2584.454744659146,None,2593.941721949239,None,2585.4384577921883,None,2586.4388404930833,None,0.5,7.502684665982088,2589.439981236137,None,None,2589.439981236137,None,2563.613387619691,None,4,5.218862354387966,2563.613387619691,None,,,,,,,,,,,,,23520,2019_Dec_13_1403,Mmi_3levels,3.1.5,59.9422664917764,
,,,3,1,4.5,,,,,,,,,0,2,2,2,0,1,1,6,,,,,,,,,,,,,,,,,,,,,,,,,,,,,,,,,,,,,,,,,,,,,,,,,,,,,,,,,,,True,False,True,0.5,-0.5,-1.45,-1.8708333333333333,4.5,2.6291666666666664,1.3145833333333332,gamble,lose,2.6291666666666664,64.97708333333333,2595.9591901972235,None,2595.9591901972235,None,2595.9591901972235,None,2595.9591901972235,None,2595.9591901972235,None,2595.9591901972235,None,2595.9591901972235,None,1,0.9005384051233705,2595.9591901972235,None,2596.892840869383,None,2596.892840869383,None,2596.892840869383,None,2596.892840869383,None,2596.892840869383,None,2596.892840869383,None,2596.892840869383,None,2600.8777203442005,None,2600.8777203442005,None,2600.8777203442005,None,2600.8777203442005,None,2600.8777203442005,None,2600.8777203442005,None,2600.8777203442005,None,2601.878109444777,None,,,,,,,,,,,,,,,,,,,,,,,,,,,,,,23520,2019_Dec_13_1403,Mmi_3levels,3.1.5,59.9422664917764,
,,,3,1,2.1,,,,,,,,,0,2,2,2,0,2,2,5,,,,,,,,,,,,,,,,,,,,,,,,,,,,,,,,,,,,,,,,,,,,,,,,,,,,,,,,,,,True,True,True,0.5,-0.5,-1.95,8.95,2.1,-6.85,-2.375,certain,certain,-2.375,62.602083333333326,2603.895570973098,None,2603.895570973098,None,2603.895570973098,None,2603.895570973098,None,2603.895570973098,None,2603.895570973098,None,2603.895570973098,None,3,1.2674848871538416,2603.895570973098,None,2605.1960545329566,None,2605.1960545329566,None,2605.1960545329566,None,2605.1960545329566,None,2605.1960545329566,None,2605.1960545329566,None,2605.1960545329566,None,2609.1975661374963,None,2609.1975661374963,None,2609.1975661374963,None,2609.1975661374963,None,2609.1975661374963,None,2609.1975661374963,None,2609.1975661374963,None,2610.181283430331,None,,,,,,,,,,,,,,,,,,,,,,,,,,,,,,23520,2019_Dec_13_1403,Mmi_3levels,3.1.5,59.9422664917764,
,,,3,1,10.1,,,,,,,,,0,2,2,2,0,3,3,11,,,,,,,,,,,,,,,,,,,,,,,,,,,,,,,,,,,,,,,,,,,,,,,,,,,,,,,,,,,True,True,False,0.5,-0.5,-2.45,9.45,10.1,0.6500000000000004,0.3250000000000002,gamble,win,10.1,72.70208333333332,2612.1987519983013,None,2612.1987519983013,None,2612.1987519983013,None,2612.1987519983013,None,2612.1987519983013,None,2612.1987519983013,None,2612.1987519983013,None,1,0.8672536666963424,2612.1987519983013,None,2613.099095853133,None,2613.099095853133,None,2613.099095853133,None,2613.099095853133,None,2613.099095853133,None,2613.099095853133,None,2613.099095853133,None,2617.083952609086,None,2617.083952609086,None,2617.083952609086,None,2617.083952609086,None,2617.083952609086,None,2617.083952609086,None,2617.083952609086,None,2626.604265515063,None,2618.084354189039,None,2619.084731450206,None,0.41,7.519460468534817,2622.0858661135644,None,None,2622.0858661135644,None,,,,,,,,,,,,,,,,,,,23520,2019_Dec_13_1403,Mmi_3levels,3.1.5,59.9422664917764,
,,,3,1,-1.3,,,,,,,,,0,2,2,2,0,4,4,7,,,,,,,,,,,,,,,,,,,,,,,,,,,,,,,,,,,,,,,,,,,,,,,,,,,,,,,,,,,True,True,True,0.41,-0.5900000000000001,-3.04,11.3,-1.3,-12.600000000000001,-6.950000000000001,certain,certain,-6.950000000000001,65.75208333333332,2628.621746882396,None,2628.621746882396,None,2628.621746882396,None,2628.621746882396,None,2628.621746882396,None,2628.621746882396,None,2628.621746882396,None,3,1.017383132235409,2628.621746882396,None,2629.672131887175,None,2629.672131887175,None,2629.672131887175,None,2629.672131887175,None,2629.672131887175,None,2629.672131887175,None,2629.672131887175,None,2633.6736978890003,None,2633.6736978890003,None,2633.6736978890003,None,2633.6736978890003,None,2633.6736978890003,None,2633.6736978890003,None,2633.6736978890003,None,2634.6573819034966,None,,,,,,,,,,,,,,,,,,,,,,,,,,,,,,23520,2019_Dec_13_1403,Mmi_3levels,3.1.5,59.9422664917764,
,,,3,1,9.9,,,,,,,,,0,2,2,2,0,5,5,24,,,,,,,,,,,,,,,,,,,,,,,,,,,,,,,,,,,,,,,,,,,,,,,,,,,,,,,,,,,True,True,False,0.41,-0.5900000000000001,-3.63,11.89,9.9,-1.9900000000000002,-0.9950000000000001,certain,certain,-0.9950000000000001,64.75708333333331,2636.6748251927274,None,2636.6748251927274,None,2636.6748251927274,None,2636.6748251927274,None,2636.6748251927274,None,2636.6748251927274,None,2636.6748251927274,None,3,1.0339944629959064,2636.6748251927274,None,2637.7418999243564,None,2637.7418999243564,None,2637.7418999243564,None,2637.7418999243564,None,2637.7418999243564,None,2637.7418999243564,None,2637.7418999243564,None,2641.726765639858,None,2641.726765639858,None,2641.726765639858,None,2641.726765639858,None,2641.726765639858,None,2641.726765639858,None,2641.726765639858,None,2651.247075985968,None,2642.7271547404343,None,2643.7275192022425,None,0.2,7.51951326589915,2646.7286845840645,None,None,2646.7286845840645,None,,,,,,,,,,,,,,,,,,,23520,2019_Dec_13_1403,Mmi_3levels,3.1.5,59.9422664917764,
,,,3,1,4.7,,,,,,,,,0,2,2,2,0,6,6,25,,,,,,,,,,,,,,,,,,,,,,,,,,,,,,,,,,,,,,,,,,,,,,,,,,,,,,,,,,,True,True,False,0.2,-0.8,-4.43,15.63,4.7,-10.93,-3.1149999999999998,certain,certain,-3.1149999999999998,61.64208333333331,2653.264613670486,None,2653.264613670486,None,2653.264613670486,None,2653.264613670486,None,2653.264613670486,None,2653.264613670486,None,2653.264613670486,None,3,0.8671640711690998,2653.264613670486,None,2654.164866329873,None,2654.164866329873,None,2654.164866329873,None,2654.164866329873,None,2654.164866329873,None,2654.164866329873,None,2654.164866329873,None,2658.149723085822,None,2658.149723085822,None,2658.149723085822,None,2658.149723085822,None,2658.149723085822,None,2658.149723085822,None,2658.149723085822,None,2659.1501867426778,None,,,,,,,,,,,,,,,,,,,,,,,,,,,,,,23520,2019_Dec_13_1403,Mmi_3levels,3.1.5,59.9422664917764,
,,,3,1,5.5,,,,,,,,,0,2,2,2,0,7,7,3,,,,,,,,,,,,,,,,,,,,,,,,,,,,,,,,,,,,,,,,,,,,,,,,,,,,,,,,,,,True,False,False,0.2,-0.8,-5.2299999999999995,-3.235833333333334,5.5,2.264166666666666,1.132083333333333,gamble,lose,2.264166666666666,63.90624999999998,2661.1675340367,None,2661.1675340367,None,2661.1675340367,None,2661.1675340367,None,2661.1675340367,None,2661.1675340367,None,2661.1675340367,None,1,1.0673684769644751,2661.1675340367,None,2662.267998461517,None,2662.267998461517,None,2662.267998461517,None,2662.267998461517,None,2662.267998461517,None,2662.267998461517,None,2662.267998461517,None,2666.2528401782183,None,2666.2528401782183,None,2666.2528401782183,None,2666.2528401782183,None,2666.2528401782183,None,2666.2528401782183,None,2666.2528401782183,None,2675.77320012185,None,2667.253345113011,None,2668.253666696957,None,0.37,7.519470068054943,2671.254778001483,None,None,2671.254778001483,None,,,,,,,,,,,,,,,,,,,23520,2019_Dec_13_1403,Mmi_3levels,3.1.5,59.9422664917764,
,,,3,1,9.5,,,,,,,,,0,2,2,2,0,8,8,0,,,,,,,,,,,,,,,,,,,,,,,,,,,,,,,,,,,,,,,,,,,,,,,,,,,,,,,,,,,True,True,False,0.37,-0.63,-5.859999999999999,14.68,9.5,-5.18,-2.59,certain,certain,-2.59,61.31624999999998,2677.790668689817,None,2677.790668689817,None,2677.790668689817,None,2677.790668689817,None,2677.790668689817,None,2677.790668689817,None,2677.790668689817,None,3,0.6338326790719293,2677.790668689817,None,2678.457614915864,None,2678.457614915864,None,2678.457614915864,None,2678.457614915864,None,2678.457614915864,None,2678.457614915864,None,2678.457614915864,None,2682.459095481954,None,2682.459095481954,None,2682.459095481954,None,2682.459095481954,None,2682.459095481954,None,2682.459095481954,None,2682.459095481954,None,2683.4427948556804,None,,,,,,,,,,,,,,,,,,,,,,,,,,,,,,23520,2019_Dec_13_1403,Mmi_3levels,3.1.5,59.9422664917764,
,,,3,1,7.5,,,,,,,,,0,2,2,2,0,9,9,8,,,,,,,,,,,,,,,,,,,,,,,,,,,,,,,,,,,,,,,,,,,,,,,,,,,,,,,,,,,True,True,True,0.37,-0.63,-6.489999999999999,15.309999999999999,7.5,-7.809999999999999,-0.15499999999999936,certain,certain,-0.15499999999999936,61.16124999999998,2685.4602835826445,None,2685.4602835826445,None,2685.4602835826445,None,2685.4602835826445,None,2685.4602835826445,None,2685.4602835826445,None,2685.4602835826445,None,3,0.9839070433590678,2685.4602835826445,None,2686.477340651156,None,2686.477340651156,None,2686.477340651156,None,2686.477340651156,None,2686.477340651156,None,2686.477340651156,None,2686.477340651156,None,2690.4621817278894,None,2690.4621817278894,None,2690.4621817278894,None,2690.4621817278894,None,2690.4621817278894,None,2690.4621817278894,None,2690.4621817278894,None,2691.462514831259,None,,,,,,,,,,,,,,,,,,,,,,,,,,,,,,23520,2019_Dec_13_1403,Mmi_3levels,3.1.5,59.9422664917764,
,,,3,1,0.1,,,,,,,,,0,2,2,2,0,10,10,1,,,,,,,,,,,,,,,,,,,,,,,,,,,,,,,,,,,,,,,,,,,,,,,,,,,,,,,,,,,True,False,False,0.37,-0.63,-7.119999999999999,-2.7983333333333333,0.1,-2.6983333333333333,-1.2991666666666666,certain,certain,-1.2991666666666666,59.86208333333332,2693.480057635523,None,2693.480057635523,None,2693.480057635523,None,2693.480057635523,None,2693.480057635523,None,2693.480057635523,None,2693.480057635523,None,3,0.9672313958071754,2693.480057635523,None,2694.480389458957,None,2694.480389458957,None,2694.480389458957,None,2694.480389458957,None,2694.480389458957,None,2694.480389458957,None,2694.480389458957,None,2698.465257734333,None,2698.465257734333,None,2698.465257734333,None,2698.465257734333,None,2698.465257734333,None,2698.465257734333,None,2698.465257734333,None,2707.9689135518347,None,2699.465662194143,None,2700.4660026571473,None,0.03,7.502776501394692,2703.4671686789407,None,None,2703.4671686789407,None,,,,,,,,,,,,,,,,,,,23520,2019_Dec_13_1403,Mmi_3levels,3.1.5,59.9422664917764,
,,,3,1,5.9,,,,,,,,,0,2,2,2,0,11,11,20,,,,,,,,,,,,,,,,,,,,,,,,,,,,,,,,,,,,,,,,,,,,,,,,,,,,,,,,,,,True,True,True,0.03,-0.97,-8.09,21.67,5.9,-15.770000000000001,-4.9350000000000005,gamble,win,5.9,65.76208333333332,2709.986333482233,None,2709.986333482233,None,2709.986333482233,None,2709.986333482233,None,2709.986333482233,None,2709.986333482233,None,2709.986333482233,None,1,1.3507728894182947,2709.986333482233,None,2711.370222478494,None,2711.370222478494,None,2711.370222478494,None,2711.370222478494,None,2711.370222478494,None,2711.370222478494,None,2711.370222478494,None,2715.3717532820774,None,2715.3717532820774,None,2715.3717532820774,None,2715.3717532820774,None,2715.3717532820774,None,2715.3717532820774,None,2715.3717532820774,None,2716.355498733501,None,,,,,,,,,,,,,,,,,,,,,,,,,,,,,,23520,2019_Dec_13_1403,Mmi_3levels,3.1.5,59.9422664917764,
,,,3,1,13.7,,,,,,,,,0,2,2,2,0,12,12,2,,,,,,,,,,,,,,,,,,,,,,,,,,,,,,,,,,,,,,,,,,,,,,,,,,,,,,,,,,,True,True,True,0.03,-0.97,-9.06,22.64,13.7,-8.940000000000001,-4.470000000000001,gamble,win,13.7,79.46208333333333,2718.37295514208,None,2718.37295514208,None,2718.37295514208,None,2718.37295514208,None,2718.37295514208,None,2718.37295514208,None,2718.37295514208,None,1,1.4841323121145251,2718.37295514208,None,2719.89016804281,None,2719.89016804281,None,2719.89016804281,None,2719.89016804281,None,2719.89016804281,None,2719.89016804281,None,2719.89016804281,None,2723.891703966139,None,2723.891703966139,None,2723.891703966139,None,2723.891703966139,None,2723.891703966139,None,2723.891703966139,None,2723.891703966139,None,2733.3786700567907,None,2724.8754401380284,None,2725.875797240202,None,0.08,7.502788020821754,2728.876980541132,None,None,2728.876980541132,None,,,,,,,,,,,,,,,,,,,23520,2019_Dec_13_1403,Mmi_3levels,3.1.5,59.9422664917764,
,,,3,1,0.5,,,,,,,,,0,2,2,2,0,13,13,23,,,,,,,,,,,,,,,,,,,,,,,,,,,,,,,,,,,,,,,,,,,,,,,,,,,,,,,,,,,True,False,True,0.08,-0.92,-9.98,-4.051666666666667,0.5,-3.5516666666666667,-1.5258333333333334,certain,certain,-1.5258333333333334,77.93624999999999,2735.3961261453805,None,2735.3961261453805,None,2735.3961261453805,None,2735.3961261453805,None,2735.3961261453805,None,2735.3961261453805,None,2735.3961261453805,None,3,0.9339376978277869,2735.3961261453805,None,2736.3631642708388,None,2736.3631642708388,None,2736.3631642708388,None,2736.3631642708388,None,2736.3631642708388,None,2736.3631642708388,None,2736.3631642708388,None,2740.348030946294,None,2740.348030946294,None,2740.348030946294,None,2740.348030946294,None,2740.348030946294,None,2740.348030946294,None,2740.348030946294,None,2741.3484120472713,None,,,,,,,,,,,,,,,,,,,,,,,,,,,,,,23520,2019_Dec_13_1403,Mmi_3levels,3.1.5,59.9422664917764,
,,,3,1,-0.7,,,,,,,,,0,2,2,2,0,14,14,26,,,,,,,,,,,,,,,,,,,,,,,,,,,,,,,,,,,,,,,,,,,,,,,,,,,,,,,,,,,True,True,False,0.08,-0.92,-10.9,23.78,-0.7,-24.48,-12.59,certain,certain,-12.59,65.34624999999998,2743.365838697333,None,2743.365838697333,None,2743.365838697333,None,2743.365838697333,None,2743.365838697333,None,2743.365838697333,None,2743.365838697333,None,3,1.0338363908886095,2743.365838697333,None,2744.432955346867,None,2744.432955346867,None,2744.432955346867,None,2744.432955346867,None,2744.432955346867,None,2744.432955346867,None,2744.432955346867,None,2748.4344541520477,None,2748.4344541520477,None,2748.4344541520477,None,2748.4344541520477,None,2748.4344541520477,None,2748.4344541520477,None,2748.4344541520477,None,2749.418161205391,None,,,,,,,,,,,,,,,,,,,,,,,,,,,,,,23520,2019_Dec_13_1403,Mmi_3levels,3.1.5,59.9422664917764,
,,,3,1,3.3,,,,,,,,,0,2,2,2,0,15,15,9,,,,,,,,,,,,,,,,,,,,,,,,,,,,,,,,,,,,,,,,,,,,,,,,,,,,,,,,,,,True,True,True,0.08,-0.92,-11.82,24.700000000000003,3.3,-21.400000000000002,-9.05,certain,certain,-9.05,56.296249999999986,2751.435625613569,None,2751.435625613569,None,2751.435625613569,None,2751.435625613569,None,2751.435625613569,None,2751.435625613569,None,2751.435625613569,None,3,2.7347294023056747,2751.435625613569,None,2754.203360088264,None,2754.203360088264,None,2754.203360088264,None,2754.203360088264,None,2754.203360088264,None,2754.203360088264,None,2754.203360088264,None,2758.2049526487644,None,2758.2049526487644,None,2758.2049526487644,None,2758.2049526487644,None,2758.2049526487644,None,2758.2049526487644,None,2758.2049526487644,None,2767.6918809812996,None,2759.1886072247253,None,2760.188948647683,None,0.06,7.5027848209792865,2763.1900849109625,None,None,2763.1900849109625,None,,,,,,,,,,,,,,,,,,,23520,2019_Dec_13_1403,Mmi_3levels,3.1.5,59.9422664917764,
,,,3,1,10.9,,,,,,,,,0,2,2,2,0,16,16,15,,,,,,,,,,,,,,,,,,,,,,,,,,,,,,,,,,,,,,,,,,,,,,,,,,,,,,,,,,,True,False,False,0.06,-0.94,-12.76,-4.3533333333333335,10.9,6.546666666666667,3.2733333333333334,gamble,lose,6.546666666666667,62.84291666666665,2769.709314990996,None,2769.709314990996,None,2769.709314990996,None,2769.709314990996,None,2769.709314990996,None,2769.709314990996,None,2769.709314990996,None,1,0.8839529930664867,2769.709314990996,None,2770.6264269687636,None,2770.6264269687636,None,2770.6264269687636,None,2770.6264269687636,None,2770.6264269687636,None,2770.6264269687636,None,2770.6264269687636,None,2774.6278812961646,None,2774.6278812961646,None,2774.6278812961646,None,2774.6278812961646,None,2774.6278812961646,None,2774.6278812961646,None,2774.6278812961646,None,2775.6115953891567,None,,,,,,,,,,,,,,,,,,,,,,,,,,,,,,23520,2019_Dec_13_1403,Mmi_3levels,3.1.5,59.9422664917764,
,,,3,1,1.5,,,,,,,,,0,2,2,2,0,17,17,14,,,,,,,,,,,,,,,,,,,,,,,,,,,,,,,,,,,,,,,,,,,,,,,,,,,,,,,,,,,True,False,False,0.06,-0.94,-13.7,-4.431666666666667,1.5,-2.9316666666666666,-0.7158333333333333,certain,certain,-0.7158333333333333,62.12708333333332,2777.6290453980546,None,2777.6290453980546,None,2777.6290453980546,None,2777.6290453980546,None,2777.6290453980546,None,2777.6290453980546,None,2777.6290453980546,None,3,1.0339807036834827,2777.6290453980546,None,2778.696106370371,None,2778.696106370371,None,2778.696106370371,None,2778.696106370371,None,2778.696106370371,None,2778.696106370371,None,2778.696106370371,None,2782.697646773471,None,2782.697646773471,None,2782.697646773471,None,2782.697646773471,None,2782.697646773471,None,2782.697646773471,None,2782.697646773471,None,2792.184630783231,None,2783.68135894656,None,2784.681746447215,None,0.1,7.5027726615880965,2787.682889430158,None,None,2787.682889430158,None,,,,,,,,,,,,,,,,,,,23520,2019_Dec_13_1403,Mmi_3levels,3.1.5,59.9422664917764,
,,,3,1,13.5,,,,,,,,,0,2,2,2,0,18,18,21,,,,,,,,,,,,,,,,,,,,,,,,,,,,,,,,,,,,,,,,,,,,,,,,,,,,,,,,,,,True,True,True,0.1,-0.9,-14.6,27.2,13.5,-13.7,-0.09999999999999964,gamble,win,13.5,75.62708333333332,2794.2020775922865,None,2794.2020775922865,None,2794.2020775922865,None,2794.2020775922865,None,2794.2020775922865,None,2794.2020775922865,None,2794.2020775922865,None,None,,2794.2020775922865,None,2797.2032055359778,None,2797.2032055359778,None,2797.2032055359778,None,2797.2032055359778,None,2797.2032055359778,None,2797.2032055359778,None,2797.2032055359778,None,2801.204768977932,None,2801.204768977932,None,2801.204768977932,None,2801.204768977932,None,2801.204768977932,None,2801.204768977932,None,2801.204768977932,None,2802.188454592346,None,,,,,,,,,,,,,,,,,,,,,,,,,,,,,,23520,2019_Dec_13_1403,Mmi_3levels,3.1.5,59.9422664917764,
,,,3,1,0.9,,,,,,,,,0,2,2,2,0,19,19,22,,,,,,,,,,,,,,,,,,,,,,,,,,,,,,,,,,,,,,,,,,,,,,,,,,,,,,,,,,,True,True,False,0.1,-0.9,-15.5,28.1,0.9,-27.200000000000003,-13.150000000000002,certain,certain,-13.150000000000002,62.47708333333331,2804.2059541987655,None,2804.2059541987655,None,2804.2059541987655,None,2804.2059541987655,None,2804.2059541987655,None,2804.2059541987655,None,2804.2059541987655,None,3,1.3507600900557009,2804.2059541987655,None,2805.5897670388295,None,2805.5897670388295,None,2805.5897670388295,None,2805.5897670388295,None,2805.5897670388295,None,2805.5897670388295,None,2805.5897670388295,None,2809.5913221611954,None,2809.5913221611954,None,2809.5913221611954,None,2809.5913221611954,None,2809.5913221611954,None,2809.5913221611954,None,2809.5913221611954,None,2819.0949542998824,None,2810.575034974252,None,2811.5753959162357,None,0.3,7.519518705626979,2814.576545618842,None,None,2814.576545618842,None,,,,,,,,,,,,,,,,,,,23520,2019_Dec_13_1403,Mmi_3levels,3.1.5,59.9422664917764,
,,,3,1,7.9,,,,,,,,,0,2,2,2,0,20,20,4,,,,,,,,,,,,,,,,,,,,,,,,,,,,,,,,,,,,,,,,,,,,,,,,,,,,,,,,,,,True,True,False,0.3,-0.7,-16.2,26.0,7.9,-18.1,-5.1000000000000005,certain,certain,-5.1000000000000005,57.37708333333331,2821.112408468569,None,2821.112408468569,None,2821.112408468569,None,2821.112408468569,None,2821.112408468569,None,2821.112408468569,None,2821.112408468569,None,3,0.8172667220424046,2821.112408468569,None,2821.9628130563724,None,2821.9628130563724,None,2821.9628130563724,None,2821.9628130563724,None,2821.9628130563724,None,2821.9628130563724,None,2821.9628130563724,None,2825.9642888227027,None,2825.9642888227027,None,2825.9642888227027,None,2825.9642888227027,None,2825.9642888227027,None,2825.9642888227027,None,2825.9642888227027,None,2826.948004835598,None,,,,,,,,,,,,,,,,,,,,,,,,,,,,,,23520,2019_Dec_13_1403,Mmi_3levels,3.1.5,59.9422664917764,
,,,3,1,3.1,,,,,,,,,0,2,2,2,0,21,21,12,,,,,,,,,,,,,,,,,,,,,,,,,,,,,,,,,,,,,,,,,,,,,,,,,,,,,,,,,,,True,False,True,0.3,-0.7,-16.9,-3.858333333333333,3.1,-0.7583333333333329,1.1708333333333336,certain,certain,1.1708333333333336,58.547916666666644,2828.9654202862184,None,2828.9654202862184,None,2828.9654202862184,None,2828.9654202862184,None,2828.9654202862184,None,2828.9654202862184,None,2828.9654202862184,None,3,0.967338910439139,2828.9654202862184,None,2829.965798507339,None,2829.965798507339,None,2829.965798507339,None,2829.965798507339,None,2829.965798507339,None,2829.965798507339,None,2829.965798507339,None,2833.950643103897,None,2833.950643103897,None,2833.950643103897,None,2833.950643103897,None,2833.950643103897,None,2833.950643103897,None,2833.950643103897,None,2834.9510763622675,None,,,,,,,,,,,,,,,,,,,,,,,,,,,,,,23520,2019_Dec_13_1403,Mmi_3levels,3.1.5,59.9422664917764,
,,,3,1,7.7,,,,,,,,,0,2,2,2,0,22,22,19,,,,,,,,,,,,,,,,,,,,,,,,,,,,,,,,,,,,,,,,,,,,,,,,,,,,,,,,,,,True,True,True,0.3,-0.7,-17.599999999999998,27.4,7.7,-19.7,-6.0,certain,certain,-6.0,52.547916666666644,2836.9685487700444,None,2836.9685487700444,None,2836.9685487700444,None,2836.9685487700444,None,2836.9685487700444,None,2836.9685487700444,None,2836.9685487700444,None,3,1.7175744186824886,2836.9685487700444,None,2838.719195777747,None,2838.719195777747,None,2838.719195777747,None,2838.719195777747,None,2838.719195777747,None,2838.719195777747,None,2838.719195777747,None,2842.720757299794,None,2842.720757299794,None,2842.720757299794,None,2842.720757299794,None,2842.720757299794,None,2842.720757299794,None,2842.720757299794,None,2852.207669953117,None,2843.7044435541757,None,2844.7048307348487,None,0.05,7.502708984768105,2847.705974997727,None,None,2847.705974997727,None,,,,,,,,,,,,,,,,,,,23520,2019_Dec_13_1403,Mmi_3levels,3.1.5,59.9422664917764,
,,,3,1,9.3,,,,,,,,,0,2,2,2,0,23,23,18,,,,,,,,,,,,,,,,,,,,,,,,,,,,,,,,,,,,,,,,,,,,,,,,,,,,,,,,,,,True,True,False,0.05,-0.95,-18.549999999999997,31.849999999999994,9.3,-22.549999999999994,-6.6249999999999964,certain,certain,-6.6249999999999964,45.92291666666665,2854.225154200303,None,2854.225154200303,None,2854.225154200303,None,2854.225154200303,None,2854.225154200303,None,2854.225154200303,None,2854.225154200303,None,3,0.7505353332744562,2854.225154200303,None,2855.0087742819887,None,2855.0087742819887,None,2855.0087742819887,None,2855.0087742819887,None,2855.0087742819887,None,2855.0087742819887,None,2855.0087742819887,None,2859.0103620427253,None,2859.0103620427253,None,2859.0103620427253,None,2859.0103620427253,None,2859.0103620427253,None,2859.0103620427253,None,2859.0103620427253,None,2859.994048297107,None,,,,,,,,,,,,,,,,,,,,,,,,,,,,,,23520,2019_Dec_13_1403,Mmi_3levels,3.1.5,59.9422664917764,
,,,3,1,13.1,,,,,,,,,0,2,2,2,0,24,24,13,,,,,,,,,,,,,,,,,,,,,,,,,,,,,,,,,,,,,,,,,,,,,,,,,,,,,,,,,,,True,True,False,0.05,-0.95,-19.499999999999996,32.8,13.1,-19.699999999999996,-3.299999999999998,certain,certain,-3.299999999999998,42.622916666666654,2862.0115088654784,None,2862.0115088654784,None,2862.0115088654784,None,2862.0115088654784,None,2862.0115088654784,None,2862.0115088654784,None,2862.0115088654784,None,3,1.0506960292550502,2862.0115088654784,None,2863.0952224464963,None,2863.0952224464963,None,2863.0952224464963,None,2863.0952224464963,None,2863.0952224464963,None,2863.0952224464963,None,2863.0952224464963,None,2867.0800750426533,None,2867.0800750426533,None,2867.0800750426533,None,2867.0800750426533,None,2867.0800750426533,None,2867.0800750426533,None,2867.0800750426533,None,2876.5837609386545,None,2868.080475662653,None,2869.080863483294,None,0.5,7.5028078598334105,2872.082052223952,None,None,2872.082052223952,None,,,,,,,,,,,,,,,,,,,23520,2019_Dec_13_1403,Mmi_3levels,3.1.5,59.9422664917764,
,,,3,1,2.5,,,,,,,,,0,2,2,2,0,25,25,10,,,,,,,,,,,,,,,,,,,,,,,,,,,,,,,,,,,,,,,,,,,,,,,,,,,,,,,,,,,True,True,True,0.5,-0.5,-19.999999999999996,26.999999999999996,2.5,-24.499999999999996,-10.999999999999998,certain,certain,-10.999999999999998,31.622916666666654,2878.6012528654574,None,2878.6012528654574,None,2878.6012528654574,None,2878.6012528654574,None,2878.6012528654574,None,2878.6012528654574,None,2878.6012528654574,None,3,0.4503359192312928,2878.6012528654574,None,2879.0846965719466,None,2879.0846965719466,None,2879.0846965719466,None,2879.0846965719466,None,2879.0846965719466,None,2879.0846965719466,None,2879.0846965719466,None,2883.086244654667,None,2883.086244654667,None,2883.086244654667,None,2883.086244654667,None,2883.086244654667,None,2883.086244654667,None,2883.086244654667,None,2884.0699997056145,None,,,,,,,,,,,,,,,,,,,,,,,,,,,,,,23520,2019_Dec_13_1403,Mmi_3levels,3.1.5,59.9422664917764,
,,,3,1,11.5,,,,,,,,,0,2,2,2,0,26,26,17,,,,,,,,,,,,,,,,,,,,,,,,,,,,,,,,,,,,,,,,,,,,,,,,,,,,,,,,,,,True,False,False,0.5,-0.5,-20.499999999999996,-3.458333333333333,11.5,8.041666666666668,4.020833333333334,certain,certain,4.020833333333334,35.64374999999999,2886.087411316428,None,2886.087411316428,None,2886.087411316428,None,2886.087411316428,None,2886.087411316428,None,2886.087411316428,None,2886.087411316428,None,3,1.300732507432258,2886.087411316428,None,2887.4212586507674,None,2887.4212586507674,None,2887.4212586507674,None,2887.4212586507674,None,2887.4212586507674,None,2887.4212586507674,None,2887.4212586507674,None,2891.4061278860936,None,2891.4061278860936,None,2891.4061278860936,None,2891.4061278860936,None,2891.4061278860936,None,2891.4061278860936,None,2891.4061278860936,None,2900.9097702642684,None,2892.406511546942,None,2893.406888808109,None,0.5,7.5028136195469415,2896.407988273226,None,None,2896.407988273226,None,,,,,,,,,,,,,,,,,,,23520,2019_Dec_13_1403,Mmi_3levels,3.1.5,59.9422664917764,
,,,,,,,,,,,,,,,,,,,,,,,,,,,,,,0,0,0,0,,,,,,,,,,,,,,,,,,,,,,,,,,,,,,,,,,,,,,,,,,,,,,,,,,,,,,,,,,,,,,,,,,,,,,,,,,,,,,,,,,,,,,,,,,,,,,,,,,,,,,,,,,,,,,,,,,,,,,,,2902.9105763040316,None,4,11.77132629539119,2902.9105763040316,None,35.64374999999999,2,2914.715090382688,None,2914.715090382688,None,2914.715090382688,None,4,3.9351709162692714,2914.715090382688,None,23520,2019_Dec_13_1403,Mmi_3levels,3.1.5,59.9422664917764,
