currSlide,currImage,currText,blockNum,targetHappiness,highAmount,instructionLoop1.thisRepN,instructionLoop1.thisTrialN,instructionLoop1.thisN,instructionLoop1.thisIndex,instructionLoop2.thisRepN,instructionLoop2.thisTrialN,instructionLoop2.thisN,instructionLoop2.thisIndex,blockLoop.thisRepN,blockLoop.thisTrialN,blockLoop.thisN,blockLoop.thisIndex,trialLoop.thisRepN,trialLoop.thisTrialN,trialLoop.thisN,trialLoop.thisIndex,doRatingLoop.thisRepN,doRatingLoop.thisTrialN,doRatingLoop.thisN,doRatingLoop.thisIndex,trialHappyLoop.thisRepN,trialHappyLoop.thisTrialN,trialHappyLoop.thisN,trialHappyLoop.thisIndex,logWinningsLoop.thisRepN,logWinningsLoop.thisTrialN,logWinningsLoop.thisN,logWinningsLoop.thisIndex,instrImage.started,instrImage.stopped,instrText.started,instrText.stopped,instrContinueText.started,instrContinueText.stopped,instrKeyResp.keys,instrKeyResp.rt,instrKeyResp.started,instrKeyResp.stopped,lifeHappyText.started,lifeHappyText.stopped,lifeHappySlider.response,lifeHappySlider.rt,lifeHappySlider.started,lifeHappySlider.stopped,lifeHappyResp.keys,lifeHappyResp.started,lifeHappyResp.stopped,instrImage_2.started,instrImage_2.stopped,instrText_2.started,instrText_2.stopped,instrContinueText_2.started,instrContinueText_2.stopped,instrKeyResp_2.keys,instrKeyResp_2.rt,instrKeyResp_2.started,instrKeyResp_2.stopped,localizing.started,localizing.stopped,start_exp.keys,start_exp.rt,start_exp.started,start_exp.stopped,blockHappyText.started,blockHappyText.stopped,blockHappySlider.response,blockHappySlider.rt,blockHappySlider.started,blockHappySlider.stopped,blockHappyResp.keys,blockHappyResp.started,blockHappyResp.stopped,blankText.started,blankText.stopped,isHappyBlock,isCongruent,isWinOnTop,lastHappyRating,diff,sumDiff,RPE,winAmount,loseAmount,certainAmount,choice,outcome,outcomeAmount,currentWinnings,fixCross.started,fixCross.stopped,certainBox.started,certainBox.stopped,outcome1Box.started,outcome1Box.stopped,outcome2Box.started,outcome2Box.stopped,certainText.started,certainText.stopped,outcome1Text.started,outcome1Text.stopped,outcome2Text.started,outcome2Text.stopped,choiceKey.keys,choiceKey.rt,choiceKey.started,choiceKey.stopped,fixCross_2.started,fixCross_2.stopped,certainBox_2.started,certainBox_2.stopped,outcome1Box_2.started,outcome1Box_2.stopped,outcome2Box_2.started,outcome2Box_2.stopped,certainText_2.started,certainText_2.stopped,outcome1Text_2.started,outcome1Text_2.stopped,outcome2Text_2.started,outcome2Text_2.stopped,fixCross_3.started,fixCross_3.stopped,certainBox_3.started,certainBox_3.stopped,outcome1Box_3.started,outcome1Box_3.stopped,outcome2Box_3.started,outcome2Box_3.stopped,certainText_3.started,certainText_3.stopped,outcome1Text_3.started,outcome1Text_3.stopped,outcome2Text_3.started,outcome2Text_3.stopped,fixCross_ITI.started,fixCross_ITI.stopped,fixCross_ISI.started,fixCross_ISI.stopped,happyText.started,happyText.stopped,happySlider.response,happySlider.rt,happySlider.started,happySlider.stopped,happyResp.keys,happyResp.started,happyResp.stopped,endOfBlockText.started,endOfBlockText.stopped,restKeyResp.keys,restKeyResp.rt,restKeyResp.started,restKeyResp.stopped,finalWinnings,cashBonus,goodbyeText.started,goodbyeText.stopped,finalWinningsText.started,finalWinningsText.stopped,spaceToContinue.started,spaceToContinue.stopped,goodbyeKeyResp_2.keys,goodbyeKeyResp_2.rt,goodbyeKeyResp_2.started,goodbyeKeyResp_2.stopped,participant,date,expName,psychopyVersion,frameRate,
1,black.png,"Welcome! You are about to play our gambling task.
This task has 3 blocks and takes about 15 minutes.",,,,0,0,0,0,,,,,,,,,,,,,,,,,,,,,,,,,21.860562688438222,None,21.860562688438222,None,21.860562688438222,None,4,5.9858407927677035,21.860562688438222,None,,,,,,,,,,,,,,,,,,,,,,,,,,,,,,,,,,,,,,,,,,,,,,,,,,,,,,,,,,,,,,,,,,,,,,,,,,,,,,,,,,,,,,,,,,,,,,,,,,,,,,,,,,,,,,,,,,,,,,,,,,,,,,,,23550,2020_Jan_06_1543,Mmi_3levels,3.1.5,59.97633713698992,
2,black.png,"In this game, you may win or lose points. Your goal is to get as many points as possible. These points will be converted to a cash bonus at the end.
Sometimes we will ask you to rate your mood.",,,,0,1,1,1,,,,,,,,,,,,,,,,,,,,,,,,,27.89615621534176,None,27.89615621534176,None,27.89615621534176,None,4,6.686161574907601,27.89615621534176,None,,,,,,,,,,,,,,,,,,,,,,,,,,,,,,,,,,,,,,,,,,,,,,,,,,,,,,,,,,,,,,,,,,,,,,,,,,,,,,,,,,,,,,,,,,,,,,,,,,,,,,,,,,,,,,,,,,,,,,,,,,,,,,,,23550,2020_Jan_06_1543,Mmi_3levels,3.1.5,59.97633713698992,
3,black.png,"On the next screen, please rate how you feel about your life these days. Use the LEFT (green) and RIGHT (blue) buttons to move the slider (you can press and hold them to slide gradually) and the TOP (red) button to lock in your response.
Make your rating as accurately and quickly as you can!",,,,0,2,2,2,,,,,,,,,,,,,,,,,,,,,,,,,34.63201420707628,None,34.63201420707628,None,34.63201420707628,None,4,7.8699797610752285,34.63201420707628,None,,,,,,,,,,,,,,,,,,,,,,,,,,,,,,,,,,,,,,,,,,,,,,,,,,,,,,,,,,,,,,,,,,,,,,,,,,,,,,,,,,,,,,,,,,,,,,,,,,,,,,,,,,,,,,,,,,,,,,,,,,,,,,,,23550,2020_Jan_06_1543,Mmi_3levels,3.1.5,59.97633713698992,
,,,,,,,,,,,,,,,,,,,,,,,,,,,,,,,,,,,,,,,,,,,,42.51835145219229,None,0.72,10.50268256990239,46.519860167754814,None,None,46.519860167754814,None,,,,,,,,,,,,,,,,,,,,,,,,,,,,,,,,,,,,,,,,,,,,,,,,,,,,,,,,,,,,,,,,,,,,,,,,,,,,,,,,,,,,,,,,,,,,,,,,,,,,,,,,,,,,,,,,,,,,,,,23550,2020_Jan_06_1543,Mmi_3levels,3.1.5,59.97633713698992,
4,black.png,"In this game you can win money by earning points according to your choices. You will decide whether to gamble a number of points or stick with a guaranteed number of points. 
Make your choice by pressing the left or right arrow key once. An example of one trial is shown on the next screen.",,,,,,,,0,0,0,0,,,,,,,,,,,,,,,,,,,,,,,,,,,,,,,,,,,,,,,,53.05570472055115,None,53.05570472055115,None,53.05570472055115,None,4,4.118417368503287,53.05570472055115,None,,,,,,,,,,,,,,,,,,,,,,,,,,,,,,,,,,,,,,,,,,,,,,,,,,,,,,,,,,,,,,,,,,,,,,,,,,,,,,,,,,,,,,,,,,,,,,,,,,,,,,,,,,,,,23550,2020_Jan_06_1543,Mmi_3levels,3.1.5,59.97633713698992,
5,example_start.png,"The GAMBLING OPTION will be shown on the RIGHT SIDE. 
Select this option using the RIGHT (blue) button on your keypad.",,,,,,,,0,1,1,1,,,,,,,,,,,,,,,,,,,,,,,,,,,,,,,,,,,,,,,,57.240643803961575,None,57.240643803961575,None,57.240643803961575,None,4,2.1177921236958355,57.240643803961575,None,,,,,,,,,,,,,,,,,,,,,,,,,,,,,,,,,,,,,,,,,,,,,,,,,,,,,,,,,,,,,,,,,,,,,,,,,,,,,,,,,,,,,,,,,,,,,,,,,,,,,,,,,,,,,23550,2020_Jan_06_1543,Mmi_3levels,3.1.5,59.97633713698992,
6,example_gamble.png,"Once you select the gambling choice, the choice you made will remain on the screen.",,,,,,,,0,2,2,2,,,,,,,,,,,,,,,,,,,,,,,,,,,,,,,,,,,,,,,,59.391456158366054,None,59.391456158366054,None,59.391456158366054,None,4,1.0839031413197517,59.391456158366054,None,,,,,,,,,,,,,,,,,,,,,,,,,,,,,,,,,,,,,,,,,,,,,,,,,,,,,,,,,,,,,,,,,,,,,,,,,,,,,,,,,,,,,,,,,,,,,,,,,,,,,,,,,,,,,23550,2020_Jan_06_1543,Mmi_3levels,3.1.5,59.97633713698992,
7,example_win.png,"The outcome you received will then be shown on the screen. In this example , you WON 10 points.",,,,,,,,0,3,3,3,,,,,,,,,,,,,,,,,,,,,,,,,,,,,,,,,,,,,,,,60.50849120458588,None,60.50849120458588,None,60.50849120458588,None,4,1.4008005950599909,60.50849120458588,None,,,,,,,,,,,,,,,,,,,,,,,,,,,,,,,,,,,,,,,,,,,,,,,,,,,,,,,,,,,,,,,,,,,,,,,,,,,,,,,,,,,,,,,,,,,,,,,,,,,,,,,,,,,,,23550,2020_Jan_06_1543,Mmi_3levels,3.1.5,59.97633713698992,
8,example_start.png,"The GUARANTEED OPTION will be shown on the LEFT SIDE. You are 100% guaranteed to gain or lose this amount. In this example, you have a 100% chance of winning 1 point. Select this option using the LEFT (green) button on your keyboard.",,,,,,,,0,4,4,4,,,,,,,,,,,,,,,,,,,,,,,,,,,,,,,,,,,,,,,,61.95909669063985,None,61.95909669063985,None,61.95909669063985,None,4,1.1839653779752553,61.95909669063985,None,,,,,,,,,,,,,,,,,,,,,,,,,,,,,,,,,,,,,,,,,,,,,,,,,,,,,,,,,,,,,,,,,,,,,,,,,,,,,,,,,,,,,,,,,,,,,,,,,,,,,,,,,,,,,23550,2020_Jan_06_1543,Mmi_3levels,3.1.5,59.97633713698992,
9,example_certain.png,"Once you select the guaranteed choice, your selection will remain on the screen.",,,,,,,,0,5,5,5,,,,,,,,,,,,,,,,,,,,,,,,,,,,,,,,,,,,,,,,63.176187893375754,None,63.176187893375754,None,63.176187893375754,None,4,1.1673963859211653,63.176187893375754,None,,,,,,,,,,,,,,,,,,,,,,,,,,,,,,,,,,,,,,,,,,,,,,,,,,,,,,,,,,,,,,,,,,,,,,,,,,,,,,,,,,,,,,,,,,,,,,,,,,,,,,,,,,,,,23550,2020_Jan_06_1543,Mmi_3levels,3.1.5,59.97633713698992,
10,black.png,"Please make your choices as fast as possible.
You will be given a break at the end of each block.
Let's play!",,,,,,,,0,6,6,6,,,,,,,,,,,,,,,,,,,,,,,,,,,,,,,,,,,,,,,,64.37662498909049,None,64.37662498909049,None,64.37662498909049,None,4,2.0842180037871003,64.37662498909049,None,,,,,,,,,,,,,,,,,,,,,,,,,,,,,,,,,,,,,,,,,,,,,,,,,,,,,,,,,,,,,,,,,,,,,,,,,,,,,,,,,,,,,,,,,,,,,,,,,,,,,,,,,,,,,23550,2020_Jan_06_1543,Mmi_3levels,3.1.5,59.97633713698992,
,,,,,,,,,,,,,,,,,,,,,,,,,,,,,,,,,,,,,,,,,,,,,,,,,,,,,,,,,,,,,,,66.47742158430628,None,space,40.93246010225266,66.47742158430628,None,,,,,,,,,,,,,,,,,,,,,,,,,,,,,,,,,,,,,,,,,,,,,,,,,,,,,,,,,,,,,,,,,,,,,,,,,,,,,,,,,,,,,,,,,,,,,,,,,,,,,,,23550,2020_Jan_06_1543,Mmi_3levels,3.1.5,59.97633713698992,
,,,1,1,8.5,,,,,,,,,0,0,0,0,0,0,0,21,,,,,,,,,,,,,,,,,,,,,,,,,,,,,,,,,,,,,,,,,,,,,,,,107.42633388517424,None,0.78,7.496078139636666,110.44408329133876,None,None,110.44408329133876,None,114.92910637008026,None,True,True,True,0.78,-0.21999999999999997,-0.21999999999999997,3.3,8.5,5.2,2.6,gamble,win,8.5,8.5,117.96360683790408,None,117.96360683790408,None,117.96360683790408,None,117.96360683790408,None,117.96360683790408,None,117.96360683790408,None,117.96360683790408,None,1,2.9013424848672003,117.96360683790408,None,120.89803770976141,None,120.89803770976141,None,120.89803770976141,None,120.89803770976141,None,120.89803770976141,None,120.89803770976141,None,120.89803770976141,None,124.8829281560611,None,124.8829281560611,None,124.8829281560611,None,124.8829281560611,None,124.8829281560611,None,124.8829281560611,None,124.8829281560611,None,125.88333101337776,None,,,,,,,,,,,,,,,,,,,,,,,,,,,,,,23550,2020_Jan_06_1543,Mmi_3levels,3.1.5,59.97633713698992,
,,,1,1,4.7,,,,,,,,,0,0,0,0,0,1,1,8,,,,,,,,,,,,,,,,,,,,,,,,,,,,,,,,,,,,,,,,,,,,,,,,,,,,,,,,,,,True,False,True,0.78,-0.21999999999999997,-0.43999999999999995,-0.8066666666666665,4.7,3.8933333333333335,1.9466666666666668,gamble,lose,3.8933333333333335,12.393333333333334,127.9007031605579,None,127.9007031605579,None,127.9007031605579,None,127.9007031605579,None,127.9007031605579,None,127.9007031605579,None,127.9007031605579,None,1,1.7342299232259393,127.9007031605579,None,129.66803906974383,None,129.66803906974383,None,129.66803906974383,None,129.66803906974383,None,129.66803906974383,None,129.66803906974383,None,129.66803906974383,None,133.66957338387147,None,133.66957338387147,None,133.66957338387147,None,133.66957338387147,None,133.66957338387147,None,133.66957338387147,None,133.66957338387147,None,134.65324565814808,None,,,,,,,,,,,,,,,,,,,,,,,,,,,,,,23550,2020_Jan_06_1543,Mmi_3levels,3.1.5,59.97633713698992,
,,,1,1,12.7,,,,,,,,,0,0,0,0,0,2,2,25,,,,,,,,,,,,,,,,,,,,,,,,,,,,,,,,,,,,,,,,,,,,,,,,,,,,,,,,,,,True,True,False,0.78,-0.21999999999999997,-0.6599999999999999,3.7399999999999993,12.7,8.96,4.48,gamble,win,12.7,25.093333333333334,136.67069140123203,None,136.67069140123203,None,136.67069140123203,None,136.67069140123203,None,136.67069140123203,None,136.67069140123203,None,136.67069140123203,None,1,2.084380554733798,136.67069140123203,None,138.78816610272042,None,138.78816610272042,None,138.78816610272042,None,138.78816610272042,None,138.78816610272042,None,138.78816610272042,None,138.78816610272042,None,142.78973529487848,None,142.78973529487848,None,142.78973529487848,None,142.78973529487848,None,142.78973529487848,None,142.78973529487848,None,142.78973529487848,None,152.27658931096084,None,143.77343956730329,None,144.77376338932663,None,0.75,7.502759045455605,147.77488556643948,None,None,147.77488556643948,None,,,,,,,,,,,,,,,,,,,23550,2020_Jan_06_1543,Mmi_3levels,3.1.5,59.97633713698992,
,,,1,1,4.1,,,,,,,,,0,0,0,0,0,3,3,16,,,,,,,,,,,,,,,,,,,,,,,,,,,,,,,,,,,,,,,,,,,,,,,,,,,,,,,,,,,True,True,True,0.75,-0.25,-0.9099999999999999,4.41,4.1,-0.3100000000000005,1.8949999999999996,gamble,win,4.1,29.193333333333335,154.29407953144982,None,154.29407953144982,None,154.29407953144982,None,154.29407953144982,None,154.29407953144982,None,154.29407953144982,None,154.29407953144982,None,1,2.551185773452744,154.29407953144982,None,156.87835945189,None,156.87835945189,None,156.87835945189,None,156.87835945189,None,156.87835945189,None,156.87835945189,None,156.87835945189,None,160.8799209643621,None,160.8799209643621,None,160.8799209643621,None,160.8799209643621,None,160.8799209643621,None,160.8799209643621,None,160.8799209643621,None,161.86362299718894,None,,,,,,,,,,,,,,,,,,,,,,,,,,,,,,23550,2020_Jan_06_1543,Mmi_3levels,3.1.5,59.97633713698992,
,,,1,1,2.9,,,,,,,,,0,0,0,0,0,4,4,26,,,,,,,,,,,,,,,,,,,,,,,,,,,,,,,,,,,,,,,,,,,,,,,,,,,,,,,,,,,True,True,False,0.75,-0.25,-1.16,4.66,2.9,-1.7600000000000002,0.5699999999999998,gamble,win,2.9,32.093333333333334,163.88104922114871,None,163.88104922114871,None,163.88104922114871,None,163.88104922114871,None,163.88104922114871,None,163.88104922114871,None,163.88104922114871,None,None,,163.88104922114871,None,166.8821397202555,None,166.8821397202555,None,166.8821397202555,None,166.8821397202555,None,166.8821397202555,None,166.8821397202555,None,166.8821397202555,None,170.86699336837046,None,170.86699336837046,None,170.86699336837046,None,170.86699336837046,None,170.86699336837046,None,170.86699336837046,None,170.86699336837046,None,180.37057988741435,None,171.8674071051646,None,172.8677325269673,None,0.76,7.502844800706953,175.86891230079345,None,None,175.86891230079345,None,,,,,,,,,,,,,,,,,,,23550,2020_Jan_06_1543,Mmi_3levels,3.1.5,59.97633713698992,
,,,1,1,7.3,,,,,,,,,0,0,0,0,0,5,5,6,,,,,,,,,,,,,,,,,,,,,,,,,,,,,,,,,,,,,,,,,,,,,,,,,,,,,,,,,,,True,True,False,0.76,-0.24,-1.4,4.76,7.3,2.54,1.27,gamble,win,7.3,39.39333333333333,182.38799427240156,None,182.38799427240156,None,182.38799427240156,None,182.38799427240156,None,182.38799427240156,None,182.38799427240156,None,182.38799427240156,None,1,1.884367115329951,182.38799427240156,None,184.3054004975129,None,184.3054004975129,None,184.3054004975129,None,184.3054004975129,None,184.3054004975129,None,184.3054004975129,None,184.3054004975129,None,188.29023974644952,None,188.29023974644952,None,188.29023974644952,None,188.29023974644952,None,188.29023974644952,None,188.29023974644952,None,188.29023974644952,None,189.29061924526468,None,,,,,,,,,,,,,,,,,,,,,,,,,,,,,,23550,2020_Jan_06_1543,Mmi_3levels,3.1.5,59.97633713698992,
,,,1,1,-0.9,,,,,,,,,0,0,0,0,0,6,6,23,,,,,,,,,,,,,,,,,,,,,,,,,,,,,,,,,,,,,,,,,,,,,,,,,,,,,,,,,,,True,False,True,0.76,-0.24,-1.64,-0.9766666666666666,-0.9,-1.8766666666666665,-1.3883333333333332,gamble,lose,-1.8766666666666665,37.516666666666666,191.30803714995272,None,191.30803714995272,None,191.30803714995272,None,191.30803714995272,None,191.30803714995272,None,191.30803714995272,None,191.30803714995272,None,None,,191.30803714995272,None,194.30918812542222,None,194.30918812542222,None,194.30918812542222,None,194.30918812542222,None,194.30918812542222,None,194.30918812542222,None,194.30918812542222,None,198.31070452043787,None,198.31070452043787,None,198.31070452043787,None,198.31070452043787,None,198.31070452043787,None,198.31070452043787,None,198.31070452043787,None,199.29446766967885,None,,,,,,,,,,,,,,,,,,,,,,,,,,,,,,23550,2020_Jan_06_1543,Mmi_3levels,3.1.5,59.97633713698992,
,,,1,1,11.5,,,,,,,,,0,0,0,0,0,7,7,10,,,,,,,,,,,,,,,,,,,,,,,,,,,,,,,,,,,,,,,,,,,,,,,,,,,,,,,,,,,True,False,True,0.76,-0.24,-1.88,-0.9966666666666666,11.5,10.503333333333334,5.251666666666667,gamble,lose,10.503333333333334,48.019999999999996,201.31184077681974,None,201.31184077681974,None,201.31184077681974,None,201.31184077681974,None,201.31184077681974,None,201.31184077681974,None,201.31184077681974,None,1,1.8509830648545176,201.31184077681974,None,203.19592950795777,None,203.19592950795777,None,203.19592950795777,None,203.19592950795777,None,203.19592950795777,None,203.19592950795777,None,203.19592950795777,None,207.19740558532067,None,207.19740558532067,None,207.19740558532067,None,207.19740558532067,None,207.19740558532067,None,207.19740558532067,None,207.19740558532067,None,216.68438087473623,None,208.18115913518704,None,209.18152999435551,None,0.74,7.5027779245283455,212.18263105256483,None,None,212.18263105256483,None,,,,,,,,,,,,,,,,,,,23550,2020_Jan_06_1543,Mmi_3levels,3.1.5,59.97633713698992,
,,,1,1,12.3,,,,,,,,,0,0,0,0,0,8,8,5,,,,,,,,,,,,,,,,,,,,,,,,,,,,,,,,,,,,,,,,,,,,,,,,,,,,,,,,,,,True,True,True,0.74,-0.26,-2.1399999999999997,5.779999999999999,12.3,6.520000000000001,3.2600000000000007,gamble,win,12.3,60.31999999999999,218.70181413833052,None,218.70181413833052,None,218.70181413833052,None,218.70181413833052,None,218.70181413833052,None,218.70181413833052,None,218.70181413833052,None,1,1.3674735014792532,218.70181413833052,None,220.10228931182064,None,220.10228931182064,None,220.10228931182064,None,220.10228931182064,None,220.10228931182064,None,220.10228931182064,None,220.10228931182064,None,224.08717655809596,None,224.08717655809596,None,224.08717655809596,None,224.08717655809596,None,224.08717655809596,None,224.08717655809596,None,224.08717655809596,None,225.08752885833383,None,,,,,,,,,,,,,,,,,,,,,,,,,,,,,,23550,2020_Jan_06_1543,Mmi_3levels,3.1.5,59.97633713698992,
,,,1,1,-1.1,,,,,,,,,0,0,0,0,0,9,9,0,,,,,,,,,,,,,,,,,,,,,,,,,,,,,,,,,,,,,,,,,,,,,,,,,,,,,,,,,,,True,True,True,0.74,-0.26,-2.3999999999999995,6.039999999999999,-1.1,-7.139999999999999,-4.119999999999999,certain,certain,-4.119999999999999,56.199999999999996,227.10493492358364,None,227.10493492358364,None,227.10493492358364,None,227.10493492358364,None,227.10493492358364,None,227.10493492358364,None,227.10493492358364,None,3,2.8513289655093104,227.10493492358364,None,229.98935195617378,None,229.98935195617378,None,229.98935195617378,None,229.98935195617378,None,229.98935195617378,None,229.98935195617378,None,229.98935195617378,None,233.99092338816263,None,233.99092338816263,None,233.99092338816263,None,233.99092338816263,None,233.99092338816263,None,233.99092338816263,None,233.99092338816263,None,243.47780812275596,None,234.97464174008928,None,235.9749636419583,None,0.74,7.502763205207884,238.9761418160051,None,None,238.9761418160051,None,,,,,,,,,,,,,,,,,,,23550,2020_Jan_06_1543,Mmi_3levels,3.1.5,59.97633713698992,
,,,1,1,12.1,,,,,,,,,0,0,0,0,0,10,10,4,,,,,,,,,,,,,,,,,,,,,,,,,,,,,,,,,,,,,,,,,,,,,,,,,,,,,,,,,,,True,True,False,0.74,-0.26,-2.6599999999999993,6.299999999999999,12.1,5.800000000000001,2.9000000000000004,gamble,win,12.1,68.3,245.49524394632317,None,245.49524394632317,None,245.49524394632317,None,245.49524394632317,None,245.49524394632317,None,245.49524394632317,None,245.49524394632317,None,1,1.934450710657984,245.49524394632317,None,247.4626547312364,None,247.4626547312364,None,247.4626547312364,None,247.4626547312364,None,247.4626547312364,None,247.4626547312364,None,247.4626547312364,None,251.46416664659046,None,251.46416664659046,None,251.46416664659046,None,251.46416664659046,None,251.46416664659046,None,251.46416664659046,None,251.46416664659046,None,252.44792147632688,None,,,,,,,,,,,,,,,,,,,,,,,,,,,,,,23550,2020_Jan_06_1543,Mmi_3levels,3.1.5,59.97633713698992,
,,,1,1,2.1,,,,,,,,,0,0,0,0,0,11,11,1,,,,,,,,,,,,,,,,,,,,,,,,,,,,,,,,,,,,,,,,,,,,,,,,,,,,,,,,,,,True,True,True,0.74,-0.26,-2.919999999999999,6.559999999999999,2.1,-4.459999999999999,-1.1799999999999995,gamble,win,2.1,70.39999999999999,254.46530386293307,None,254.46530386293307,None,254.46530386293307,None,254.46530386293307,None,254.46530386293307,None,254.46530386293307,None,254.46530386293307,None,None,,254.46530386293307,None,257.46648619673215,None,257.46648619673215,None,257.46648619673215,None,257.46648619673215,None,257.46648619673215,None,257.46648619673215,None,257.46648619673215,None,261.46799939195625,None,261.46799939195625,None,261.46799939195625,None,261.46799939195625,None,261.46799939195625,None,261.46799939195625,None,261.46799939195625,None,270.95486268773675,None,262.45165662723593,None,263.4520431654528,None,0.78,7.502834561280906,266.45315830316395,None,None,266.45315830316395,None,,,,,,,,,,,,,,,,,,,23550,2020_Jan_06_1543,Mmi_3levels,3.1.5,59.97633713698992,
,,,1,1,10.5,,,,,,,,,0,0,0,0,0,12,12,14,,,,,,,,,,,,,,,,,,,,,,,,,,,,,,,,,,,,,,,,,,,,,,,,,,,,,,,,,,,True,True,True,0.78,-0.21999999999999997,-3.139999999999999,6.219999999999999,10.5,4.280000000000001,2.1400000000000006,gamble,win,10.5,80.89999999999999,272.97235994786024,None,272.97235994786024,None,272.97235994786024,None,272.97235994786024,None,272.97235994786024,None,272.97235994786024,None,272.97235994786024,None,1,1.300695801153779,272.97235994786024,None,274.30614637583494,None,274.30614637583494,None,274.30614637583494,None,274.30614637583494,None,274.30614637583494,None,274.30614637583494,None,274.30614637583494,None,278.29099490423687,None,278.29099490423687,None,278.29099490423687,None,278.29099490423687,None,278.29099490423687,None,278.29099490423687,None,278.29099490423687,None,279.2913673634175,None,,,,,,,,,,,,,,,,,,,,,,,,,,,,,,23550,2020_Jan_06_1543,Mmi_3levels,3.1.5,59.97633713698992,
,,,1,1,5.7,,,,,,,,,0,0,0,0,0,13,13,12,,,,,,,,,,,,,,,,,,,,,,,,,,,,,,,,,,,,,,,,,,,,,,,,,,,,,,,,,,,True,True,True,0.78,-0.21999999999999997,-3.3599999999999985,6.439999999999998,5.7,-0.7399999999999975,-0.3699999999999988,gamble,win,5.7,86.6,281.3588077467866,None,281.3588077467866,None,281.3588077467866,None,281.3588077467866,None,281.3588077467866,None,281.3588077467866,None,281.3588077467866,None,1,1.834347836440429,281.3588077467866,None,283.22624557022937,None,283.22624557022937,None,283.22624557022937,None,283.22624557022937,None,283.22624557022937,None,283.22624557022937,None,283.22624557022937,None,287.22775780549273,None,287.22775780549273,None,287.22775780549273,None,287.22775780549273,None,287.22775780549273,None,287.22775780549273,None,287.22775780549273,None,288.21146431798115,None,,,,,,,,,,,,,,,,,,,,,,,,,,,,,,23550,2020_Jan_06_1543,Mmi_3levels,3.1.5,59.97633713698992,
,,,1,1,6.1,,,,,,,,,0,0,0,0,0,14,14,19,,,,,,,,,,,,,,,,,,,,,,,,,,,,,,,,,,,,,,,,,,,,,,,,,,,,,,,,,,,True,True,False,0.78,-0.21999999999999997,-3.5799999999999983,6.659999999999998,6.1,-0.5599999999999987,-0.27999999999999936,gamble,win,6.1,92.69999999999999,290.22888318262994,None,290.22888318262994,None,290.22888318262994,None,290.22888318262994,None,290.22888318262994,None,290.22888318262994,None,290.22888318262994,None,1,2.267793643521145,290.22888318262994,None,292.529753373703,None,292.529753373703,None,292.529753373703,None,292.529753373703,None,292.529753373703,None,292.529753373703,None,292.529753373703,None,296.5312342508696,None,296.5312342508696,None,296.5312342508696,None,296.5312342508696,None,296.5312342508696,None,296.5312342508696,None,296.5312342508696,None,306.01815162342973,None,297.51494140317664,None,298.5152930635959,None,0.78,7.50269792904146,301.516437319573,None,None,301.516437319573,None,,,,,,,,,,,,,,,,,,,23550,2020_Jan_06_1543,Mmi_3levels,3.1.5,59.97633713698992,
,,,1,1,11.9,,,,,,,,,0,0,0,0,0,15,15,18,,,,,,,,,,,,,,,,,,,,,,,,,,,,,,,,,,,,,,,,,,,,,,,,,,,,,,,,,,,True,True,False,0.78,-0.21999999999999997,-3.799999999999998,6.879999999999997,11.9,5.020000000000003,2.5100000000000016,gamble,win,11.9,104.6,308.03563992423005,None,308.03563992423005,None,308.03563992423005,None,308.03563992423005,None,308.03563992423005,None,308.03563992423005,None,308.03563992423005,None,1,1.4172803121618927,308.03563992423005,None,309.4861801338848,None,309.4861801338848,None,309.4861801338848,None,309.4861801338848,None,309.4861801338848,None,309.4861801338848,None,309.4861801338848,None,313.4709710655734,None,313.4709710655734,None,313.4709710655734,None,313.4709710655734,None,313.4709710655734,None,313.4709710655734,None,313.4709710655734,None,314.4714068812318,None,,,,,,,,,,,,,,,,,,,,,,,,,,,,,,23550,2020_Jan_06_1543,Mmi_3levels,3.1.5,59.97633713698992,
,,,1,1,13.9,,,,,,,,,0,0,0,0,0,16,16,7,,,,,,,,,,,,,,,,,,,,,,,,,,,,,,,,,,,,,,,,,,,,,,,,,,,,,,,,,,,True,True,False,0.78,-0.21999999999999997,-4.019999999999998,7.099999999999998,13.9,6.8000000000000025,3.4000000000000012,gamble,win,13.9,118.5,316.488780308282,None,316.488780308282,None,316.488780308282,None,316.488780308282,None,316.488780308282,None,316.488780308282,None,316.488780308282,None,1,0.9006020464003086,316.488780308282,None,317.4224723414518,None,317.4224723414518,None,317.4224723414518,None,317.4224723414518,None,317.4224723414518,None,317.4224723414518,None,317.4224723414518,None,321.4240399338305,None,321.4240399338305,None,321.4240399338305,None,321.4240399338305,None,321.4240399338305,None,321.4240399338305,None,321.4240399338305,None,330.91096274601296,None,322.4077394066844,None,323.40806802827865,None,0.73,7.502962554106489,326.4092292431742,None,None,326.4092292431742,None,,,,,,,,,,,,,,,,,,,23550,2020_Jan_06_1543,Mmi_3levels,3.1.5,59.97633713698992,
,,,1,1,2.7,,,,,,,,,0,0,0,0,0,17,17,13,,,,,,,,,,,,,,,,,,,,,,,,,,,,,,,,,,,,,,,,,,,,,,,,,,,,,,,,,,,True,True,True,0.73,-0.27,-4.289999999999997,8.069999999999997,2.7,-5.3699999999999966,-1.3349999999999982,certain,certain,-1.3349999999999982,117.165,332.9283873701934,None,332.9283873701934,None,332.9283873701934,None,332.9283873701934,None,332.9283873701934,None,332.9283873701934,None,332.9283873701934,None,3,2.5011469756718725,332.9283873701934,None,335.46260993392207,None,335.46260993392207,None,335.46260993392207,None,335.46260993392207,None,335.46260993392207,None,335.46260993392207,None,335.46260993392207,None,339.44742262433283,None,339.44742262433283,None,339.44742262433283,None,339.44742262433283,None,339.44742262433283,None,339.44742262433283,None,339.44742262433283,None,340.44785204017535,None,,,,,,,,,,,,,,,,,,,,,,,,,,,,,,23550,2020_Jan_06_1543,Mmi_3levels,3.1.5,59.97633713698992,
,,,1,1,-1.5,,,,,,,,,0,0,0,0,0,18,18,9,,,,,,,,,,,,,,,,,,,,,,,,,,,,,,,,,,,,,,,,,,,,,,,,,,,,,,,,,,,True,False,True,0.73,-0.27,-4.559999999999997,-1.3249999999999997,-1.5,-2.8249999999999997,-2.1624999999999996,gamble,lose,-2.8249999999999997,114.34,342.46530770277604,None,342.46530770277604,None,342.46530770277604,None,342.46530770277604,None,342.46530770277604,None,342.46530770277604,None,342.46530770277604,None,None,,342.46530770277604,None,345.4663905221969,None,345.4663905221969,None,345.4663905221969,None,345.4663905221969,None,345.4663905221969,None,345.4663905221969,None,345.4663905221969,None,349.4679379554,None,349.4679379554,None,349.4679379554,None,349.4679379554,None,349.4679379554,None,349.4679379554,None,349.4679379554,None,350.4516396680847,None,,,,,,,,,,,,,,,,,,,,,,,,,,,,,,23550,2020_Jan_06_1543,Mmi_3levels,3.1.5,59.97633713698992,
,,,1,1,1.5,,,,,,,,,0,0,0,0,0,19,19,2,,,,,,,,,,,,,,,,,,,,,,,,,,,,,,,,,,,,,,,,,,,,,,,,,,,,,,,,,,,True,True,True,0.73,-0.27,-4.8299999999999965,8.609999999999996,1.5,-7.109999999999996,-2.804999999999998,certain,certain,-2.804999999999998,111.53500000000001,352.4691116497852,None,352.4691116497852,None,352.4691116497852,None,352.4691116497852,None,352.4691116497852,None,352.4691116497852,None,352.4691116497852,None,3,2.0509606662672013,352.4691116497852,None,354.55316774267703,None,354.55316774267703,None,354.55316774267703,None,354.55316774267703,None,354.55316774267703,None,354.55316774267703,None,354.55316774267703,None,358.55478845187463,None,358.55478845187463,None,358.55478845187463,None,358.55478845187463,None,358.55478845187463,None,358.55478845187463,None,358.55478845187463,None,368.04165238747373,None,359.5384348076768,None,360.5387979873922,None,0.72,7.502910716924816,363.5399249640759,None,None,363.5399249640759,None,,,,,,,,,,,,,,,,,,,23550,2020_Jan_06_1543,Mmi_3levels,3.1.5,59.97633713698992,
,,,1,1,9.9,,,,,,,,,0,0,0,0,0,20,20,24,,,,,,,,,,,,,,,,,,,,,,,,,,,,,,,,,,,,,,,,,,,,,,,,,,,,,,,,,,,True,False,False,0.72,-0.28,-5.109999999999997,-1.4058333333333333,9.9,8.494166666666667,4.247083333333333,gamble,lose,8.494166666666667,120.02916666666668,370.05908661102876,None,370.05908661102876,None,370.05908661102876,None,370.05908661102876,None,370.05908661102876,None,370.05908661102876,None,370.05908661102876,None,1,1.1504920525476336,370.05908661102876,None,371.24288527830504,None,371.24288527830504,None,371.24288527830504,None,371.24288527830504,None,371.24288527830504,None,371.24288527830504,None,371.24288527830504,None,375.24438279448077,None,375.24438279448077,None,375.24438279448077,None,375.24438279448077,None,375.24438279448077,None,375.24438279448077,None,375.24438279448077,None,376.2281421041116,None,,,,,,,,,,,,,,,,,,,,,,,,,,,,,,23550,2020_Jan_06_1543,Mmi_3levels,3.1.5,59.97633713698992,
,,,1,1,0.9,,,,,,,,,0,0,0,0,0,21,21,20,,,,,,,,,,,,,,,,,,,,,,,,,,,,,,,,,,,,,,,,,,,,,,,,,,,,,,,,,,,True,True,False,0.72,-0.28,-5.389999999999997,9.309999999999997,0.9,-8.409999999999997,-3.754999999999998,gamble,win,0.9,120.92916666666669,378.24549601227045,None,378.24549601227045,None,378.24549601227045,None,378.24549601227045,None,378.24549601227045,None,378.24549601227045,None,378.24549601227045,None,None,,378.24549601227045,None,381.2466754661873,None,381.2466754661873,None,381.2466754661873,None,381.2466754661873,None,381.2466754661873,None,381.2466754661873,None,381.2466754661873,None,385.23152175475843,None,385.23152175475843,None,385.23152175475843,None,385.23152175475843,None,385.23152175475843,None,385.23152175475843,None,385.23152175475843,None,394.73504235758446,None,386.2318721350748,None,387.23225579364225,None,0.8,7.502659210935235,390.23331909417175,None,None,390.23331909417175,None,,,,,,,,,,,,,,,,,,,23550,2020_Jan_06_1543,Mmi_3levels,3.1.5,59.97633713698992,
,,,1,1,6.5,,,,,,,,,0,0,0,0,0,22,22,15,,,,,,,,,,,,,,,,,,,,,,,,,,,,,,,,,,,,,,,,,,,,,,,,,,,,,,,,,,,True,True,False,0.8,-0.19999999999999996,-5.589999999999997,8.389999999999997,6.5,-1.889999999999997,-0.9449999999999985,gamble,win,6.5,127.42916666666669,396.7525236187503,None,396.7525236187503,None,396.7525236187503,None,396.7525236187503,None,396.7525236187503,None,396.7525236187503,None,396.7525236187503,None,1,1.7342379225883633,396.7525236187503,None,398.51981025049463,None,398.51981025049463,None,398.51981025049463,None,398.51981025049463,None,398.51981025049463,None,398.51981025049463,None,398.51981025049463,None,402.5046456598211,None,402.5046456598211,None,402.5046456598211,None,402.5046456598211,None,402.5046456598211,None,402.5046456598211,None,402.5046456598211,None,403.5050280385185,None,,,,,,,,,,,,,,,,,,,,,,,,,,,,,,23550,2020_Jan_06_1543,Mmi_3levels,3.1.5,59.97633713698992,
,,,1,1,0.7,,,,,,,,,0,0,0,0,0,23,23,17,,,,,,,,,,,,,,,,,,,,,,,,,,,,,,,,,,,,,,,,,,,,,,,,,,,,,,,,,,,True,True,True,0.8,-0.19999999999999996,-5.789999999999997,8.589999999999996,0.7,-7.889999999999996,-3.594999999999998,gamble,win,0.7,128.1291666666667,405.5224549025297,None,405.5224549025297,None,405.5224549025297,None,405.5224549025297,None,405.5224549025297,None,405.5224549025297,None,405.5224549025297,None,None,,405.5224549025297,None,408.5236426759511,None,408.5236426759511,None,408.5236426759511,None,408.5236426759511,None,408.5236426759511,None,408.5236426759511,None,408.5236426759511,None,412.50844288710505,None,412.50844288710505,None,412.50844288710505,None,412.50844288710505,None,412.50844288710505,None,412.50844288710505,None,412.50844288710505,None,422.01208668318577,None,413.5088153462857,None,414.5091932450887,None,0.77,7.50301503110677,417.5103666195646,None,None,417.5103666195646,None,,,,,,,,,,,,,,,,,,,23550,2020_Jan_06_1543,Mmi_3levels,3.1.5,59.97633713698992,
,,,1,1,10.3,,,,,,,,,0,0,0,0,0,24,24,3,,,,,,,,,,,,,,,,,,,,,,,,,,,,,,,,,,,,,,,,,,,,,,,,,,,,,,,,,,,True,True,True,0.77,-0.22999999999999998,-6.019999999999998,9.239999999999998,10.3,1.0600000000000023,0.5300000000000011,gamble,win,10.3,138.4291666666667,424.02951866691,None,424.02951866691,None,424.02951866691,None,424.02951866691,None,424.02951866691,None,424.02951866691,None,424.02951866691,None,1,1.1838018670678139,424.02951866691,None,425.2465890708845,None,425.2465890708845,None,425.2465890708845,None,425.2465890708845,None,425.2465890708845,None,425.2465890708845,None,425.2465890708845,None,429.23148527671583,None,429.23148527671583,None,429.23148527671583,None,429.23148527671583,None,429.23148527671583,None,429.23148527671583,None,429.23148527671583,None,430.23186381557025,None,,,,,,,,,,,,,,,,,,,,,,,,,,,,,,23550,2020_Jan_06_1543,Mmi_3levels,3.1.5,59.97633713698992,
,,,1,1,6.3,,,,,,,,,0,0,0,0,0,25,25,22,,,,,,,,,,,,,,,,,,,,,,,,,,,,,,,,,,,,,,,,,,,,,,,,,,,,,,,,,,,True,False,False,0.77,-0.22999999999999998,-6.249999999999998,-1.3258333333333332,6.3,4.974166666666667,2.4870833333333335,gamble,lose,4.974166666666667,143.40333333333336,432.2492861999199,None,432.2492861999199,None,432.2492861999199,None,432.2492861999199,None,432.2492861999199,None,432.2492861999199,None,432.2492861999199,None,1,1.3173700673505664,432.2492861999199,None,433.59975809347816,None,433.59975809347816,None,433.59975809347816,None,433.59975809347816,None,433.59975809347816,None,433.59975809347816,None,433.59975809347816,None,437.5845944627654,None,437.5845944627654,None,437.5845944627654,None,437.5845944627654,None,437.5845944627654,None,437.5845944627654,None,437.5845944627654,None,438.58496724185534,None,,,,,,,,,,,,,,,,,,,,,,,,,,,,,,23550,2020_Jan_06_1543,Mmi_3levels,3.1.5,59.97633713698992,
,,,1,1,1.9,,,,,,,,,0,0,0,0,0,26,26,11,,,,,,,,,,,,,,,,,,,,,,,,,,,,,,,,,,,,,,,,,,,,,,,,,,,,,,,,,,,True,True,False,0.77,-0.22999999999999998,-6.479999999999999,9.7,1.9,-7.799999999999999,-2.9499999999999993,certain,certain,-2.9499999999999993,140.45333333333338,440.60240466543473,None,440.60240466543473,None,440.60240466543473,None,440.60240466543473,None,440.60240466543473,None,440.60240466543473,None,440.60240466543473,None,3,2.151127216871828,440.60240466543473,None,442.7866113097407,None,442.7866113097407,None,442.7866113097407,None,442.7866113097407,None,442.7866113097407,None,442.7866113097407,None,442.7866113097407,None,446.7881088259164,None,446.7881088259164,None,446.7881088259164,None,446.7881088259164,None,446.7881088259164,None,446.7881088259164,None,446.7881088259164,None,456.27501851902343,None,447.7717814203352,None,448.77216187887825,None,0.74,7.502803522860631,451.7733365332242,None,None,451.7733365332242,None,,,,,,,,,,,,,,,,,,,23550,2020_Jan_06_1543,Mmi_3levels,3.1.5,59.97633713698992,
,,,2,0,12.5,,,,,,,,,0,1,1,1,0,0,0,14,,,,,,,,,,,,,,,,,,,,,,,,,,,,,,,,,,,,,,,,,,,,,,,,466.645592326764,None,0.7,7.501861815806478,469.6633890902158,None,None,469.6633890902158,None,474.1485270424746,None,False,False,True,0.7,0.7,0.7,2.508333333333333,3.125,0.6166666666666671,1.8708333333333336,gamble,win,3.125,143.57833333333338,477.1662646092009,None,477.1662646092009,None,477.1662646092009,None,477.1662646092009,None,477.1662646092009,None,477.1662646092009,None,477.1662646092009,None,1,1.6842442422639579,477.1662646092009,None,478.88361547747627,None,478.88361547747627,None,478.88361547747627,None,478.88361547747627,None,478.88361547747627,None,478.88361547747627,None,478.88361547747627,None,482.8684544065036,None,482.8684544065036,None,482.8684544065036,None,482.8684544065036,None,482.8684544065036,None,482.8684544065036,None,482.8684544065036,None,483.8688886221498,None,,,,,,,,,,,,458.275801835116,None,4,8.35329701541923,458.275801835116,None,,,,,,,,,,,,,23550,2020_Jan_06_1543,Mmi_3levels,3.1.5,59.97633713698992,
,,,2,0,12.9,,,,,,,,,0,1,1,1,0,1,1,12,,,,,,,,,,,,,,,,,,,,,,,,,,,,,,,,,,,,,,,,,,,,,,,,,,,,,,,,,,,False,True,True,0.7,0.7,1.4,-11.2,12.9,1.700000000000001,0.8500000000000005,gamble,lose,1.700000000000001,145.27833333333336,485.8862681288738,None,485.8862681288738,None,485.8862681288738,None,485.8862681288738,None,485.8862681288738,None,485.8862681288738,None,485.8862681288738,None,1,1.517496780026704,485.8862681288738,None,487.436799219111,None,487.436799219111,None,487.436799219111,None,487.436799219111,None,487.436799219111,None,487.436799219111,None,487.436799219111,None,491.43834057287313,None,491.43834057287313,None,491.43834057287313,None,491.43834057287313,None,491.43834057287313,None,491.43834057287313,None,491.43834057287313,None,500.9252304271795,None,492.4220368459355,None,493.4224489829503,None,0.76,7.502714887959883,496.4235295623075,None,None,496.4235295623075,None,,,,,,,,,,,,,,,,,,,23550,2020_Jan_06_1543,Mmi_3levels,3.1.5,59.97633713698992,
,,,2,0,2.9,,,,,,,,,0,1,1,1,0,2,2,16,,,,,,,,,,,,,,,,,,,,,,,,,,,,,,,,,,,,,,,,,,,,,,,,,,,,,,,,,,,False,False,False,0.76,0.76,2.16,2.8400000000000003,0.725,-2.115,-0.6950000000000001,gamble,win,0.725,146.00333333333336,502.94269504910335,None,502.94269504910335,None,502.94269504910335,None,502.94269504910335,None,502.94269504910335,None,502.94269504910335,None,502.94269504910335,None,1,2.0510550609324127,502.94269504910335,None,505.02679433953017,None,505.02679433953017,None,505.02679433953017,None,505.02679433953017,None,505.02679433953017,None,505.02679433953017,None,505.02679433953017,None,509.0283235339448,None,509.0283235339448,None,509.0283235339448,None,509.0283235339448,None,509.0283235339448,None,509.0283235339448,None,509.0283235339448,None,510.0120620445814,None,,,,,,,,,,,,,,,,,,,,,,,,,,,,,,23550,2020_Jan_06_1543,Mmi_3levels,3.1.5,59.97633713698992,
,,,2,0,12.1,,,,,,,,,0,1,1,1,0,3,3,15,,,,,,,,,,,,,,,,,,,,,,,,,,,,,,,,,,,,,,,,,,,,,,,,,,,,,,,,,,,False,True,True,0.76,0.76,2.92,-13.56,12.1,-1.4600000000000009,-0.7300000000000004,gamble,lose,-1.4600000000000009,144.54333333333335,512.0294418712147,None,512.0294418712147,None,512.0294418712147,None,512.0294418712147,None,512.0294418712147,None,512.0294418712147,None,512.0294418712147,None,1,1.7008922698441893,512.0294418712147,None,513.7634298878256,None,513.7634298878256,None,513.7634298878256,None,513.7634298878256,None,513.7634298878256,None,513.7634298878256,None,513.7634298878256,None,517.7649456430227,None,517.7649456430227,None,517.7649456430227,None,517.7649456430227,None,517.7649456430227,None,517.7649456430227,None,517.7649456430227,None,527.251916772686,None,518.7486953530461,None,519.7490786914714,None,0.71,7.502724807476625,522.7501499915961,None,None,522.7501499915961,None,,,,,,,,,,,,,,,,,,,23550,2020_Jan_06_1543,Mmi_3levels,3.1.5,59.97633713698992,
,,,2,0,9.9,,,,,,,,,0,1,1,1,0,4,4,2,,,,,,,,,,,,,,,,,,,,,,,,,,,,,,,,,,,,,,,,,,,,,,,,,,,,,,,,,,,False,True,False,0.71,0.71,3.63,-13.57,9.9,-3.67,-1.835,gamble,lose,-3.67,140.87333333333336,529.2693653954193,None,529.2693653954193,None,529.2693653954193,None,529.2693653954193,None,529.2693653954193,None,529.2693653954193,None,529.2693653954193,None,1,1.8674039053730667,529.2693653954193,None,531.1700733557809,None,531.1700733557809,None,531.1700733557809,None,531.1700733557809,None,531.1700733557809,None,531.1700733557809,None,531.1700733557809,None,535.1715353541076,None,535.1715353541076,None,535.1715353541076,None,535.1715353541076,None,535.1715353541076,None,535.1715353541076,None,535.1715353541076,None,536.1552412265446,None,,,,,,,,,,,,,,,,,,,,,,,,,,,,,,23550,2020_Jan_06_1543,Mmi_3levels,3.1.5,59.97633713698992,
,,,2,0,9.7,,,,,,,,,0,1,1,1,0,5,5,22,,,,,,,,,,,,,,,,,,,,,,,,,,,,,,,,,,,,,,,,,,,,,,,,,,,,,,,,,,,False,False,True,0.71,0.71,4.34,2.8466666666666667,2.425,-0.42166666666666686,1.0016666666666665,certain,certain,1.0016666666666665,141.87500000000003,538.1726690505166,None,538.1726690505166,None,538.1726690505166,None,538.1726690505166,None,538.1726690505166,None,538.1726690505166,None,538.1726690505166,None,3,1.7343006390146911,538.1726690505166,None,539.9400555167813,None,539.9400555167813,None,539.9400555167813,None,539.9400555167813,None,539.9400555167813,None,539.9400555167813,None,539.9400555167813,None,543.9248749269173,None,543.9248749269173,None,543.9248749269173,None,543.9248749269173,None,543.9248749269173,None,543.9248749269173,None,543.9248749269173,None,544.925220827572,None,,,,,,,,,,,,,,,,,,,,,,,,,,,,,,23550,2020_Jan_06_1543,Mmi_3levels,3.1.5,59.97633713698992,
,,,2,0,2.3,,,,,,,,,0,1,1,1,0,6,6,13,,,,,,,,,,,,,,,,,,,,,,,,,,,,,,,,,,,,,,,,,,,,,,,,,,,,,,,,,,,False,False,False,0.71,0.71,5.05,2.9058333333333333,0.575,-2.3308333333333335,-0.8779166666666668,certain,certain,-0.8779166666666668,140.99708333333336,546.9427120080218,None,546.9427120080218,None,546.9427120080218,None,546.9427120080218,None,546.9427120080218,None,546.9427120080218,None,546.9427120080218,None,3,1.8676973287947476,546.9427120080218,None,548.8434426872991,None,548.8434426872991,None,548.8434426872991,None,548.8434426872991,None,548.8434426872991,None,548.8434426872991,None,548.8434426872991,None,552.8282176197972,None,552.8282176197972,None,552.8282176197972,None,552.8282176197972,None,552.8282176197972,None,552.8282176197972,None,552.8282176197972,None,562.3318127784878,None,553.8286460759118,None,554.8290265344549,None,0.76,7.502685769461095,557.8301090339664,None,None,557.8301090339664,None,,,,,,,,,,,,,,,,,,,23550,2020_Jan_06_1543,Mmi_3levels,3.1.5,59.97633713698992,
,,,2,0,7.9,,,,,,,,,0,1,1,1,0,7,7,8,,,,,,,,,,,,,,,,,,,,,,,,,,,,,,,,,,,,,,,,,,,,,,,,,,,,,,,,,,,False,True,True,0.76,0.76,5.81,-16.45,7.9,-8.549999999999999,-0.3249999999999993,certain,certain,-0.3249999999999993,140.67208333333338,564.3492978792638,None,564.3492978792638,None,564.3492978792638,None,564.3492978792638,None,564.3492978792638,None,564.3492978792638,None,564.3492978792638,None,3,1.6673463087063283,564.3492978792638,None,566.0499239242636,None,566.0499239242636,None,566.0499239242636,None,566.0499239242636,None,566.0499239242636,None,566.0499239242636,None,566.0499239242636,None,570.0514479989652,None,570.0514479989652,None,570.0514479989652,None,570.0514479989652,None,570.0514479989652,None,570.0514479989652,None,570.0514479989652,None,571.0351074740756,None,,,,,,,,,,,,,,,,,,,,,,,,,,,,,,23550,2020_Jan_06_1543,Mmi_3levels,3.1.5,59.97633713698992,
,,,2,0,2.7,,,,,,,,,0,1,1,1,0,8,8,24,,,,,,,,,,,,,,,,,,,,,,,,,,,,,,,,,,,,,,,,,,,,,,,,,,,,,,,,,,,False,True,False,0.76,0.76,6.569999999999999,-17.21,2.7,-14.510000000000002,-5.905000000000001,certain,certain,-5.905000000000001,134.76708333333337,573.0525861752685,None,573.0525861752685,None,573.0525861752685,None,573.0525861752685,None,573.0525861752685,None,573.0525861752685,None,573.0525861752685,None,3,2.201087299035862,573.0525861752685,None,575.2867429824546,None,575.2867429824546,None,575.2867429824546,None,575.2867429824546,None,575.2867429824546,None,575.2867429824546,None,575.2867429824546,None,579.2882308990229,None,579.2882308990229,None,579.2882308990229,None,579.2882308990229,None,579.2882308990229,None,579.2882308990229,None,579.2882308990229,None,588.775159791112,None,580.2719886086415,None,581.2723658673931,None,0.75,7.502690889406949,584.2734525266569,None,None,584.2734525266569,None,,,,,,,,,,,,,,,,,,,23550,2020_Jan_06_1543,Mmi_3levels,3.1.5,59.97633713698992,
,,,2,0,8.3,,,,,,,,,0,1,1,1,0,9,9,21,,,,,,,,,,,,,,,,,,,,,,,,,,,,,,,,,,,,,,,,,,,,,,,,,,,,,,,,,,,False,False,False,0.75,0.75,7.319999999999999,3.235,2.075,-1.1599999999999997,0.45750000000000024,certain,certain,0.45750000000000024,135.22458333333338,590.7925844152924,None,590.7925844152924,None,590.7925844152924,None,590.7925844152924,None,590.7925844152924,None,590.7925844152924,None,590.7925844152924,None,3,1.5008426727727056,590.7925844152924,None,592.3265231547412,None,592.3265231547412,None,592.3265231547412,None,592.3265231547412,None,592.3265231547412,None,592.3265231547412,None,592.3265231547412,None,596.3113886422943,None,596.3113886422943,None,596.3113886422943,None,596.3113886422943,None,596.3113886422943,None,596.3113886422943,None,596.3113886422943,None,597.3117185437586,None,,,,,,,,,,,,,,,,,,,,,,,,,,,,,,23550,2020_Jan_06_1543,Mmi_3levels,3.1.5,59.97633713698992,
,,,2,0,-1.1,,,,,,,,,0,1,1,1,0,10,10,6,,,,,,,,,,,,,,,,,,,,,,,,,,,,,,,,,,,,,,,,,,,,,,,,,,,,,,,,,,,False,True,False,0.75,0.75,8.07,-18.57,-1.1,-19.67,-10.385000000000002,certain,certain,-10.385000000000002,124.83958333333338,599.3292407623958,None,599.3292407623958,None,599.3292407623958,None,599.3292407623958,None,599.3292407623958,None,599.3292407623958,None,599.3292407623958,None,3,1.7842098441906273,599.3292407623958,None,601.146561392583,None,601.146561392583,None,601.146561392583,None,601.146561392583,None,601.146561392583,None,601.146561392583,None,601.146561392583,None,605.1480627483688,None,605.1480627483688,None,605.1480627483688,None,605.1480627483688,None,605.1480627483688,None,605.1480627483688,None,605.1480627483688,None,606.131775340531,None,,,,,,,,,,,,,,,,,,,,,,,,,,,,,,23550,2020_Jan_06_1543,Mmi_3levels,3.1.5,59.97633713698992,
,,,2,0,1.5,,,,,,,,,0,1,1,1,0,11,11,7,,,,,,,,,,,,,,,,,,,,,,,,,,,,,,,,,,,,,,,,,,,,,,,,,,,,,,,,,,,False,True,False,0.75,0.75,8.82,-19.32,1.5,-17.82,-8.16,certain,certain,-8.16,116.67958333333338,608.1492073244881,None,608.1492073244881,None,608.1492073244881,None,608.1492073244881,None,608.1492073244881,None,608.1492073244881,None,608.1492073244881,None,3,1.7675336580723524,608.1492073244881,None,609.9498712872155,None,609.9498712872155,None,609.9498712872155,None,609.9498712872155,None,609.9498712872155,None,609.9498712872155,None,609.9498712872155,None,613.9513640035875,None,613.9513640035875,None,613.9513640035875,None,613.9513640035875,None,613.9513640035875,None,613.9513640035875,None,613.9513640035875,None,623.4382730566431,None,614.9350794756319,None,615.9354279360268,None,0.73,7.502798403380439,618.9365529930219,None,None,618.9365529930219,None,,,,,,,,,,,,,,,,,,,23550,2020_Jan_06_1543,Mmi_3levels,3.1.5,59.97633713698992,
,,,2,0,-1.5,,,,,,,,,0,1,1,1,0,12,12,25,,,,,,,,,,,,,,,,,,,,,,,,,,,,,,,,,,,,,,,,,,,,,,,,,,,,,,,,,,,False,True,False,0.73,0.73,9.55,-19.77,-1.5,-21.27,-11.385,certain,certain,-11.385,105.29458333333338,625.4557040806394,None,625.4557040806394,None,625.4557040806394,None,625.4557040806394,None,625.4557040806394,None,625.4557040806394,None,625.4557040806394,None,3,2.3845346260350198,625.4557040806394,None,627.8733130143955,None,627.8733130143955,None,627.8733130143955,None,627.8733130143955,None,627.8733130143955,None,627.8733130143955,None,627.8733130143955,None,631.8748489285354,None,631.8748489285354,None,631.8748489285354,None,631.8748489285354,None,631.8748489285354,None,631.8748489285354,None,631.8748489285354,None,632.858560560504,None,,,,,,,,,,,,,,,,,,,,,,,,,,,,,,23550,2020_Jan_06_1543,Mmi_3levels,3.1.5,59.97633713698992,
,,,2,0,1.1,,,,,,,,,0,1,1,1,0,13,13,9,,,,,,,,,,,,,,,,,,,,,,,,,,,,,,,,,,,,,,,,,,,,,,,,,,,,,,,,,,,False,True,True,0.73,0.73,10.280000000000001,-20.5,1.1,-19.4,-9.149999999999999,certain,certain,-9.149999999999999,96.14458333333337,634.8759957442526,None,634.8759957442526,None,634.8759957442526,None,634.8759957442526,None,634.8759957442526,None,634.8759957442526,None,634.8759957442526,None,3,1.9509723456576467,634.8759957442526,None,636.8600779157132,None,636.8600779157132,None,636.8600779157132,None,636.8600779157132,None,636.8600779157132,None,636.8600779157132,None,636.8600779157132,None,640.861534794094,None,640.861534794094,None,640.861534794094,None,640.861534794094,None,640.861534794094,None,640.861534794094,None,640.861534794094,None,650.348450566642,None,641.8453558599576,None,642.8456201653462,None,0.77,7.502760325325653,645.8467698609456,None,None,645.8467698609456,None,,,,,,,,,,,,,,,,,,,23550,2020_Jan_06_1543,Mmi_3levels,3.1.5,59.97633713698992,
,,,2,0,7.5,,,,,,,,,0,1,1,1,0,14,14,0,,,,,,,,,,,,,,,,,,,,,,,,,,,,,,,,,,,,,,,,,,,,,,,,,,,,,,,,,,,False,True,False,0.77,0.77,11.05,-21.830000000000002,7.5,-14.330000000000002,-3.415000000000001,gamble,lose,-14.330000000000002,81.81458333333337,652.3658857503906,None,652.3658857503906,None,652.3658857503906,None,652.3658857503906,None,652.3658857503906,None,652.3658857503906,None,652.3658857503906,None,1,1.7009533867239952,652.3658857503906,None,654.0999515226576,None,654.0999515226576,None,654.0999515226576,None,654.0999515226576,None,654.0999515226576,None,654.0999515226576,None,654.0999515226576,None,658.1013972016517,None,658.1013972016517,None,658.1013972016517,None,658.1013972016517,None,658.1013972016517,None,658.1013972016517,None,658.1013972016517,None,659.0851101137232,None,,,,,,,,,,,,,,,,,,,,,,,,,,,,,,23550,2020_Jan_06_1543,Mmi_3levels,3.1.5,59.97633713698992,
,,,2,0,13.5,,,,,,,,,0,1,1,1,0,15,15,11,,,,,,,,,,,,,,,,,,,,,,,,,,,,,,,,,,,,,,,,,,,,,,,,,,,,,,,,,,,False,False,True,0.77,0.77,11.82,3.68,3.375,-0.30500000000000016,1.535,gamble,win,3.375,85.18958333333337,661.1025545769371,None,661.1025545769371,None,661.1025545769371,None,661.1025545769371,None,661.1025545769371,None,661.1025545769371,None,661.1025545769371,None,1,2.1177505259402096,661.1025545769371,None,663.2533778108191,None,663.2533778108191,None,663.2533778108191,None,663.2533778108191,None,663.2533778108191,None,663.2533778108191,None,663.2533778108191,None,667.2549271641765,None,667.2549271641765,None,667.2549271641765,None,667.2549271641765,None,667.2549271641765,None,667.2549271641765,None,667.2549271641765,None,676.7417808603495,None,668.2386381563265,None,669.2389382994734,None,0.74,7.5026876896154135,672.2400905548129,None,None,672.2400905548129,None,,,,,,,,,,,,,,,,,,,23550,2020_Jan_06_1543,Mmi_3levels,3.1.5,59.97633713698992,
,,,2,0,6.1,,,,,,,,,0,1,1,1,0,16,16,1,,,,,,,,,,,,,,,,,,,,,,,,,,,,,,,,,,,,,,,,,,,,,,,,,,,,,,,,,,,False,False,True,0.74,0.74,12.56,3.6366666666666667,1.525,-2.111666666666667,-0.29333333333333345,gamble,win,1.525,86.71458333333338,678.7592102841008,None,678.7592102841008,None,678.7592102841008,None,678.7592102841008,None,678.7592102841008,None,678.7592102841008,None,678.7592102841008,None,1,1.684228883124888,678.7592102841008,None,680.4765259544365,None,680.4765259544365,None,680.4765259544365,None,680.4765259544365,None,680.4765259544365,None,680.4765259544365,None,680.4765259544365,None,684.478042349685,None,684.478042349685,None,684.478042349685,None,684.478042349685,None,684.478042349685,None,684.478042349685,None,684.478042349685,None,685.4617475820705,None,,,,,,,,,,,,,,,,,,,,,,,,,,,,,,23550,2020_Jan_06_1543,Mmi_3levels,3.1.5,59.97633713698992,
,,,2,0,6.7,,,,,,,,,0,1,1,1,0,17,17,23,,,,,,,,,,,,,,,,,,,,,,,,,,,,,,,,,,,,,,,,,,,,,,,,,,,,,,,,,,,False,True,False,0.74,0.74,13.3,-23.66,6.7,-16.96,-5.130000000000001,certain,certain,-5.130000000000001,81.58458333333338,687.479172206251,None,687.479172206251,None,687.479172206251,None,687.479172206251,None,687.479172206251,None,687.479172206251,None,687.479172206251,None,3,2.5843800746370107,687.479172206251,None,690.0969366515055,None,690.0969366515055,None,690.0969366515055,None,690.0969366515055,None,690.0969366515055,None,690.0969366515055,None,690.0969366515055,None,694.0983468126506,None,694.0983468126506,None,694.0983468126506,None,694.0983468126506,None,694.0983468126506,None,694.0983468126506,None,694.0983468126506,None,695.0820853232872,None,,,,,,,,,,,,,,,,,,,,,,,,,,,,,,23550,2020_Jan_06_1543,Mmi_3levels,3.1.5,59.97633713698992,
,,,2,0,3.7,,,,,,,,,0,1,1,1,0,18,18,4,,,,,,,,,,,,,,,,,,,,,,,,,,,,,,,,,,,,,,,,,,,,,,,,,,,,,,,,,,,False,True,False,0.74,0.74,14.040000000000001,-24.4,3.7,-20.7,-8.5,gamble,lose,-20.7,60.88458333333338,697.0994952281471,None,697.0994952281471,None,697.0994952281471,None,697.0994952281471,None,697.0994952281471,None,697.0994952281471,None,697.0994952281471,None,1,2.1344305519014597,697.0994952281471,None,699.2669706495944,None,699.2669706495944,None,699.2669706495944,None,699.2669706495944,None,699.2669706495944,None,699.2669706495944,None,699.2669706495944,None,703.2685360019095,None,703.2685360019095,None,703.2685360019095,None,703.2685360019095,None,703.2685360019095,None,703.2685360019095,None,703.2685360019095,None,712.7554597742856,None,704.2523093905766,None,705.2525692160707,None,0.66,7.502821761881933,708.2537496299483,None,None,708.2537496299483,None,,,,,,,,,,,,,,,,,,,23550,2020_Jan_06_1543,Mmi_3levels,3.1.5,59.97633713698992,
,,,2,0,11.3,,,,,,,,,0,1,1,1,0,19,19,10,,,,,,,,,,,,,,,,,,,,,,,,,,,,,,,,,,,,,,,,,,,,,,,,,,,,,,,,,,,False,False,False,0.66,0.66,14.700000000000001,3.535,2.825,-0.71,1.0575,certain,certain,1.0575,61.94208333333338,714.7728923980612,None,714.7728923980612,None,714.7728923980612,None,714.7728923980612,None,714.7728923980612,None,714.7728923980612,None,714.7728923980612,None,3,1.7343070385977626,714.7728923980612,None,716.5402036686428,None,716.5402036686428,None,716.5402036686428,None,716.5402036686428,None,716.5402036686428,None,716.5402036686428,None,716.5402036686428,None,720.5250173190143,None,720.5250173190143,None,720.5250173190143,None,720.5250173190143,None,720.5250173190143,None,720.5250173190143,None,720.5250173190143,None,721.5254044972826,None,,,,,,,,,,,,,,,,,,,,,,,,,,,,,,23550,2020_Jan_06_1543,Mmi_3levels,3.1.5,59.97633713698992,
,,,2,0,13.7,,,,,,,,,0,1,1,1,0,20,20,5,,,,,,,,,,,,,,,,,,,,,,,,,,,,,,,,,,,,,,,,,,,,,,,,,,,,,,,,,,,False,True,False,0.66,0.66,15.360000000000001,-24.6,13.7,-10.900000000000002,1.3999999999999986,certain,certain,1.3999999999999986,63.34208333333338,723.5428777588531,None,723.5428777588531,None,723.5428777588531,None,723.5428777588531,None,723.5428777588531,None,723.5428777588531,None,723.5428777588531,None,3,1.917642371961847,723.5428777588531,None,725.4935685200617,None,725.4935685200617,None,725.4935685200617,None,725.4935685200617,None,725.4935685200617,None,725.4935685200617,None,725.4935685200617,None,729.4951377122197,None,729.4951377122197,None,729.4951377122197,None,729.4951377122197,None,729.4951377122197,None,729.4951377122197,None,729.4951377122197,None,738.9820000480395,None,730.4787821481004,None,731.4792128440458,None,0.69,7.502704008715227,734.4803417408839,None,None,734.4803417408839,None,,,,,,,,,,,,,,,,,,,23550,2020_Jan_06_1543,Mmi_3levels,3.1.5,59.97633713698992,
,,,2,0,0.3,,,,,,,,,0,1,1,1,0,21,21,18,,,,,,,,,,,,,,,,,,,,,,,,,,,,,,,,,,,,,,,,,,,,,,,,,,,,,,,,,,,False,True,True,0.69,0.69,16.05,-25.71,0.3,-25.41,-12.555,gamble,lose,-25.41,37.93208333333338,740.9994816291146,None,740.9994816291146,None,740.9994816291146,None,740.9994816291146,None,740.9994816291146,None,740.9994816291146,None,740.9994816291146,None,1,1.8509056293405592,740.9994816291146,None,742.8835034838412,None,742.8835034838412,None,742.8835034838412,None,742.8835034838412,None,742.8835034838412,None,742.8835034838412,None,742.8835034838412,None,746.8851113936398,None,746.8851113936398,None,746.8851113936398,None,746.8851113936398,None,746.8851113936398,None,746.8851113936398,None,746.8851113936398,None,747.8687187116593,None,,,,,,,,,,,,,,,,,,,,,,,,,,,,,,23550,2020_Jan_06_1543,Mmi_3levels,3.1.5,59.97633713698992,
,,,2,0,5.1,,,,,,,,,0,1,1,1,0,22,22,26,,,,,,,,,,,,,,,,,,,,,,,,,,,,,,,,,,,,,,,,,,,,,,,,,,,,,,,,,,,False,False,True,0.69,0.69,16.740000000000002,3.8100000000000005,1.275,-2.5350000000000006,-0.6300000000000003,certain,certain,-0.6300000000000003,37.30208333333338,749.8861334165558,None,749.8861334165558,None,749.8861334165558,None,749.8861334165558,None,749.8861334165558,None,749.8861334165558,None,749.8861334165558,None,3,1.7509150689002126,749.8861334165558,None,751.6701355923433,None,751.6701355923433,None,751.6701355923433,None,751.6701355923433,None,751.6701355923433,None,751.6701355923433,None,751.6701355923433,None,755.6717543818522,None,755.6717543818522,None,755.6717543818522,None,755.6717543818522,None,755.6717543818522,None,755.6717543818522,None,755.6717543818522,None,765.1586160773877,None,756.655362019781,None,757.6557930356357,None,0.73,7.502710088388994,760.6568924940657,None,None,760.6568924940657,None,,,,,,,,,,,,,,,,,,,23550,2020_Jan_06_1543,Mmi_3levels,3.1.5,59.97633713698992,
,,,2,0,0.7,,,,,,,,,0,1,1,1,0,23,23,20,,,,,,,,,,,,,,,,,,,,,,,,,,,,,,,,,,,,,,,,,,,,,,,,,,,,,,,,,,,False,True,True,0.73,0.73,17.470000000000002,-27.69,0.7,-26.990000000000002,-13.145000000000001,certain,certain,-13.145000000000001,24.157083333333375,767.1760576607194,None,767.1760576607194,None,767.1760576607194,None,767.1760576607194,None,767.1760576607194,None,767.1760576607194,None,767.1760576607194,None,3,1.9842815203592181,767.1760576607194,None,769.1934413271956,None,769.1934413271956,None,769.1934413271956,None,769.1934413271956,None,769.1934413271956,None,769.1934413271956,None,769.1934413271956,None,773.1949983600061,None,773.1949983600061,None,773.1949983600061,None,773.1949983600061,None,773.1949983600061,None,773.1949983600061,None,773.1949983600061,None,774.1786587950774,None,,,,,,,,,,,,,,,,,,,,,,,,,,,,,,23550,2020_Jan_06_1543,Mmi_3levels,3.1.5,59.97633713698992,
,,,2,0,5.9,,,,,,,,,0,1,1,1,0,24,24,3,,,,,,,,,,,,,,,,,,,,,,,,,,,,,,,,,,,,,,,,,,,,,,,,,,,,,,,,,,,False,True,True,0.73,0.73,18.200000000000003,-28.42,5.9,-22.520000000000003,-8.310000000000002,certain,certain,-8.310000000000002,15.847083333333373,776.1961141375359,None,776.1961141375359,None,776.1961141375359,None,776.1961141375359,None,776.1961141375359,None,776.1961141375359,None,776.1961141375359,None,3,1.8176265328656882,776.1961141375359,None,778.0468450565822,None,778.0468450565822,None,778.0468450565822,None,778.0468450565822,None,778.0468450565822,None,778.0468450565822,None,778.0468450565822,None,782.0483540920541,None,782.0483540920541,None,782.0483540920541,None,782.0483540920541,None,782.0483540920541,None,782.0483540920541,None,782.0483540920541,None,783.0320097273216,None,,,,,,,,,,,,,,,,,,,,,,,,,,,,,,23550,2020_Jan_06_1543,Mmi_3levels,3.1.5,59.97633713698992,
,,,2,0,10.1,,,,,,,,,0,1,1,1,0,25,25,19,,,,,,,,,,,,,,,,,,,,,,,,,,,,,,,,,,,,,,,,,,,,,,,,,,,,,,,,,,,False,True,True,0.73,0.73,18.930000000000003,-29.150000000000002,10.1,-19.050000000000004,-4.475000000000002,certain,certain,-4.475000000000002,11.372083333333372,785.0494349915534,None,785.0494349915534,None,785.0494349915534,None,785.0494349915534,None,785.0494349915534,None,785.0494349915534,None,785.0494349915534,None,3,1.450793955475092,785.0494349915534,None,786.533373971004,None,786.533373971004,None,786.533373971004,None,786.533373971004,None,786.533373971004,None,786.533373971004,None,786.533373971004,None,790.534888446331,None,790.534888446331,None,790.534888446331,None,790.534888446331,None,790.534888446331,None,790.534888446331,None,790.534888446331,None,800.0218253377825,None,791.518604558194,None,792.5189840567764,None,0.73,7.502737286733463,795.5200886349194,None,None,795.5200886349194,None,,,,,,,,,,,,,,,,,,,23550,2020_Jan_06_1543,Mmi_3levels,3.1.5,59.97633713698992,
,,,2,0,12.7,,,,,,,,,0,1,1,1,0,26,26,17,,,,,,,,,,,,,,,,,,,,,,,,,,,,,,,,,,,,,,,,,,,,,,,,,,,,,,,,,,,False,True,True,0.73,0.73,19.660000000000004,-29.880000000000003,12.7,-17.180000000000003,-2.240000000000002,gamble,lose,-17.180000000000003,-5.807916666666632,802.0392525219359,None,802.0392525219359,None,802.0392525219359,None,802.0392525219359,None,802.0392525219359,None,802.0392525219359,None,802.0392525219359,None,1,2.851327365729958,802.0392525219359,None,804.9236845937558,None,804.9236845937558,None,804.9236845937558,None,804.9236845937558,None,804.9236845937558,None,804.9236845937558,None,804.9236845937558,None,808.9251974688377,None,808.9251974688377,None,808.9251974688377,None,808.9251974688377,None,808.9251974688377,None,808.9251974688377,None,808.9251974688377,None,809.9089247800875,None,,,,,,,,,,,,,,,,,,,,,,,,,,,,,,23550,2020_Jan_06_1543,Mmi_3levels,3.1.5,59.97633713698992,
,,,3,1,11.1,,,,,,,,,0,2,2,2,0,0,0,17,,,,,,,,,,,,,,,,,,,,,,,,,,,,,,,,,,,,,,,,,,,,,,,,819.9793566761073,None,0.72,7.502025646390393,822.980448134942,None,None,822.980448134942,None,827.4821509195026,None,True,True,False,0.72,-0.28,-0.28,4.2,11.1,6.8999999999999995,3.4499999999999997,gamble,win,11.1,5.292083333333368,830.5167118641548,None,830.5167118641548,None,830.5167118641548,None,830.5167118641548,None,830.5167118641548,None,830.5167118641548,None,830.5167118641548,None,1,1.2840458534192294,830.5167118641548,None,831.8338694632985,None,831.8338694632985,None,831.8338694632985,None,831.8338694632985,None,831.8338694632985,None,831.8338694632985,None,831.8338694632985,None,835.8353516203351,None,835.8353516203351,None,835.8353516203351,None,835.8353516203351,None,835.8353516203351,None,835.8353516203351,None,835.8353516203351,None,845.3223064308986,None,836.8190869311802,None,837.819416192593,None,0.73,7.5027728045824915,840.8205399697181,None,None,840.8205399697181,None,811.9096536994912,None,4,8.053223899332806,811.9096536994912,None,,,,,,,,,,,,,23550,2020_Jan_06_1543,Mmi_3levels,3.1.5,59.97633713698992,
,,,3,1,3.9,,,,,,,,,0,2,2,2,0,1,1,19,,,,,,,,,,,,,,,,,,,,,,,,,,,,,,,,,,,,,,,,,,,,,,,,,,,,,,,,,,,True,False,False,0.73,-0.27,-0.55,-0.9908333333333335,3.9,2.9091666666666667,1.4545833333333333,gamble,lose,2.9091666666666667,8.201250000000034,847.3397112160455,None,847.3397112160455,None,847.3397112160455,None,847.3397112160455,None,847.3397112160455,None,847.3397112160455,None,847.3397112160455,None,1,1.350766277173534,847.3397112160455,None,848.7235674802214,None,848.7235674802214,None,848.7235674802214,None,848.7235674802214,None,848.7235674802214,None,848.7235674802214,None,848.7235674802214,None,852.7084374474362,None,852.7084374474362,None,852.7084374474362,None,852.7084374474362,None,852.7084374474362,None,852.7084374474362,None,852.7084374474362,None,853.7087900678162,None,,,,,,,,,,,,,,,,,,,,,,,,,,,,,,23550,2020_Jan_06_1543,Mmi_3levels,3.1.5,59.97633713698992,
,,,3,1,7.9,,,,,,,,,0,2,2,2,0,2,2,16,,,,,,,,,,,,,,,,,,,,,,,,,,,,,,,,,,,,,,,,,,,,,,,,,,,,,,,,,,,True,False,False,0.73,-0.27,-0.8200000000000001,-1.0133333333333334,7.9,6.886666666666667,3.4433333333333334,gamble,lose,6.886666666666667,15.0879166666667,855.726244450314,None,855.726244450314,None,855.726244450314,None,855.726244450314,None,855.726244450314,None,855.726244450314,None,855.726244450314,None,1,1.7175322982948273,855.726244450314,None,857.4768529762514,None,857.4768529762514,None,857.4768529762514,None,857.4768529762514,None,857.4768529762514,None,857.4768529762514,None,857.4768529762514,None,861.461743102409,None,861.461743102409,None,861.461743102409,None,861.461743102409,None,861.461743102409,None,861.461743102409,None,861.461743102409,None,862.462073963834,None,,,,,,,,,,,,,,,,,,,,,,,,,,,,,,23550,2020_Jan_06_1543,Mmi_3levels,3.1.5,59.97633713698992,
,,,3,1,3.3,,,,,,,,,0,2,2,2,0,3,3,24,,,,,,,,,,,,,,,,,,,,,,,,,,,,,,,,,,,,,,,,,,,,,,,,,,,,,,,,,,,True,True,True,0.73,-0.27,-1.09,4.87,3.3,-1.5700000000000003,0.8649999999999998,certain,certain,0.8649999999999998,15.9529166666667,864.4795625845436,None,864.4795625845436,None,864.4795625845436,None,864.4795625845436,None,864.4795625845436,None,864.4795625845436,None,864.4795625845436,None,3,2.067689969437197,864.4795625845436,None,866.5803025430068,None,866.5803025430068,None,866.5803025430068,None,866.5803025430068,None,866.5803025430068,None,866.5803025430068,None,866.5803025430068,None,870.5818685353734,None,870.5818685353734,None,870.5818685353734,None,870.5818685353734,None,870.5818685353734,None,870.5818685353734,None,870.5818685353734,None,880.068716471782,None,871.5655174509156,None,872.5659487869125,None,0.73,7.502537937834859,875.567066804273,None,None,875.567066804273,None,,,,,,,,,,,,,,,,,,,23550,2020_Jan_06_1543,Mmi_3levels,3.1.5,59.97633713698992,
,,,3,1,7.1,,,,,,,,,0,2,2,2,0,4,4,11,,,,,,,,,,,,,,,,,,,,,,,,,,,,,,,,,,,,,,,,,,,,,,,,,,,,,,,,,,,True,False,True,0.73,-0.27,-1.36,-1.0583333333333333,7.1,6.041666666666666,3.020833333333333,gamble,lose,6.041666666666666,21.994583333333367,882.0861670146696,None,882.0861670146696,None,882.0861670146696,None,882.0861670146696,None,882.0861670146696,None,882.0861670146696,None,882.0861670146696,None,1,1.8010453814640641,882.0861670146696,None,883.9202579054981,None,883.9202579054981,None,883.9202579054981,None,883.9202579054981,None,883.9202579054981,None,883.9202579054981,None,883.9202579054981,None,887.9050878749695,None,887.9050878749695,None,887.9050878749695,None,887.9050878749695,None,887.9050878749695,None,887.9050878749695,None,887.9050878749695,None,888.9054353756364,None,,,,,,,,,,,,,,,,,,,,,,,,,,,,,,23550,2020_Jan_06_1543,Mmi_3levels,3.1.5,59.97633713698992,
,,,3,1,1.5,,,,,,,,,0,2,2,2,0,5,5,4,,,,,,,,,,,,,,,,,,,,,,,,,,,,,,,,,,,,,,,,,,,,,,,,,,,,,,,,,,,True,False,True,0.73,-0.27,-1.6300000000000001,-1.0808333333333333,1.5,0.4191666666666667,0.9595833333333333,gamble,lose,0.4191666666666667,22.413750000000032,890.9228705591522,None,890.9228705591522,None,890.9228705591522,None,890.9228705591522,None,890.9228705591522,None,890.9228705591522,None,890.9228705591522,None,1,1.3674440630711615,890.9228705591522,None,892.3234014094342,None,892.3234014094342,None,892.3234014094342,None,892.3234014094342,None,892.3234014094342,None,892.3234014094342,None,892.3234014094342,None,896.3082022606395,None,896.3082022606395,None,896.3082022606395,None,896.3082022606395,None,896.3082022606395,None,896.3082022606395,None,896.3082022606395,None,905.8118390170857,None,897.3086460758932,None,898.3090287742671,None,0.74,7.502917756559327,901.3101170335431,None,None,901.3101170335431,None,,,,,,,,,,,,,,,,,,,23550,2020_Jan_06_1543,Mmi_3levels,3.1.5,59.97633713698992,
,,,3,1,8.1,,,,,,,,,0,2,2,2,0,6,6,10,,,,,,,,,,,,,,,,,,,,,,,,,,,,,,,,,,,,,,,,,,,,,,,,,,,,,,,,,,,True,False,True,0.74,-0.26,-1.8900000000000001,-1.0675000000000001,8.1,7.0325,3.51625,gamble,lose,7.0325,29.44625000000003,907.8293013991788,None,907.8293013991788,None,907.8293013991788,None,907.8293013991788,None,907.8293013991788,None,907.8293013991788,None,907.8293013991788,None,None,,907.8293013991788,None,910.8304939724039,None,910.8304939724039,None,910.8304939724039,None,910.8304939724039,None,910.8304939724039,None,910.8304939724039,None,910.8304939724039,None,914.8320122873411,None,914.8320122873411,None,914.8320122873411,None,914.8320122873411,None,914.8320122873411,None,914.8320122873411,None,914.8320122873411,None,915.8156573632732,None,,,,,,,,,,,,,,,,,,,,,,,,,,,,,,23550,2020_Jan_06_1543,Mmi_3levels,3.1.5,59.97633713698992,
,,,3,1,0.5,,,,,,,,,0,2,2,2,0,7,7,15,,,,,,,,,,,,,,,,,,,,,,,,,,,,,,,,,,,,,,,,,,,,,,,,,,,,,,,,,,,True,True,False,0.74,-0.26,-2.1500000000000004,5.790000000000001,0.5,-5.290000000000001,-2.3950000000000005,certain,certain,-2.3950000000000005,27.05125000000003,917.8330339901149,None,917.8330339901149,None,917.8330339901149,None,917.8330339901149,None,917.8330339901149,None,917.8330339901149,None,917.8330339901149,None,3,2.217612773645669,917.8330339901149,None,920.0839255400933,None,920.0839255400933,None,920.0839255400933,None,920.0839255400933,None,920.0839255400933,None,920.0839255400933,None,920.0839255400933,None,924.0854451351333,None,924.0854451351333,None,924.0854451351333,None,924.0854451351333,None,924.0854451351333,None,924.0854451351333,None,924.0854451351333,None,933.5723231500015,None,925.0691052500624,None,926.0694937084336,None,0.7,7.5027196877636015,929.0706325245555,None,None,929.0706325245555,None,,,,,,,,,,,,,,,,,,,23550,2020_Jan_06_1543,Mmi_3levels,3.1.5,59.97633713698992,
,,,3,1,-0.5,,,,,,,,,0,2,2,2,0,8,8,2,,,,,,,,,,,,,,,,,,,,,,,,,,,,,,,,,,,,,,,,,,,,,,,,,,,,,,,,,,,True,False,False,0.7,-0.30000000000000004,-2.45,-1.2541666666666669,-0.5,-1.7541666666666669,-1.1270833333333334,certain,certain,-1.1270833333333334,25.924166666666697,935.5898040910251,None,935.5898040910251,None,935.5898040910251,None,935.5898040910251,None,935.5898040910251,None,935.5898040910251,None,935.5898040910251,None,3,2.301120097283274,935.5898040910251,None,937.924029534217,None,937.924029534217,None,937.924029534217,None,937.924029534217,None,937.924029534217,None,937.924029534217,None,937.924029534217,None,941.92548929248,None,941.92548929248,None,941.92548929248,None,941.92548929248,None,941.92548929248,None,941.92548929248,None,941.92548929248,None,942.9091913253069,None,,,,,,,,,,,,,,,,,,,,,,,,,,,,,,23550,2020_Jan_06_1543,Mmi_3levels,3.1.5,59.97633713698992,
,,,3,1,-0.1,,,,,,,,,0,2,2,2,0,9,9,21,,,,,,,,,,,,,,,,,,,,,,,,,,,,,,,,,,,,,,,,,,,,,,,,,,,,,,,,,,,True,True,True,0.7,-0.30000000000000004,-2.75,6.950000000000001,-0.1,-7.050000000000001,-3.575,gamble,win,-0.1,25.824166666666695,944.9266719464213,None,944.9266719464213,None,944.9266719464213,None,944.9266719464213,None,944.9266719464213,None,944.9266719464213,None,944.9266719464213,None,None,,944.9266719464213,None,947.927797643235,None,947.927797643235,None,947.927797643235,None,947.927797643235,None,947.927797643235,None,947.927797643235,None,947.927797643235,None,951.9292762805708,None,951.9292762805708,None,951.9292762805708,None,951.9292762805708,None,951.9292762805708,None,951.9292762805708,None,951.9292762805708,None,952.9130538289901,None,,,,,,,,,,,,,,,,,,,,,,,,,,,,,,23550,2020_Jan_06_1543,Mmi_3levels,3.1.5,59.97633713698992,
,,,3,1,4.7,,,,,,,,,0,2,2,2,0,10,10,25,,,,,,,,,,,,,,,,,,,,,,,,,,,,,,,,,,,,,,,,,,,,,,,,,,,,,,,,,,,True,True,True,0.7,-0.30000000000000004,-3.05,7.250000000000001,4.7,-2.5500000000000007,1.0749999999999997,gamble,win,4.7,30.524166666666694,954.9304605342913,None,954.9304605342913,None,954.9304605342913,None,954.9304605342913,None,954.9304605342913,None,954.9304605342913,None,954.9304605342913,None,1,1.5341764860786498,954.9304605342913,None,956.4977218876593,None,956.4977218876593,None,956.4977218876593,None,956.4977218876593,None,956.4977218876593,None,956.4977218876593,None,956.4977218876593,None,960.4825729758013,None,960.4825729758013,None,960.4825729758013,None,960.4825729758013,None,960.4825729758013,None,960.4825729758013,None,960.4825729758013,None,969.9861626948696,None,961.4828919980209,None,962.4832666970324,None,0.74,7.502783044241369,965.484391113976,None,None,965.484391113976,None,,,,,,,,,,,,,,,,,,,23550,2020_Jan_06_1543,Mmi_3levels,3.1.5,59.97633713698992,
,,,3,1,11.3,,,,,,,,,0,2,2,2,0,11,11,22,,,,,,,,,,,,,,,,,,,,,,,,,,,,,,,,,,,,,,,,,,,,,,,,,,,,,,,,,,,True,True,True,0.74,-0.26,-3.3099999999999996,6.949999999999999,11.3,4.350000000000001,2.1750000000000007,gamble,win,11.3,41.8241666666667,972.003533882089,None,972.003533882089,None,972.003533882089,None,972.003533882089,None,972.003533882089,None,972.003533882089,None,972.003533882089,None,1,1.217392625985667,972.003533882089,None,973.2540161751676,None,973.2540161751676,None,973.2540161751676,None,973.2540161751676,None,973.2540161751676,None,973.2540161751676,None,973.2540161751676,None,977.2388538240921,None,977.2388538240921,None,977.2388538240921,None,977.2388538240921,None,977.2388538240921,None,977.2388538240921,None,977.2388538240921,None,978.2392819602974,None,,,,,,,,,,,,,,,,,,,,,,,,,,,,,,23550,2020_Jan_06_1543,Mmi_3levels,3.1.5,59.97633713698992,
,,,3,1,10.9,,,,,,,,,0,2,2,2,0,12,12,6,,,,,,,,,,,,,,,,,,,,,,,,,,,,,,,,,,,,,,,,,,,,,,,,,,,,,,,,,,,True,True,False,0.74,-0.26,-3.5699999999999994,7.209999999999999,10.9,3.6900000000000013,1.8450000000000006,gamble,win,10.9,52.7241666666667,980.2567277031485,None,980.2567277031485,None,980.2567277031485,None,980.2567277031485,None,980.2567277031485,None,980.2567277031485,None,980.2567277031485,None,1,1.7008593117352575,980.2567277031485,None,981.9906514035538,None,981.9906514035538,None,981.9906514035538,None,981.9906514035538,None,981.9906514035538,None,981.9906514035538,None,981.9906514035538,None,985.992182517657,None,985.992182517657,None,985.992182517657,None,985.992182517657,None,985.992182517657,None,985.992182517657,None,985.992182517657,None,995.4790877311025,None,986.9758765508886,None,987.9763459647074,None,0.67,7.5027136080898345,990.977392625995,None,None,990.977392625995,None,,,,,,,,,,,,,,,,,,,23550,2020_Jan_06_1543,Mmi_3levels,3.1.5,59.97633713698992,
,,,3,1,0.7,,,,,,,,,0,2,2,2,0,13,13,13,,,,,,,,,,,,,,,,,,,,,,,,,,,,,,,,,,,,,,,,,,,,,,,,,,,,,,,,,,,True,True,True,0.67,-0.32999999999999996,-3.8999999999999995,8.52,0.7,-7.819999999999999,-3.5599999999999996,certain,certain,-3.5599999999999996,49.164166666666695,997.4965750717092,None,997.4965750717092,None,997.4965750717092,None,997.4965750717092,None,997.4965750717092,None,997.4965750717092,None,997.4965750717092,None,3,2.4676765301264822,997.4965750717092,None,999.9975194989238,None,999.9975194989238,None,999.9975194989238,None,999.9975194989238,None,999.9975194989238,None,999.9975194989238,None,999.9975194989238,None,1003.9990416537039,None,1003.9990416537039,None,1003.9990416537039,None,1003.9990416537039,None,1003.9990416537039,None,1003.9990416537039,None,1003.9990416537039,None,1004.9827388864942,None,,,,,,,,,,,,,,,,,,,,,,,,,,,,,,23550,2020_Jan_06_1543,Mmi_3levels,3.1.5,59.97633713698992,
,,,3,1,12.5,,,,,,,,,0,2,2,2,0,14,14,1,,,,,,,,,,,,,,,,,,,,,,,,,,,,,,,,,,,,,,,,,,,,,,,,,,,,,,,,,,,True,True,True,0.67,-0.32999999999999996,-4.2299999999999995,8.849999999999998,12.5,3.650000000000002,1.825000000000001,gamble,win,12.5,61.664166666666695,1007.0001209531911,None,1007.0001209531911,None,1007.0001209531911,None,1007.0001209531911,None,1007.0001209531911,None,1007.0001209531911,None,1007.0001209531911,None,1,1.9511147374287248,1007.0001209531911,None,1008.9842562417034,None,1008.9842562417034,None,1008.9842562417034,None,1008.9842562417034,None,1008.9842562417034,None,1008.9842562417034,None,1008.9842562417034,None,1012.985710240202,None,1012.985710240202,None,1012.985710240202,None,1012.985710240202,None,1012.985710240202,None,1012.985710240202,None,1012.985710240202,None,1013.9694778693374,None,,,,,,,,,,,,,,,,,,,,,,,,,,,,,,23550,2020_Jan_06_1543,Mmi_3levels,3.1.5,59.97633713698992,
,,,3,1,1.1,,,,,,,,,0,2,2,2,0,15,15,14,,,,,,,,,,,,,,,,,,,,,,,,,,,,,,,,,,,,,,,,,,,,,,,,,,,,,,,,,,,True,True,True,0.67,-0.32999999999999996,-4.56,9.18,1.1,-8.08,-3.49,gamble,win,1.1,62.764166666666696,1015.9868519362062,None,1015.9868519362062,None,1015.9868519362062,None,1015.9868519362062,None,1015.9868519362062,None,1015.9868519362062,None,1015.9868519362062,None,1,2.7346596592105925,1015.9868519362062,None,1018.7545913427602,None,1018.7545913427602,None,1018.7545913427602,None,1018.7545913427602,None,1018.7545913427602,None,1018.7545913427602,None,1018.7545913427602,None,1022.7560792595614,None,1022.7560792595614,None,1022.7560792595614,None,1022.7560792595614,None,1022.7560792595614,None,1022.7560792595614,None,1022.7560792595614,None,1032.24305966869,None,1023.7397864118684,None,1024.7401643106714,None,0.72,7.502810882404447,1027.741264729062,None,None,1027.741264729062,None,,,,,,,,,,,,,,,,,,,23550,2020_Jan_06_1543,Mmi_3levels,3.1.5,59.97633713698992,
,,,3,1,11.9,,,,,,,,,0,2,2,2,0,16,16,9,,,,,,,,,,,,,,,,,,,,,,,,,,,,,,,,,,,,,,,,,,,,,,,,,,,,,,,,,,,True,False,True,0.72,-0.28,-4.84,-1.3833333333333333,11.9,10.516666666666667,5.258333333333334,gamble,lose,10.516666666666667,73.28083333333336,1034.2605057316832,None,1034.2605057316832,None,1034.2605057316832,None,1034.2605057316832,None,1034.2605057316832,None,1034.2605057316832,None,1034.2605057316832,None,1,1.067287112120539,1034.2605057316832,None,1035.3608789907303,None,1035.3608789907303,None,1035.3608789907303,None,1035.3608789907303,None,1035.3608789907303,None,1035.3608789907303,None,1035.3608789907303,None,1039.3624369835015,None,1039.3624369835015,None,1039.3624369835015,None,1039.3624369835015,None,1039.3624369835015,None,1039.3624369835015,None,1039.3624369835015,None,1040.3460785395,None,,,,,,,,,,,,,,,,,,,,,,,,,,,,,,23550,2020_Jan_06_1543,Mmi_3levels,3.1.5,59.97633713698992,
,,,3,1,6.5,,,,,,,,,0,2,2,2,0,17,17,0,,,,,,,,,,,,,,,,,,,,,,,,,,,,,,,,,,,,,,,,,,,,,,,,,,,,,,,,,,,True,True,False,0.72,-0.28,-5.12,9.040000000000001,6.5,-2.540000000000001,1.9799999999999995,gamble,win,6.5,79.78083333333336,1042.3635326020885,None,1042.3635326020885,None,1042.3635326020885,None,1042.3635326020885,None,1042.3635326020885,None,1042.3635326020885,None,1042.3635326020885,None,1,1.767610453767702,1042.3635326020885,None,1044.1641860054806,None,1044.1641860054806,None,1044.1641860054806,None,1044.1641860054806,None,1044.1641860054806,None,1044.1641860054806,None,1044.1641860054806,None,1048.1657078403514,None,1048.1657078403514,None,1048.1657078403514,None,1048.1657078403514,None,1048.1657078403514,None,1048.1657078403514,None,1048.1657078403514,None,1057.6526264930144,None,1049.149461710127,None,1050.1497800922953,None,0.72,7.502685769693926,1053.1509080291726,None,None,1053.1509080291726,None,,,,,,,,,,,,,,,,,,,23550,2020_Jan_06_1543,Mmi_3levels,3.1.5,59.97633713698992,
,,,3,1,9.3,,,,,,,,,0,2,2,2,0,18,18,8,,,,,,,,,,,,,,,,,,,,,,,,,,,,,,,,,,,,,,,,,,,,,,,,,,,,,,,,,,,True,True,False,0.72,-0.28,-5.4,9.32,9.3,-0.019999999999999574,-0.009999999999999787,gamble,win,9.3,89.08083333333336,1059.6701202332042,None,1059.6701202332042,None,1059.6701202332042,None,1059.6701202332042,None,1059.6701202332042,None,1059.6701202332042,None,1059.6701202332042,None,1,1.9343083186540753,1059.6701202332042,None,1061.6375220587943,None,1061.6375220587943,None,1061.6375220587943,None,1061.6375220587943,None,1061.6375220587943,None,1061.6375220587943,None,1061.6375220587943,None,1065.6390413336921,None,1065.6390413336921,None,1065.6390413336921,None,1065.6390413336921,None,1065.6390413336921,None,1065.6390413336921,None,1065.6390413336921,None,1066.6226854496635,None,,,,,,,,,,,,,,,,,,,,,,,,,,,,,,23550,2020_Jan_06_1543,Mmi_3levels,3.1.5,59.97633713698992,
,,,3,1,13.1,,,,,,,,,0,2,2,2,0,19,19,12,,,,,,,,,,,,,,,,,,,,,,,,,,,,,,,,,,,,,,,,,,,,,,,,,,,,,,,,,,,True,False,False,0.72,-0.28,-5.680000000000001,-1.4533333333333336,13.1,11.646666666666667,5.823333333333333,gamble,lose,11.646666666666667,100.72750000000002,1068.6401734303217,None,1068.6401734303217,None,1068.6401734303217,None,1068.6401734303217,None,1068.6401734303217,None,1068.6401734303217,None,1068.6401734303217,None,1,1.100689401384443,1068.6401734303217,None,1069.7739473788533,None,1069.7739473788533,None,1069.7739473788533,None,1069.7739473788533,None,1069.7739473788533,None,1069.7739473788533,None,1069.7739473788533,None,1073.7754362556152,None,1073.7754362556152,None,1073.7754362556152,None,1073.7754362556152,None,1073.7754362556152,None,1073.7754362556152,None,1073.7754362556152,None,1083.2623478684109,None,1074.7591229290701,None,1075.7595536250155,None,0.82,7.502641932107508,1078.760630684672,None,None,1078.760630684672,None,,,,,,,,,,,,,,,,,,,23550,2020_Jan_06_1543,Mmi_3levels,3.1.5,59.97633713698992,
,,,3,1,12.1,,,,,,,,,0,2,2,2,0,20,20,7,,,,,,,,,,,,,,,,,,,,,,,,,,,,,,,,,,,,,,,,,,,,,,,,,,,,,,,,,,,True,True,True,0.82,-0.18000000000000005,-5.86,8.38,12.1,3.719999999999999,1.8599999999999994,gamble,win,12.1,112.82750000000001,1085.2798025710508,None,1085.2798025710508,None,1085.2798025710508,None,1085.2798025710508,None,1085.2798025710508,None,1085.2798025710508,None,1085.2798025710508,None,1,0.9006228451617062,1085.2798025710508,None,1086.2134898046497,None,1086.2134898046497,None,1086.2134898046497,None,1086.2134898046497,None,1086.2134898046497,None,1086.2134898046497,None,1086.2134898046497,None,1090.2150545169134,None,1090.2150545169134,None,1090.2150545169134,None,1090.2150545169134,None,1090.2150545169134,None,1090.2150545169134,None,1090.2150545169134,None,1091.1987264712807,None,,,,,,,,,,,,,,,,,,,,,,,,,,,,,,23550,2020_Jan_06_1543,Mmi_3levels,3.1.5,59.97633713698992,
,,,3,1,7.7,,,,,,,,,0,2,2,2,0,21,21,5,,,,,,,,,,,,,,,,,,,,,,,,,,,,,,,,,,,,,,,,,,,,,,,,,,,,,,,,,,,True,True,False,0.82,-0.18000000000000005,-6.04,8.56,7.7,-0.8600000000000003,-0.43000000000000016,gamble,win,7.7,120.52750000000002,1093.216138296295,None,1093.216138296295,None,1093.216138296295,None,1093.216138296295,None,1093.216138296295,None,1093.216138296295,None,1093.216138296295,None,1,1.9676485317759216,1093.216138296295,None,1095.2168825746048,None,1095.2168825746048,None,1095.2168825746048,None,1095.2168825746048,None,1095.2168825746048,None,1095.2168825746048,None,1095.2168825746048,None,1099.2183858503122,None,1099.2183858503122,None,1099.2183858503122,None,1099.2183858503122,None,1099.2183858503122,None,1099.2183858503122,None,1099.2183858503122,None,1100.2020651642233,None,,,,,,,,,,,,,,,,,,,,,,,,,,,,,,23550,2020_Jan_06_1543,Mmi_3levels,3.1.5,59.97633713698992,
,,,3,1,12.9,,,,,,,,,0,2,2,2,0,22,22,20,,,,,,,,,,,,,,,,,,,,,,,,,,,,,,,,,,,,,,,,,,,,,,,,,,,,,,,,,,,True,True,True,0.82,-0.18000000000000005,-6.22,8.74,12.9,4.16,2.08,gamble,win,12.9,133.4275,1102.2195326662622,None,1102.2195326662622,None,1102.2195326662622,None,1102.2195326662622,None,1102.2195326662622,None,1102.2195326662622,None,1102.2195326662622,None,1,0.8337437103036791,1102.2195326662622,None,1103.086545233382,None,1103.086545233382,None,1103.086545233382,None,1103.086545233382,None,1103.086545233382,None,1103.086545233382,None,1103.086545233382,None,1107.0880561887752,None,1107.0880561887752,None,1107.0880561887752,None,1107.0880561887752,None,1107.0880561887752,None,1107.0880561887752,None,1107.0880561887752,None,1116.5749076451175,None,1108.07175790146,None,1109.0720862031449,None,0.74,7.5030214306898415,1112.0732109402306,None,None,1112.0732109402306,None,,,,,,,,,,,,,,,,,,,23550,2020_Jan_06_1543,Mmi_3levels,3.1.5,59.97633713698992,
,,,3,1,4.5,,,,,,,,,0,2,2,2,0,23,23,3,,,,,,,,,,,,,,,,,,,,,,,,,,,,,,,,,,,,,,,,,,,,,,,,,,,,,,,,,,,True,False,True,0.74,-0.26,-6.4799999999999995,-1.45,4.5,3.05,1.525,gamble,lose,3.05,136.47750000000002,1118.5923549882136,None,1118.5923549882136,None,1118.5923549882136,None,1118.5923549882136,None,1118.5923549882136,None,1118.5923549882136,None,1118.5923549882136,None,1,2.517876598984003,1118.5923549882136,None,1121.1433759708889,None,1121.1433759708889,None,1121.1433759708889,None,1121.1433759708889,None,1121.1433759708889,None,1121.1433759708889,None,1121.1433759708889,None,1125.1448571679648,None,1125.1448571679648,None,1125.1448571679648,None,1125.1448571679648,None,1125.1448571679648,None,1125.1448571679648,None,1125.1448571679648,None,1126.1285438414197,None,,,,,,,,,,,,,,,,,,,,,,,,,,,,,,23550,2020_Jan_06_1543,Mmi_3levels,3.1.5,59.97633713698992,
,,,3,1,8.5,,,,,,,,,0,2,2,2,0,24,24,18,,,,,,,,,,,,,,,,,,,,,,,,,,,,,,,,,,,,,,,,,,,,,,,,,,,,,,,,,,,True,True,True,0.74,-0.26,-6.739999999999999,10.379999999999999,8.5,-1.879999999999999,-0.9399999999999995,gamble,win,8.5,144.97750000000002,1128.145971025573,None,1128.145971025573,None,1128.145971025573,None,1128.145971025573,None,1128.145971025573,None,1128.145971025573,None,1128.145971025573,None,1,2.2511190574150532,1128.145971025573,None,1130.4301855096128,None,1130.4301855096128,None,1130.4301855096128,None,1130.4301855096128,None,1130.4301855096128,None,1130.4301855096128,None,1130.4301855096128,None,1134.43168750545,None,1134.43168750545,None,1134.43168750545,None,1134.43168750545,None,1134.43168750545,None,1134.43168750545,None,1134.43168750545,None,1143.9186074379832,None,1135.4154445750173,None,1136.4157690368593,None,0.73,7.5028073627036065,1139.4168940938544,None,None,1139.4168940938544,None,,,,,,,,,,,,,,,,,,,23550,2020_Jan_06_1543,Mmi_3levels,3.1.5,59.97633713698992,
,,,3,1,10.7,,,,,,,,,0,2,2,2,0,25,25,23,,,,,,,,,,,,,,,,,,,,,,,,,,,,,,,,,,,,,,,,,,,,,,,,,,,,,,,,,,,True,True,True,0.73,-0.27,-7.01,10.79,10.7,-0.08999999999999986,-0.04499999999999993,gamble,win,10.7,155.6775,1145.9360400617588,None,1145.9360400617588,None,1145.9360400617588,None,1145.9360400617588,None,1145.9360400617588,None,1145.9360400617588,None,1145.9360400617588,None,1,1.6175516571383923,1145.9360400617588,None,1147.5866858656518,None,1147.5866858656518,None,1147.5866858656518,None,1147.5866858656518,None,1147.5866858656518,None,1147.5866858656518,None,1147.5866858656518,None,1151.5881846616976,None,1151.5881846616976,None,1151.5881846616976,None,1151.5881846616976,None,1151.5881846616976,None,1151.5881846616976,None,1151.5881846616976,None,1152.5719222123735,None,,,,,,,,,,,,,,,,,,,,,,,,,,,,,,23550,2020_Jan_06_1543,Mmi_3levels,3.1.5,59.97633713698992,
,,,3,1,1.9,,,,,,,,,0,2,2,2,0,26,26,26,,,,,,,,,,,,,,,,,,,,,,,,,,,,,,,,,,,,,,,,,,,,,,,,,,,,,,,,,,,True,True,True,0.73,-0.27,-7.279999999999999,11.059999999999999,1.9,-9.159999999999998,-3.629999999999999,gamble,win,1.9,157.57750000000001,1154.589376274962,None,1154.589376274962,None,1154.589376274962,None,1154.589376274962,None,1154.589376274962,None,1154.589376274962,None,1154.589376274962,None,None,,1154.589376274962,None,1157.5904830929358,None,1157.5904830929358,None,1157.5904830929358,None,1157.5904830929358,None,1157.5904830929358,None,1157.5904830929358,None,1157.5904830929358,None,1161.5920222066343,None,1161.5920222066343,None,1161.5920222066343,None,1161.5920222066343,None,1161.5920222066343,None,1161.5920222066343,None,1161.5920222066343,None,1171.0788861424662,None,1162.5756724022795,None,1163.5760774996597,None,0.73,7.502689289394766,1166.577174718259,None,None,1166.577174718259,None,,,,,,,,,,,,,,,,,,,23550,2020_Jan_06_1543,Mmi_3levels,3.1.5,59.97633713698992,
,,,,,,,,,,,,,,,,,,,,,,,,,,,,,,0,0,0,0,,,,,,,,,,,,,,,,,,,,,,,,,,,,,,,,,,,,,,,,,,,,,,,,,,,,,,,,,,,,,,,,,,,,,,,,,,,,,,,,,,,,,,,,,,,,,,,,,,,,,,,,,,,,,,,,,,,,,,,,1173.07963778032,None,4,4.7520679642912,1173.07963778032,None,157.57750000000001,4,1177.8648546081968,None,1177.8648546081968,None,1177.8648546081968,None,4,6.836120217340067,1177.8648546081968,None,23550,2020_Jan_06_1543,Mmi_3levels,3.1.5,59.97633713698992,
