currSlide,currImage,currText,blockNum,targetHappiness,highAmount,instructionLoop1.thisRepN,instructionLoop1.thisTrialN,instructionLoop1.thisN,instructionLoop1.thisIndex,instructionLoop2.thisRepN,instructionLoop2.thisTrialN,instructionLoop2.thisN,instructionLoop2.thisIndex,blockLoop.thisRepN,blockLoop.thisTrialN,blockLoop.thisN,blockLoop.thisIndex,trialLoop.thisRepN,trialLoop.thisTrialN,trialLoop.thisN,trialLoop.thisIndex,doRatingLoop.thisRepN,doRatingLoop.thisTrialN,doRatingLoop.thisN,doRatingLoop.thisIndex,trialHappyLoop.thisRepN,trialHappyLoop.thisTrialN,trialHappyLoop.thisN,trialHappyLoop.thisIndex,logWinningsLoop.thisRepN,logWinningsLoop.thisTrialN,logWinningsLoop.thisN,logWinningsLoop.thisIndex,instrImage.started,instrImage.stopped,instrText.started,instrText.stopped,instrContinueText.started,instrContinueText.stopped,instrKeyResp.keys,instrKeyResp.rt,instrKeyResp.started,instrKeyResp.stopped,lifeHappyText.started,lifeHappyText.stopped,lifeHappySlider.response,lifeHappySlider.rt,lifeHappySlider.started,lifeHappySlider.stopped,lifeHappyResp.keys,lifeHappyResp.started,lifeHappyResp.stopped,instrImage_2.started,instrImage_2.stopped,instrText_2.started,instrText_2.stopped,instrContinueText_2.started,instrContinueText_2.stopped,instrKeyResp_2.keys,instrKeyResp_2.rt,instrKeyResp_2.started,instrKeyResp_2.stopped,localizing.started,localizing.stopped,start_exp.keys,start_exp.rt,start_exp.started,start_exp.stopped,blockHappyText.started,blockHappyText.stopped,blockHappySlider.response,blockHappySlider.rt,blockHappySlider.started,blockHappySlider.stopped,blockHappyResp.keys,blockHappyResp.started,blockHappyResp.stopped,blankText.started,blankText.stopped,isHappyBlock,isCongruent,isWinOnTop,lastHappyRating,diff,sumDiff,RPE,winAmount,loseAmount,certainAmount,choice,outcome,outcomeAmount,currentWinnings,fixCross.started,fixCross.stopped,certainBox.started,certainBox.stopped,outcome1Box.started,outcome1Box.stopped,outcome2Box.started,outcome2Box.stopped,certainText.started,certainText.stopped,outcome1Text.started,outcome1Text.stopped,outcome2Text.started,outcome2Text.stopped,choiceKey.keys,choiceKey.rt,choiceKey.started,choiceKey.stopped,fixCross_2.started,fixCross_2.stopped,certainBox_2.started,certainBox_2.stopped,outcome1Box_2.started,outcome1Box_2.stopped,outcome2Box_2.started,outcome2Box_2.stopped,certainText_2.started,certainText_2.stopped,outcome1Text_2.started,outcome1Text_2.stopped,outcome2Text_2.started,outcome2Text_2.stopped,fixCross_3.started,fixCross_3.stopped,certainBox_3.started,certainBox_3.stopped,outcome1Box_3.started,outcome1Box_3.stopped,outcome2Box_3.started,outcome2Box_3.stopped,certainText_3.started,certainText_3.stopped,outcome1Text_3.started,outcome1Text_3.stopped,outcome2Text_3.started,outcome2Text_3.stopped,fixCross_ITI.started,fixCross_ITI.stopped,fixCross_ISI.started,fixCross_ISI.stopped,happyText.started,happyText.stopped,happySlider.response,happySlider.rt,happySlider.started,happySlider.stopped,happyResp.keys,happyResp.started,happyResp.stopped,endOfBlockText.started,endOfBlockText.stopped,restKeyResp.keys,restKeyResp.rt,restKeyResp.started,restKeyResp.stopped,finalWinnings,cashBonus,goodbyeText.started,goodbyeText.stopped,finalWinningsText.started,finalWinningsText.stopped,spaceToContinue.started,spaceToContinue.stopped,goodbyeKeyResp_2.keys,goodbyeKeyResp_2.rt,goodbyeKeyResp_2.started,goodbyeKeyResp_2.stopped,participant,date,expName,psychopyVersion,frameRate,
1,black.png,"Welcome! You are about to play our gambling task.
This task has 3 blocks and takes about 15 minutes.",,,,0,0,0,0,,,,,,,,,,,,,,,,,,,,,,,,,19.06316798250191,None,19.06316798250191,None,19.06316798250191,None,4,9.88727095280774,19.06316798250191,None,,,,,,,,,,,,,,,,,,,,,,,,,,,,,,,,,,,,,,,,,,,,,,,,,,,,,,,,,,,,,,,,,,,,,,,,,,,,,,,,,,,,,,,,,,,,,,,,,,,,,,,,,,,,,,,,,,,,,,,,,,,,,,,,24085,2020_Jan_03_1519,Mmi_3levels,3.1.5,59.98474074339681,
2,black.png,"In this game, you may win or lose points. Your goal is to get as many points as possible. These points will be converted to a cash bonus at the end.
Sometimes we will ask you to rate your mood.",,,,0,1,1,1,,,,,,,,,,,,,,,,,,,,,,,,,29.000160950934514,None,29.000160950934514,None,29.000160950934514,None,4,4.418702952563763,29.000160950934514,None,,,,,,,,,,,,,,,,,,,,,,,,,,,,,,,,,,,,,,,,,,,,,,,,,,,,,,,,,,,,,,,,,,,,,,,,,,,,,,,,,,,,,,,,,,,,,,,,,,,,,,,,,,,,,,,,,,,,,,,,,,,,,,,,24085,2020_Jan_03_1519,Mmi_3levels,3.1.5,59.98474074339681,
3,black.png,"On the next screen, please rate how you feel about your life these days. Use the LEFT (green) and RIGHT (blue) buttons to move the slider (you can press and hold them to slide gradually) and the TOP (red) button to lock in your response.
Make your rating as accurately and quickly as you can!",,,,0,2,2,2,,,,,,,,,,,,,,,,,,,,,,,,,33.468591678887606,None,33.468591678887606,None,33.468591678887606,None,4,11.121230971068144,33.468591678887606,None,,,,,,,,,,,,,,,,,,,,,,,,,,,,,,,,,,,,,,,,,,,,,,,,,,,,,,,,,,,,,,,,,,,,,,,,,,,,,,,,,,,,,,,,,,,,,,,,,,,,,,,,,,,,,,,,,,,,,,,,,,,,,,,,24085,2020_Jan_03_1519,Mmi_3levels,3.1.5,59.98474074339681,
,,,,,,,,,,,,,,,,,,,,,,,,,,,,,,,,,,,,,,,,,,,,44.60617565410212,None,0.36,10.50269088940695,48.60762421297841,None,None,48.60762421297841,None,,,,,,,,,,,,,,,,,,,,,,,,,,,,,,,,,,,,,,,,,,,,,,,,,,,,,,,,,,,,,,,,,,,,,,,,,,,,,,,,,,,,,,,,,,,,,,,,,,,,,,,,,,,,,,,,,,,,,,,24085,2020_Jan_03_1519,Mmi_3levels,3.1.5,59.98474074339681,
4,black.png,"In this game you can win money by earning points according to your choices. You will decide whether to gamble a number of points or stick with a guaranteed number of points. 
Make your choice by pressing the left or right arrow key once. An example of one trial is shown on the next screen.",,,,,,,,0,0,0,0,,,,,,,,,,,,,,,,,,,,,,,,,,,,,,,,,,,,,,,,55.14347196556628,None,55.14347196556628,None,55.14347196556628,None,4,8.370133832562715,55.14347196556628,None,,,,,,,,,,,,,,,,,,,,,,,,,,,,,,,,,,,,,,,,,,,,,,,,,,,,,,,,,,,,,,,,,,,,,,,,,,,,,,,,,,,,,,,,,,,,,,,,,,,,,,,,,,,,,24085,2020_Jan_03_1519,Mmi_3levels,3.1.5,59.98474074339681,
5,example_start.png,"The GAMBLING OPTION will be shown on the RIGHT SIDE. 
Select this option using the RIGHT (blue) button on your keypad.",,,,,,,,0,1,1,1,,,,,,,,,,,,,,,,,,,,,,,,,,,,,,,,,,,,,,,,63.5799739214126,None,63.5799739214126,None,63.5799739214126,None,4,0.9339214605279267,63.5799739214126,None,,,,,,,,,,,,,,,,,,,,,,,,,,,,,,,,,,,,,,,,,,,,,,,,,,,,,,,,,,,,,,,,,,,,,,,,,,,,,,,,,,,,,,,,,,,,,,,,,,,,,,,,,,,,,24085,2020_Jan_03_1519,Mmi_3levels,3.1.5,59.98474074339681,
6,example_gamble.png,"Once you select the gambling choice, the choice you made will remain on the screen.",,,,,,,,0,2,2,2,,,,,,,,,,,,,,,,,,,,,,,,,,,,,,,,,,,,,,,,64.54706184449606,None,64.54706184449606,None,64.54706184449606,None,4,0.3336334766354412,64.54706184449606,None,,,,,,,,,,,,,,,,,,,,,,,,,,,,,,,,,,,,,,,,,,,,,,,,,,,,,,,,,,,,,,,,,,,,,,,,,,,,,,,,,,,,,,,,,,,,,,,,,,,,,,,,,,,,,24085,2020_Jan_03_1519,Mmi_3levels,3.1.5,59.98474074339681,
7,example_win.png,"The outcome you received will then be shown on the screen. In this example , you WON 10 points.",,,,,,,,0,3,3,3,,,,,,,,,,,,,,,,,,,,,,,,,,,,,,,,,,,,,,,,64.91381218656898,None,64.91381218656898,None,64.91381218656898,None,4,0.28369323327206075,64.91381218656898,None,,,,,,,,,,,,,,,,,,,,,,,,,,,,,,,,,,,,,,,,,,,,,,,,,,,,,,,,,,,,,,,,,,,,,,,,,,,,,,,,,,,,,,,,,,,,,,,,,,,,,,,,,,,,,24085,2020_Jan_03_1519,Mmi_3levels,3.1.5,59.98474074339681,
8,example_start.png,"The GUARANTEED OPTION will be shown on the LEFT SIDE. You are 100% guaranteed to gain or lose this amount. In this example, you have a 100% chance of winning 1 point. Select this option using the LEFT (green) button on your keyboard.",,,,,,,,0,4,4,4,,,,,,,,,,,,,,,,,,,,,,,,,,,,,,,,,,,,,,,,65.24726839293726,None,65.24726839293726,None,65.24726839293726,None,4,0.9340689722448587,65.24726839293726,None,,,,,,,,,,,,,,,,,,,,,,,,,,,,,,,,,,,,,,,,,,,,,,,,,,,,,,,,,,,,,,,,,,,,,,,,,,,,,,,,,,,,,,,,,,,,,,,,,,,,,,,,,,,,,24085,2020_Jan_03_1519,Mmi_3levels,3.1.5,59.98474074339681,
9,example_certain.png,"Once you select the guaranteed choice, your selection will remain on the screen.",,,,,,,,0,5,5,5,,,,,,,,,,,,,,,,,,,,,,,,,,,,,,,,,,,,,,,,66.21430159918964,None,66.21430159918964,None,66.21430159918964,None,4,0.617160958936438,66.21430159918964,None,,,,,,,,,,,,,,,,,,,,,,,,,,,,,,,,,,,,,,,,,,,,,,,,,,,,,,,,,,,,,,,,,,,,,,,,,,,,,,,,,,,,,,,,,,,,,,,,,,,,,,,,,,,,,24085,2020_Jan_03_1519,Mmi_3levels,3.1.5,59.98474074339681,
10,black.png,"Please make your choices as fast as possible.
You will be given a break at the end of each block.
Let's play!",,,,,,,,0,6,6,6,,,,,,,,,,,,,,,,,,,,,,,,,,,,,,,,,,,,,,,,66.86449238844216,None,66.86449238844216,None,66.86449238844216,None,4,1.184236402856186,66.86449238844216,None,,,,,,,,,,,,,,,,,,,,,,,,,,,,,,,,,,,,,,,,,,,,,,,,,,,,,,,,,,,,,,,,,,,,,,,,,,,,,,,,,,,,,,,,,,,,,,,,,,,,,,,,,,,,,24085,2020_Jan_03_1519,Mmi_3levels,3.1.5,59.98474074339681,
,,,,,,,,,,,,,,,,,,,,,,,,,,,,,,,,,,,,,,,,,,,,,,,,,,,,,,,,,,,,,,,68.0650177989155,None,space,207.56217875797302,68.0650177989155,None,,,,,,,,,,,,,,,,,,,,,,,,,,,,,,,,,,,,,,,,,,,,,,,,,,,,,,,,,,,,,,,,,,,,,,,,,,,,,,,,,,,,,,,,,,,,,,,,,,,,,,,24085,2020_Jan_03_1519,Mmi_3levels,3.1.5,59.98474074339681,
,,,1,1,1.1,,,,,,,,,0,0,0,0,0,0,0,26,,,,,,,,,,,,,,,,,,,,,,,,,,,,,,,,,,,,,,,,,,,,,,,,275.6436941931024,None,0.64,7.49575367779471,278.66149511630647,None,None,278.66149511630647,None,283.1464820369147,None,True,False,False,0.64,-0.36,-0.36,-1.29,1.1,-0.18999999999999995,0.45500000000000007,certain,certain,0.45500000000000007,0.45500000000000007,286.1810205827933,None,286.1810205827933,None,286.1810205827933,None,286.1810205827933,None,286.1810205827933,None,286.1810205827933,None,286.1810205827933,None,3,2.7178855582606047,286.1810205827933,None,288.9319958081469,None,288.9319958081469,None,288.9319958081469,None,288.9319958081469,None,288.9319958081469,None,288.9319958081469,None,288.9319958081469,None,292.91690577333793,None,292.91690577333793,None,292.91690577333793,None,292.91690577333793,None,292.91690577333793,None,292.91690577333793,None,292.91690577333793,None,293.9172836721409,None,,,,,,,,,,,,,,,,,,,,,,,,,,,,,,24085,2020_Jan_03_1519,Mmi_3levels,3.1.5,59.98474074339681,
,,,1,1,2.9,,,,,,,,,0,0,0,0,0,1,1,20,,,,,,,,,,,,,,,,,,,,,,,,,,,,,,,,,,,,,,,,,,,,,,,,,,,,,,,,,,,True,True,True,0.64,-0.36,-0.72,5.76,2.9,-2.86,0.020000000000000018,gamble,win,2.9,3.355,295.9346615788527,None,295.9346615788527,None,295.9346615788527,None,295.9346615788527,None,295.9346615788527,None,295.9346615788527,None,295.9346615788527,None,1,2.451232970925048,295.9346615788527,None,298.41899349633604,None,298.41899349633604,None,298.41899349633604,None,298.41899349633604,None,298.41899349633604,None,298.41899349633604,None,298.41899349633604,None,302.4205102114938,None,302.4205102114938,None,302.4205102114938,None,302.4205102114938,None,302.4205102114938,None,302.4205102114938,None,302.4205102114938,None,303.4042138441,None,,,,,,,,,,,,,,,,,,,,,,,,,,,,,,24085,2020_Jan_03_1519,Mmi_3levels,3.1.5,59.98474074339681,
,,,1,1,1.7,,,,,,,,,0,0,0,0,0,2,2,8,,,,,,,,,,,,,,,,,,,,,,,,,,,,,,,,,,,,,,,,,,,,,,,,,,,,,,,,,,,True,True,False,0.64,-0.36,-1.08,6.12,1.7,-4.42,-1.3599999999999999,gamble,win,1.7,5.055,305.4216317485552,None,305.4216317485552,None,305.4216317485552,None,305.4216317485552,None,305.4216317485552,None,305.4216317485552,None,305.4216317485552,None,None,,305.4216317485552,None,308.4227750445716,None,308.4227750445716,None,308.4227750445716,None,308.4227750445716,None,308.4227750445716,None,308.4227750445716,None,308.4227750445716,None,312.42424120241776,None,312.42424120241776,None,312.42424120241776,None,312.42424120241776,None,312.42424120241776,None,312.42424120241776,None,312.42424120241776,None,321.911162734963,None,313.40794867486693,None,314.4083748909179,None,0.58,7.50270912819542,317.40944875078276,None,None,317.40944875078276,None,,,,,,,,,,,,,,,,,,,24085,2020_Jan_03_1519,Mmi_3levels,3.1.5,59.98474074339681,
,,,1,1,-0.1,,,,,,,,,0,0,0,0,0,3,3,1,,,,,,,,,,,,,,,,,,,,,,,,,,,,,,,,,,,,,,,,,,,,,,,,,,,,,,,,,,,True,True,False,0.58,-0.42000000000000004,-1.5,7.380000000000001,-0.1,-7.48,-3.79,gamble,win,-0.1,4.955,323.9286526355427,None,323.9286526355427,None,323.9286526355427,None,323.9286526355427,None,323.9286526355427,None,323.9286526355427,None,323.9286526355427,None,1,1.9842923996038735,323.9286526355427,None,325.9459953443147,None,325.9459953443147,None,325.9459953443147,None,325.9459953443147,None,325.9459953443147,None,325.9459953443147,None,325.9459953443147,None,329.9475626165513,None,329.9475626165513,None,329.9475626165513,None,329.9475626165513,None,329.9475626165513,None,329.9475626165513,None,329.9475626165513,None,330.9312668889761,None,,,,,,,,,,,,,,,,,,,,,,,,,,,,,,24085,2020_Jan_03_1519,Mmi_3levels,3.1.5,59.98474074339681,
,,,1,1,-0.5,,,,,,,,,0,0,0,0,0,4,4,23,,,,,,,,,,,,,,,,,,,,,,,,,,,,,,,,,,,,,,,,,,,,,,,,,,,,,,,,,,,True,False,False,0.58,-0.42000000000000004,-1.92,-1.6300000000000001,-0.5,-2.13,-1.315,certain,certain,-1.315,3.64,332.94869631296024,None,332.94869631296024,None,332.94869631296024,None,332.94869631296024,None,332.94869631296024,None,332.94869631296024,None,332.94869631296024,None,3,2.7845813434105366,332.94869631296024,None,335.7664086010773,None,335.7664086010773,None,335.7664086010773,None,335.7664086010773,None,335.7664086010773,None,335.7664086010773,None,335.7664086010773,None,339.7679262761958,None,339.7679262761958,None,339.7679262761958,None,339.7679262761958,None,339.7679262761958,None,339.7679262761958,None,339.7679262761958,None,349.25485996785574,None,340.75165198743343,None,341.7519780492876,None,0.53,7.502904957393184,344.75312166521326,None,None,344.75312166521326,None,,,,,,,,,,,,,,,,,,,24085,2020_Jan_03_1519,Mmi_3levels,3.1.5,59.98474074339681,
,,,1,1,-1.3,,,,,,,,,0,0,0,0,0,5,5,25,,,,,,,,,,,,,,,,,,,,,,,,,,,,,,,,,,,,,,,,,,,,,,,,,,,,,,,,,,,True,True,True,0.53,-0.47,-2.3899999999999997,8.969999999999999,-1.3,-10.27,-5.785,gamble,win,-1.3,2.34,351.2722471540328,None,351.2722471540328,None,351.2722471540328,None,351.2722471540328,None,351.2722471540328,None,351.2722471540328,None,351.2722471540328,None,1,2.7180519490502775,351.2722471540328,None,354.0233481323812,None,354.0233481323812,None,354.0233481323812,None,354.0233481323812,None,354.0233481323812,None,354.0233481323812,None,354.0233481323812,None,358.02482932945713,None,358.02482932945713,None,358.02482932945713,None,358.02482932945713,None,358.02482932945713,None,358.02482932945713,None,358.02482932945713,None,359.00854704133235,None,,,,,,,,,,,,,,,,,,,,,,,,,,,,,,24085,2020_Jan_03_1519,Mmi_3levels,3.1.5,59.98474074339681,
,,,1,1,8.5,,,,,,,,,0,0,0,0,0,6,6,7,,,,,,,,,,,,,,,,,,,,,,,,,,,,,,,,,,,,,,,,,,,,,,,,,,,,,,,,,,,True,False,False,0.53,-0.47,-2.8599999999999994,-1.8833333333333333,8.5,6.616666666666667,3.3083333333333336,gamble,lose,6.616666666666667,8.956666666666667,361.0259575864766,None,361.0259575864766,None,361.0259575864766,None,361.0259575864766,None,361.0259575864766,None,361.0259575864766,None,361.0259575864766,None,1,1.6009509868454188,361.0259575864766,None,362.65994704305194,None,362.65994704305194,None,362.65994704305194,None,362.65994704305194,None,362.65994704305194,None,362.65994704305194,None,362.65994704305194,None,366.6447914117016,None,366.6447914117016,None,366.6447914117016,None,366.6447914117016,None,366.6447914117016,None,366.6447914117016,None,366.6447914117016,None,367.64517091051675,None,,,,,,,,,,,,,,,,,,,,,,,,,,,,,,24085,2020_Jan_03_1519,Mmi_3levels,3.1.5,59.98474074339681,
,,,1,1,10.7,,,,,,,,,0,0,0,0,0,7,7,11,,,,,,,,,,,,,,,,,,,,,,,,,,,,,,,,,,,,,,,,,,,,,,,,,,,,,,,,,,,True,False,False,0.53,-0.47,-3.329999999999999,-1.9224999999999999,10.7,8.7775,4.38875,gamble,lose,8.7775,17.734166666666667,369.6626012942288,None,369.6626012942288,None,369.6626012942288,None,369.6626012942288,None,369.6626012942288,None,369.6626012942288,None,369.6626012942288,None,1,1.083825065754354,369.6626012942288,None,370.77969425707124,None,370.77969425707124,None,370.77969425707124,None,370.77969425707124,None,370.77969425707124,None,370.77969425707124,None,370.77969425707124,None,374.764529986307,None,374.764529986307,None,374.764529986307,None,374.764529986307,None,374.764529986307,None,374.764529986307,None,374.764529986307,None,384.26813186449,None,375.7649050052278,None,376.7652832241729,None,0.65,7.502673610113561,379.7663583639078,None,None,379.7663583639078,None,,,,,,,,,,,,,,,,,,,24085,2020_Jan_03_1519,Mmi_3levels,3.1.5,59.98474074339681,
,,,1,1,6.3,,,,,,,,,0,0,0,0,0,8,8,15,,,,,,,,,,,,,,,,,,,,,,,,,,,,,,,,,,,,,,,,,,,,,,,,,,,,,,,,,,,True,True,False,0.65,-0.35,-3.6799999999999993,8.579999999999998,6.3,-2.2799999999999985,-1.1399999999999992,gamble,win,6.3,24.034166666666668,386.2855580886826,None,386.2855580886826,None,386.2855580886826,None,386.2855580886826,None,386.2855580886826,None,386.2855580886826,None,386.2855580886826,None,1,1.6841770461760461,386.2855580886826,None,388.002822561888,None,388.002822561888,None,388.002822561888,None,388.002822561888,None,388.002822561888,None,388.002822561888,None,388.002822561888,None,392.00433863699436,None,392.00433863699436,None,392.00433863699436,None,392.00433863699436,None,392.00433863699436,None,392.00433863699436,None,392.00433863699436,None,392.9880979463924,None,,,,,,,,,,,,,,,,,,,,,,,,,,,,,,24085,2020_Jan_03_1519,Mmi_3levels,3.1.5,59.98474074339681,
,,,1,1,9.1,,,,,,,,,0,0,0,0,0,9,9,6,,,,,,,,,,,,,,,,,,,,,,,,,,,,,,,,,,,,,,,,,,,,,,,,,,,,,,,,,,,True,True,False,0.65,-0.35,-4.029999999999999,8.93,9.1,0.16999999999999993,0.08499999999999996,gamble,win,9.1,33.134166666666665,395.00552961044014,None,395.00552961044014,None,395.00552961044014,None,395.00552961044014,None,395.00552961044014,None,395.00552961044014,None,395.00552961044014,None,1,2.201092098839581,395.00552961044014,None,397.2396499395836,None,397.2396499395836,None,397.2396499395836,None,397.2396499395836,None,397.2396499395836,None,397.2396499395836,None,397.2396499395836,None,401.2245451854542,None,401.2245451854542,None,401.2245451854542,None,401.2245451854542,None,401.2245451854542,None,401.2245451854542,None,401.2245451854542,None,410.72813522443175,None,402.2249275641516,None,403.22525266581215,None,0.65,7.502872319193557,406.22642412013374,None,None,406.22642412013374,None,,,,,,,,,,,,,,,,,,,24085,2020_Jan_03_1519,Mmi_3levels,3.1.5,59.98474074339681,
,,,1,1,8.3,,,,,,,,,0,0,0,0,0,10,10,10,,,,,,,,,,,,,,,,,,,,,,,,,,,,,,,,,,,,,,,,,,,,,,,,,,,,,,,,,,,True,True,False,0.65,-0.35,-4.379999999999999,9.279999999999998,8.3,-0.9799999999999969,-0.48999999999999844,gamble,win,8.3,41.43416666666667,412.74552465067245,None,412.74552465067245,None,412.74552465067245,None,412.74552465067245,None,412.74552465067245,None,412.74552465067245,None,412.74552465067245,None,1,1.650958426296711,412.74552465067245,None,414.4296133816242,None,414.4296133816242,None,414.4296133816242,None,414.4296133816242,None,414.4296133816242,None,414.4296133816242,None,414.4296133816242,None,418.4143899141345,None,418.4143899141345,None,418.4143899141345,None,418.4143899141345,None,418.4143899141345,None,418.4143899141345,None,418.4143899141345,None,419.41474125441164,None,,,,,,,,,,,,,,,,,,,,,,,,,,,,,,24085,2020_Jan_03_1519,Mmi_3levels,3.1.5,59.98474074339681,
,,,1,1,12.3,,,,,,,,,0,0,0,0,0,11,11,18,,,,,,,,,,,,,,,,,,,,,,,,,,,,,,,,,,,,,,,,,,,,,,,,,,,,,,,,,,,True,True,False,0.65,-0.35,-4.729999999999999,9.629999999999999,12.3,2.6700000000000017,1.3350000000000009,gamble,win,12.3,53.73416666666667,421.43222507531755,None,421.43222507531755,None,421.43222507531755,None,421.43222507531755,None,421.43222507531755,None,421.43222507531755,None,421.43222507531755,None,1,0.7671237611211836,421.43222507531755,None,422.23244618298486,None,422.23244618298486,None,422.23244618298486,None,422.23244618298486,None,422.23244618298486,None,422.23244618298486,None,422.23244618298486,None,426.23401601519436,None,426.23401601519436,None,426.23401601519436,None,426.23401601519436,None,426.23401601519436,None,426.23401601519436,None,426.23401601519436,None,435.72088475036435,None,427.21779292356223,None,428.2180988264736,None,0.65,7.502742086304352,431.2191701263655,None,None,431.2191701263655,None,,,,,,,,,,,,,,,,,,,24085,2020_Jan_03_1519,Mmi_3levels,3.1.5,59.98474074339681,
,,,1,1,7.7,,,,,,,,,0,0,0,0,0,12,12,24,,,,,,,,,,,,,,,,,,,,,,,,,,,,,,,,,,,,,,,,,,,,,,,,,,,,,,,,,,,True,True,False,0.65,-0.35,-5.079999999999998,9.979999999999997,7.7,-2.2799999999999967,-1.1399999999999983,gamble,win,7.7,61.43416666666667,437.7383189741522,None,437.7383189741522,None,437.7383189741522,None,437.7383189741522,None,437.7383189741522,None,437.7383189741522,None,437.7383189741522,None,1,1.2840746517758816,437.7383189741522,None,439.0554858527612,None,439.0554858527612,None,439.0554858527612,None,439.0554858527612,None,439.0554858527612,None,439.0554858527612,None,439.0554858527612,None,443.057041925611,None,443.057041925611,None,443.057041925611,None,443.057041925611,None,443.057041925611,None,443.057041925611,None,443.057041925611,None,444.040704600513,None,,,,,,,,,,,,,,,,,,,,,,,,,,,,,,24085,2020_Jan_03_1519,Mmi_3levels,3.1.5,59.98474074339681,
,,,1,1,5.1,,,,,,,,,0,0,0,0,0,13,13,17,,,,,,,,,,,,,,,,,,,,,,,,,,,,,,,,,,,,,,,,,,,,,,,,,,,,,,,,,,,True,False,True,0.65,-0.35,-5.429999999999998,-1.6774999999999998,5.1,3.4225,1.71125,gamble,lose,3.4225,64.85666666666667,446.0581356245093,None,446.0581356245093,None,446.0581356245093,None,446.0581356245093,None,446.0581356245093,None,446.0581356245093,None,446.0581356245093,None,1,0.8839738573879004,446.0581356245093,None,446.9751652306877,None,446.9751652306877,None,446.9751652306877,None,446.9751652306877,None,446.9751652306877,None,446.9751652306877,None,446.9751652306877,None,451.0100080794655,None,451.0100080794655,None,451.0100080794655,None,451.0100080794655,None,451.0100080794655,None,451.0100080794655,None,451.0100080794655,None,451.96042141644284,None,,,,,,,,,,,,,,,,,,,,,,,,,,,,,,24085,2020_Jan_03_1519,Mmi_3levels,3.1.5,59.98474074339681,
,,,1,1,13.1,,,,,,,,,0,0,0,0,0,14,14,3,,,,,,,,,,,,,,,,,,,,,,,,,,,,,,,,,,,,,,,,,,,,,,,,,,,,,,,,,,,True,True,False,0.65,-0.35,-5.779999999999998,10.679999999999996,13.1,2.4200000000000035,1.2100000000000017,gamble,win,13.1,77.95666666666666,453.9778198020067,None,453.9778198020067,None,453.9778198020067,None,453.9778198020067,None,453.9778198020067,None,453.9778198020067,None,453.9778198020067,None,1,0.9839906566776335,453.9778198020067,None,454.9949154846836,None,454.9949154846836,None,454.9949154846836,None,454.9949154846836,None,454.9949154846836,None,454.9949154846836,None,454.9949154846836,None,458.99634196492843,None,458.99634196492843,None,458.99634196492843,None,458.99634196492843,None,458.99634196492843,None,458.99634196492843,None,458.99634196492843,None,468.48329293564893,None,459.980066396296,None,460.98050509160385,None,0.72,7.50267073046416,463.9815722319763,None,None,463.9815722319763,None,,,,,,,,,,,,,,,,,,,24085,2020_Jan_03_1519,Mmi_3levels,3.1.5,59.98474074339681,
,,,1,1,-1.5,,,,,,,,,0,0,0,0,0,15,15,21,,,,,,,,,,,,,,,,,,,,,,,,,,,,,,,,,,,,,,,,,,,,,,,,,,,,,,,,,,,True,True,False,0.72,-0.28,-6.059999999999998,9.979999999999999,-1.5,-11.479999999999999,-6.489999999999999,gamble,win,-1.5,76.45666666666666,470.5007716368418,None,470.5007716368418,None,470.5007716368418,None,470.5007716368418,None,470.5007716368418,None,470.5007716368418,None,470.5007716368418,None,1,2.2010732197668403,470.5007716368418,None,472.7349546824116,None,472.7349546824116,None,472.7349546824116,None,472.7349546824116,None,472.7349546824116,None,472.7349546824116,None,472.7349546824116,None,476.7364122008439,None,476.7364122008439,None,476.7364122008439,None,476.7364122008439,None,476.7364122008439,None,476.7364122008439,None,476.7364122008439,None,477.7201769500971,None,,,,,,,,,,,,,,,,,,,,,,,,,,,,,,24085,2020_Jan_03_1519,Mmi_3levels,3.1.5,59.98474074339681,
,,,1,1,-0.7,,,,,,,,,0,0,0,0,0,16,16,14,,,,,,,,,,,,,,,,,,,,,,,,,,,,,,,,,,,,,,,,,,,,,,,,,,,,,,,,,,,True,True,False,0.72,-0.28,-6.339999999999998,10.259999999999998,-0.7,-10.959999999999997,-5.829999999999998,gamble,win,-0.7,75.75666666666666,479.7375759757124,None,479.7375759757124,None,479.7375759757124,None,479.7375759757124,None,479.7375759757124,None,479.7375759757124,None,479.7375759757124,None,1,2.101064100395888,479.7375759757124,None,481.87172174360603,None,481.87172174360603,None,481.87172174360603,None,481.87172174360603,None,481.87172174360603,None,481.87172174360603,None,481.87172174360603,None,485.87325893738307,None,485.87325893738307,None,485.87325893738307,None,485.87325893738307,None,485.87325893738307,None,485.87325893738307,None,485.87325893738307,None,495.3601327924989,None,486.8569132927805,None,487.8573347092606,None,0.69,7.5026019343640655,490.8584133689292,None,None,490.8584133689292,None,,,,,,,,,,,,,,,,,,,24085,2020_Jan_03_1519,Mmi_3levels,3.1.5,59.98474074339681,
,,,1,1,3.3,,,,,,,,,0,0,0,0,0,17,17,16,,,,,,,,,,,,,,,,,,,,,,,,,,,,,,,,,,,,,,,,,,,,,,,,,,,,,,,,,,,True,False,False,0.69,-0.31000000000000005,-6.649999999999999,-1.6391666666666667,3.3,1.6608333333333332,0.8304166666666666,gamble,lose,1.6608333333333332,77.41749999999999,497.37756189657375,None,497.37756189657375,None,497.37756189657375,None,497.37756189657375,None,497.37756189657375,None,497.37756189657375,None,497.37756189657375,None,1,1.200765077257529,497.37756189657375,None,498.61141856061295,None,498.61141856061295,None,498.61141856061295,None,498.61141856061295,None,498.61141856061295,None,498.61141856061295,None,498.61141856061295,None,502.5962190916762,None,502.5962190916762,None,502.5962190916762,None,502.5962190916762,None,502.5962190916762,None,502.5962190916762,None,502.5962190916762,None,503.5965809915215,None,,,,,,,,,,,,,,,,,,,,,,,,,,,,,,24085,2020_Jan_03_1519,Mmi_3levels,3.1.5,59.98474074339681,
,,,1,1,4.1,,,,,,,,,0,0,0,0,0,18,18,2,,,,,,,,,,,,,,,,,,,,,,,,,,,,,,,,,,,,,,,,,,,,,,,,,,,,,,,,,,,True,True,False,0.69,-0.31000000000000005,-6.959999999999999,11.3,4.1,-7.200000000000001,-1.5500000000000007,gamble,win,4.1,81.51749999999998,505.61401361529715,None,505.61401361529715,None,505.61401361529715,None,505.61401361529715,None,505.61401361529715,None,505.61401361529715,None,505.61401361529715,None,1,2.2011484156828374,505.61401361529715,None,507.8482584175654,None,507.8482584175654,None,507.8482584175654,None,507.8482584175654,None,507.8482584175654,None,507.8482584175654,None,507.8482584175654,None,511.849832089385,None,511.849832089385,None,511.849832089385,None,511.849832089385,None,511.849832089385,None,511.849832089385,None,511.849832089385,None,512.8334685256705,None,,,,,,,,,,,,,,,,,,,,,,,,,,,,,,24085,2020_Jan_03_1519,Mmi_3levels,3.1.5,59.98474074339681,
,,,1,1,0.9,,,,,,,,,0,0,0,0,0,19,19,4,,,,,,,,,,,,,,,,,,,,,,,,,,,,,,,,,,,,,,,,,,,,,,,,,,,,,,,,,,,True,True,False,0.69,-0.31000000000000005,-7.27,11.61,0.9,-10.709999999999999,-4.904999999999999,gamble,win,0.9,82.41749999999999,514.8508851504885,None,514.8508851504885,None,514.8508851504885,None,514.8508851504885,None,514.8508851504885,None,514.8508851504885,None,514.8508851504885,None,1,1.2673399089835584,514.8508851504885,None,516.1513355250936,None,516.1513355250936,None,516.1513355250936,None,516.1513355250936,None,516.1513355250936,None,516.1513355250936,None,516.1513355250936,None,520.1528675993904,None,520.1528675993904,None,520.1528675993904,None,520.1528675993904,None,520.1528675993904,None,520.1528675993904,None,520.1528675993904,None,529.6397760126274,None,521.1365536330268,None,522.136939531425,None,0.59,7.5027779245283455,525.1381183452904,None,None,525.1381183452904,None,,,,,,,,,,,,,,,,,,,24085,2020_Jan_03_1519,Mmi_3levels,3.1.5,59.98474074339681,
,,,1,1,0.3,,,,,,,,,0,0,0,0,0,20,20,19,,,,,,,,,,,,,,,,,,,,,,,,,,,,,,,,,,,,,,,,,,,,,,,,,,,,,,,,,,,True,True,False,0.59,-0.41000000000000003,-7.68,13.42,0.3,-13.12,-6.409999999999999,gamble,win,0.3,82.71749999999999,531.6572563135996,None,531.6572563135996,None,531.6572563135996,None,531.6572563135996,None,531.6572563135996,None,531.6572563135996,None,531.6572563135996,None,1,1.2173206298612058,531.6572563135996,None,532.9076803699136,None,532.9076803699136,None,532.9076803699136,None,532.9076803699136,None,532.9076803699136,None,532.9076803699136,None,532.9076803699136,None,536.9091961251106,None,536.9091961251106,None,536.9091961251106,None,536.9091961251106,None,536.9091961251106,None,536.9091961251106,None,536.9091961251106,None,537.8929039174691,None,,,,,,,,,,,,,,,,,,,,,,,,,,,,,,24085,2020_Jan_03_1519,Mmi_3levels,3.1.5,59.98474074339681,
,,,1,1,4.9,,,,,,,,,0,0,0,0,0,21,21,0,,,,,,,,,,,,,,,,,,,,,,,,,,,,,,,,,,,,,,,,,,,,,,,,,,,,,,,,,,,True,False,True,0.59,-0.41000000000000003,-8.09,-2.109166666666667,4.9,2.7908333333333335,1.3954166666666667,gamble,lose,2.7908333333333335,85.50833333333333,539.9103803785983,None,539.9103803785983,None,539.9103803785983,None,539.9103803785983,None,539.9103803785983,None,539.9103803785983,None,539.9103803785983,None,1,1.2173324692994356,539.9103803785983,None,541.1608351531904,None,541.1608351531904,None,541.1608351531904,None,541.1608351531904,None,541.1608351531904,None,541.1608351531904,None,541.1608351531904,None,545.1456446438096,None,545.1456446438096,None,545.1456446438096,None,545.1456446438096,None,545.1456446438096,None,545.1456446438096,None,545.1456446438096,None,554.6493047589902,None,546.1460247826762,None,547.1464637981262,None,0.65,7.502748806029558,550.1475754156709,None,None,550.1475754156709,None,,,,,,,,,,,,,,,,,,,24085,2020_Jan_03_1519,Mmi_3levels,3.1.5,59.98474074339681,
,,,1,1,-1.1,,,,,,,,,0,0,0,0,0,22,22,22,,,,,,,,,,,,,,,,,,,,,,,,,,,,,,,,,,,,,,,,,,,,,,,,,,,,,,,,,,,True,True,False,0.65,-0.35,-8.44,13.34,-1.1,-14.44,-7.77,gamble,win,-1.1,84.40833333333333,556.6667325829621,None,556.6667325829621,None,556.6667325829621,None,556.6667325829621,None,556.6667325829621,None,556.6667325829621,None,556.6667325829621,None,1,2.4011228170711547,556.6667325829621,None,559.1009882646613,None,559.1009882646613,None,559.1009882646613,None,559.1009882646613,None,559.1009882646613,None,559.1009882646613,None,559.1009882646613,None,563.1025040198583,None,563.1025040198583,None,563.1025040198583,None,563.1025040198583,None,563.1025040198583,None,563.1025040198583,None,563.1025040198583,None,564.0861510154791,None,,,,,,,,,,,,,,,,,,,,,,,,,,,,,,24085,2020_Jan_03_1519,Mmi_3levels,3.1.5,59.98474074339681,
,,,1,1,3.7,,,,,,,,,0,0,0,0,0,23,23,5,,,,,,,,,,,,,,,,,,,,,,,,,,,,,,,,,,,,,,,,,,,,,,,,,,,,,,,,,,,True,True,False,0.65,-0.35,-8.79,13.689999999999998,3.7,-9.989999999999998,-3.144999999999999,gamble,win,3.7,88.10833333333333,566.1035833193455,None,566.1035833193455,None,566.1035833193455,None,566.1035833193455,None,566.1035833193455,None,566.1035833193455,None,566.1035833193455,None,1,1.8674557425547391,566.1035833193455,None,568.0042989591602,None,568.0042989591602,None,568.0042989591602,None,568.0042989591602,None,568.0042989591602,None,568.0042989591602,None,568.0042989591602,None,572.0058703911491,None,572.0058703911491,None,572.0058703911491,None,572.0058703911491,None,572.0058703911491,None,572.0058703911491,None,572.0058703911491,None,581.4927592854947,None,572.9895193069242,None,573.9899026453495,None,0.63,7.502766725141555,576.9910750598647,None,None,576.9910750598647,None,,,,,,,,,,,,,,,,,,,24085,2020_Jan_03_1519,Mmi_3levels,3.1.5,59.98474074339681,
,,,1,1,5.7,,,,,,,,,0,0,0,0,0,24,24,9,,,,,,,,,,,,,,,,,,,,,,,,,,,,,,,,,,,,,,,,,,,,,,,,,,,,,,,,,,,True,True,False,0.63,-0.37,-9.159999999999998,14.339999999999998,5.7,-8.639999999999997,-1.4699999999999984,gamble,win,5.7,93.80833333333334,583.5101640708745,None,583.5101640708745,None,583.5101640708745,None,583.5101640708745,None,583.5101640708745,None,583.5101640708745,None,583.5101640708745,None,1,1.0838449045550078,583.5101640708745,None,584.6272829521913,None,584.6272829521913,None,584.6272829521913,None,584.6272829521913,None,584.6272829521913,None,584.6272829521913,None,584.6272829521913,None,588.6287766285241,None,588.6287766285241,None,588.6287766285241,None,588.6287766285241,None,588.6287766285241,None,588.6287766285241,None,588.6287766285241,None,589.6124796210788,None,,,,,,,,,,,,,,,,,,,,,,,,,,,,,,24085,2020_Jan_03_1519,Mmi_3levels,3.1.5,59.98474074339681,
,,,1,1,2.1,,,,,,,,,0,0,0,0,0,25,25,12,,,,,,,,,,,,,,,,,,,,,,,,,,,,,,,,,,,,,,,,,,,,,,,,,,,,,,,,,,,True,True,False,0.63,-0.37,-9.529999999999998,14.709999999999997,2.1,-12.609999999999998,-5.254999999999999,gamble,win,2.1,95.90833333333333,591.6299567224924,None,591.6299567224924,None,591.6299567224924,None,591.6299567224924,None,591.6299567224924,None,591.6299567224924,None,591.6299567224924,None,1,1.4841066498775035,591.6299567224924,None,593.1471552792937,None,593.1471552792937,None,593.1471552792937,None,593.1471552792937,None,593.1471552792937,None,593.1471552792937,None,593.1471552792937,None,597.1486687944271,None,597.1486687944271,None,597.1486687944271,None,597.1486687944271,None,597.1486687944271,None,597.1486687944271,None,597.1486687944271,None,598.1323695473839,None,,,,,,,,,,,,,,,,,,,,,,,,,,,,,,24085,2020_Jan_03_1519,Mmi_3levels,3.1.5,59.98474074339681,
,,,1,1,0.5,,,,,,,,,0,0,0,0,0,26,26,13,,,,,,,,,,,,,,,,,,,,,,,,,,,,,,,,,,,,,,,,,,,,,,,,,,,,,,,,,,,True,True,True,0.63,-0.37,-9.899999999999997,15.079999999999997,0.5,-14.579999999999997,-7.039999999999998,gamble,win,0.5,96.40833333333333,600.1498511282261,None,600.1498511282261,None,600.1498511282261,None,600.1498511282261,None,600.1498511282261,None,600.1498511282261,None,600.1498511282261,None,1,1.2340915307868272,600.1498511282261,None,601.416996808257,None,601.416996808257,None,601.416996808257,None,601.416996808257,None,601.416996808257,None,601.416996808257,None,601.416996808257,None,605.418525042478,None,605.418525042478,None,605.418525042478,None,605.418525042478,None,605.418525042478,None,605.418525042478,None,605.418525042478,None,614.9054401754402,None,606.4021733182017,None,607.4026132936124,None,0.61,7.502735366811976,610.4036730742082,None,None,610.4036730742082,None,,,,,,,,,,,,,,,,,,,24085,2020_Jan_03_1519,Mmi_3levels,3.1.5,59.98474074339681,
,,,2,0,12.7,,,,,,,,,0,1,1,1,0,0,0,24,,,,,,,,,,,,,,,,,,,,,,,,,,,,,,,,,,,,,,,,,,,,,,,,622.5416730262805,None,0.57,7.501753981690854,625.5594166726805,None,None,625.5594166726805,None,630.0444288719445,None,False,True,True,0.57,0.57,0.57,-8.549999999999999,12.7,4.15,2.075,gamble,lose,4.15,100.55833333333334,633.0789920564275,None,633.0789920564275,None,633.0789920564275,None,633.0789920564275,None,633.0789920564275,None,633.0789920564275,None,633.0789920564275,None,1,1.1006516434717923,633.0789920564275,None,634.2128152824007,None,634.2128152824007,None,634.2128152824007,None,634.2128152824007,None,634.2128152824007,None,634.2128152824007,None,634.2128152824007,None,638.2142705607694,None,638.2142705607694,None,638.2142705607694,None,638.2142705607694,None,638.2142705607694,None,638.2142705607694,None,638.2142705607694,None,639.1979191564023,None,,,,,,,,,,,,616.9061959730461,None,4,5.618997656041756,616.9061959730461,None,,,,,,,,,,,,,24085,2020_Jan_03_1519,Mmi_3levels,3.1.5,59.98474074339681,
,,,2,0,5.5,,,,,,,,,0,1,1,1,0,1,1,4,,,,,,,,,,,,,,,,,,,,,,,,,,,,,,,,,,,,,,,,,,,,,,,,,,,,,,,,,,,False,True,False,0.57,0.57,1.14,-9.12,5.5,-3.619999999999999,0.9400000000000004,gamble,lose,-3.619999999999999,96.93833333333333,641.2153498604894,None,641.2153498604894,None,641.2153498604894,None,641.2153498604894,None,641.2153498604894,None,641.2153498604894,None,641.2153498604894,None,1,2.017714848043397,641.2153498604894,None,643.2661566152237,None,643.2661566152237,None,643.2661566152237,None,643.2661566152237,None,643.2661566152237,None,643.2661566152237,None,643.2661566152237,None,647.2676442118827,None,647.2676442118827,None,647.2676442118827,None,647.2676442118827,None,647.2676442118827,None,647.2676442118827,None,647.2676442118827,None,656.7545708639082,None,648.2513446446974,None,649.2517251034733,None,0.68,7.502771204803139,652.2528821586166,None,None,652.2528821586166,None,,,,,,,,,,,,,,,,,,,24085,2020_Jan_03_1519,Mmi_3levels,3.1.5,59.98474074339681,
,,,2,0,10.7,,,,,,,,,0,1,1,1,0,2,2,20,,,,,,,,,,,,,,,,,,,,,,,,,,,,,,,,,,,,,,,,,,,,,,,,,,,,,,,,,,,False,True,True,0.68,0.68,1.8199999999999998,-11.340000000000002,10.7,-0.6400000000000023,-0.3200000000000012,gamble,lose,-0.6400000000000023,96.29833333333333,658.7720505250618,None,658.7720505250618,None,658.7720505250618,None,658.7720505250618,None,658.7720505250618,None,658.7720505250618,None,658.7720505250618,None,1,1.767584215151146,658.7720505250618,None,660.5726821697317,None,660.5726821697317,None,660.5726821697317,None,660.5726821697317,None,660.5726821697317,None,660.5726821697317,None,660.5726821697317,None,664.5575972546358,None,664.5575972546358,None,664.5575972546358,None,664.5575972546358,None,664.5575972546358,None,664.5575972546358,None,664.5575972546358,None,665.557902837405,None,,,,,,,,,,,,,,,,,,,,,,,,,,,,,,24085,2020_Jan_03_1519,Mmi_3levels,3.1.5,59.98474074339681,
,,,2,0,12.3,,,,,,,,,0,1,1,1,0,3,3,22,,,,,,,,,,,,,,,,,,,,,,,,,,,,,,,,,,,,,,,,,,,,,,,,,,,,,,,,,,,False,True,False,0.68,0.68,2.5,-12.020000000000001,12.3,0.27999999999999936,0.13999999999999968,gamble,lose,0.27999999999999936,96.57833333333333,667.5753869782202,None,667.5753869782202,None,667.5753869782202,None,667.5753869782202,None,667.5753869782202,None,667.5753869782202,None,667.5753869782202,None,1,2.2175369379110634,667.5753869782202,None,669.8261815737933,None,669.8261815737933,None,669.8261815737933,None,669.8261815737933,None,669.8261815737933,None,669.8261815737933,None,669.8261815737933,None,673.8277578055859,None,673.8277578055859,None,673.8277578055859,None,673.8277578055859,None,673.8277578055859,None,673.8277578055859,None,673.8277578055859,None,683.3146249409765,None,674.8114108808804,None,675.8118566160556,None,0.71,7.50268608960323,678.8129131968599,None,None,678.8129131968599,None,,,,,,,,,,,,,,,,,,,24085,2020_Jan_03_1519,Mmi_3levels,3.1.5,59.98474074339681,
,,,2,0,13.3,,,,,,,,,0,1,1,1,0,4,4,10,,,,,,,,,,,,,,,,,,,,,,,,,,,,,,,,,,,,,,,,,,,,,,,,,,,,,,,,,,,False,False,True,0.71,0.71,3.21,2.7525,3.325,0.5725000000000002,1.9487500000000002,gamble,win,3.325,99.90333333333334,685.3320556448307,None,685.3320556448307,None,685.3320556448307,None,685.3320556448307,None,685.3320556448307,None,685.3320556448307,None,685.3320556448307,None,1,2.351139056030661,685.3320556448307,None,687.7162923675496,None,687.7162923675496,None,687.7162923675496,None,687.7162923675496,None,687.7162923675496,None,687.7162923675496,None,687.7162923675496,None,691.7011860136408,None,691.7011860136408,None,691.7011860136408,None,691.7011860136408,None,691.7011860136408,None,691.7011860136408,None,691.7011860136408,None,692.7015651923139,None,,,,,,,,,,,,,,,,,,,,,,,,,,,,,,24085,2020_Jan_03_1519,Mmi_3levels,3.1.5,59.98474074339681,
,,,2,0,-0.7,,,,,,,,,0,1,1,1,0,5,5,9,,,,,,,,,,,,,,,,,,,,,,,,,,,,,,,,,,,,,,,,,,,,,,,,,,,,,,,,,,,False,True,False,0.71,0.71,3.92,-13.86,-0.7,-14.559999999999999,-7.629999999999999,gamble,lose,-14.559999999999999,85.34333333333333,694.718941179337,None,694.718941179337,None,694.718941179337,None,694.718941179337,None,694.718941179337,None,694.718941179337,None,694.718941179337,None,1,1.8509977841749787,694.718941179337,None,696.603044949472,None,696.603044949472,None,696.603044949472,None,696.603044949472,None,696.603044949472,None,696.603044949472,None,696.603044949472,None,700.6045610245783,None,700.6045610245783,None,700.6045610245783,None,700.6045610245783,None,700.6045610245783,None,700.6045610245783,None,700.6045610245783,None,701.5882099401206,None,,,,,,,,,,,,,,,,,,,,,,,,,,,,,,24085,2020_Jan_03_1519,Mmi_3levels,3.1.5,59.98474074339681,
,,,2,0,1.3,,,,,,,,,0,1,1,1,0,6,6,1,,,,,,,,,,,,,,,,,,,,,,,,,,,,,,,,,,,,,,,,,,,,,,,,,,,,,,,,,,,False,False,False,0.71,0.71,4.63,2.870833333333333,0.325,-2.545833333333333,-1.1104166666666664,certain,certain,-1.1104166666666664,84.23291666666667,703.6056464037392,None,703.6056464037392,None,703.6056464037392,None,703.6056464037392,None,703.6056464037392,None,703.6056464037392,None,703.6056464037392,None,3,1.9677397266495973,703.6056464037392,None,705.6064479588531,None,705.6064479588531,None,705.6064479588531,None,705.6064479588531,None,705.6064479588531,None,705.6064479588531,None,705.6064479588531,None,709.6079784331378,None,709.6079784331378,None,709.6079784331378,None,709.6079784331378,None,709.6079784331378,None,709.6079784331378,None,709.6079784331378,None,719.0948609276675,None,710.5916747062001,None,711.5920247666072,None,0.67,7.50278176413849,714.5931245449465,None,None,714.5931245449465,None,,,,,,,,,,,,,,,,,,,24085,2020_Jan_03_1519,Mmi_3levels,3.1.5,59.98474074339681,
,,,2,0,0.3,,,,,,,,,0,1,1,1,0,7,7,5,,,,,,,,,,,,,,,,,,,,,,,,,,,,,,,,,,,,,,,,,,,,,,,,,,,,,,,,,,,False,True,True,0.67,0.67,5.3,-14.68,0.3,-14.379999999999999,-7.039999999999999,certain,certain,-7.039999999999999,77.19291666666666,721.1122689128388,None,721.1122689128388,None,721.1122689128388,None,721.1122689128388,None,721.1122689128388,None,721.1122689128388,None,721.1122689128388,None,3,1.4174659017007798,721.1122689128388,None,722.5628241617233,None,722.5628241617233,None,722.5628241617233,None,722.5628241617233,None,722.5628241617233,None,722.5628241617233,None,722.5628241617233,None,726.5643424768932,None,726.5643424768932,None,726.5643424768932,None,726.5643424768932,None,726.5643424768932,None,726.5643424768932,None,726.5643424768932,None,727.5480413096957,None,,,,,,,,,,,,,,,,,,,,,,,,,,,,,,24085,2020_Jan_03_1519,Mmi_3levels,3.1.5,59.98474074339681,
,,,2,0,1.7,,,,,,,,,0,1,1,1,0,8,8,26,,,,,,,,,,,,,,,,,,,,,,,,,,,,,,,,,,,,,,,,,,,,,,,,,,,,,,,,,,,False,False,False,0.67,0.67,5.97,2.8425000000000002,0.425,-2.4175000000000004,-0.9962500000000002,certain,certain,-0.9962500000000002,76.19666666666666,729.5654713734984,None,729.5654713734984,None,729.5654713734984,None,729.5654713734984,None,729.5654713734984,None,729.5654713734984,None,729.5654713734984,None,3,1.9510363419540226,729.5654713734984,None,731.5496130615938,None,731.5496130615938,None,731.5496130615938,None,731.5496130615938,None,731.5496130615938,None,731.5496130615938,None,731.5496130615938,None,735.5511275369208,None,735.5511275369208,None,735.5511275369208,None,735.5511275369208,None,735.5511275369208,None,735.5511275369208,None,735.5511275369208,None,745.038051309064,None,736.5347745325416,None,737.5351565913297,None,0.67,7.502927356166765,740.5363318854943,None,None,740.5363318854943,None,,,,,,,,,,,,,,,,,,,24085,2020_Jan_03_1519,Mmi_3levels,3.1.5,59.98474074339681,
,,,2,0,-1.3,,,,,,,,,0,1,1,1,0,9,9,17,,,,,,,,,,,,,,,,,,,,,,,,,,,,,,,,,,,,,,,,,,,,,,,,,,,,,,,,,,,False,True,True,0.67,0.67,6.64,-16.02,-1.3,-17.32,-9.31,certain,certain,-9.31,66.88666666666666,747.0554762533866,None,747.0554762533866,None,747.0554762533866,None,747.0554762533866,None,747.0554762533866,None,747.0554762533866,None,747.0554762533866,None,3,1.3174606221728027,747.0554762533866,None,748.4059916643891,None,748.4059916643891,None,748.4059916643891,None,748.4059916643891,None,748.4059916643891,None,748.4059916643891,None,748.4059916643891,None,752.4074507828336,None,752.4074507828336,None,752.4074507828336,None,752.4074507828336,None,752.4074507828336,None,752.4074507828336,None,752.4074507828336,None,753.3911601749714,None,,,,,,,,,,,,,,,,,,,,,,,,,,,,,,24085,2020_Jan_03_1519,Mmi_3levels,3.1.5,59.98474074339681,
,,,2,0,4.9,,,,,,,,,0,1,1,1,0,10,10,23,,,,,,,,,,,,,,,,,,,,,,,,,,,,,,,,,,,,,,,,,,,,,,,,,,,,,,,,,,,False,True,False,0.67,0.67,7.31,-16.69,4.9,-11.790000000000001,-3.4450000000000003,certain,certain,-3.4450000000000003,63.441666666666656,755.4086468757596,None,755.4086468757596,None,755.4086468757596,None,755.4086468757596,None,755.4086468757596,None,755.4086468757596,None,755.4086468757596,None,3,2.484460550127551,755.4086468757596,None,757.9262124521192,None,757.9262124521192,None,757.9262124521192,None,757.9262124521192,None,757.9262124521192,None,757.9262124521192,None,757.9262124521192,None,761.9277218075003,None,761.9277218075003,None,761.9277218075003,None,761.9277218075003,None,761.9277218075003,None,761.9277218075003,None,761.9277218075003,None,762.9114302399103,None,,,,,,,,,,,,,,,,,,,,,,,,,,,,,,24085,2020_Jan_03_1519,Mmi_3levels,3.1.5,59.98474074339681,
,,,2,0,3.3,,,,,,,,,0,1,1,1,0,11,11,8,,,,,,,,,,,,,,,,,,,,,,,,,,,,,,,,,,,,,,,,,,,,,,,,,,,,,,,,,,,False,True,False,0.67,0.67,7.9799999999999995,-17.36,3.3,-14.059999999999999,-5.379999999999999,certain,certain,-5.379999999999999,58.06166666666665,764.9289236601908,None,764.9289236601908,None,764.9289236601908,None,764.9289236601908,None,764.9289236601908,None,764.9289236601908,None,764.9289236601908,None,3,2.6512828881386667,764.9289236601908,None,767.6132610174827,None,767.6132610174827,None,767.6132610174827,None,767.6132610174827,None,767.6132610174827,None,767.6132610174827,None,767.6132610174827,None,771.6147585334256,None,771.6147585334256,None,771.6147585334256,None,771.6147585334256,None,771.6147585334256,None,771.6147585334256,None,771.6147585334256,None,781.1016512676142,None,772.5984317678958,None,773.598865983542,None,0.66,7.50275520561263,776.5999884805642,None,None,776.5999884805642,None,,,,,,,,,,,,,,,,,,,24085,2020_Jan_03_1519,Mmi_3levels,3.1.5,59.98474074339681,
,,,2,0,13.7,,,,,,,,,0,1,1,1,0,12,12,11,,,,,,,,,,,,,,,,,,,,,,,,,,,,,,,,,,,,,,,,,,,,,,,,,,,,,,,,,,,False,False,False,0.66,0.66,8.639999999999999,3.03,3.425,0.395,1.91,gamble,win,3.425,61.48666666666665,783.1190842112992,None,783.1190842112992,None,783.1190842112992,None,783.1190842112992,None,783.1190842112992,None,783.1190842112992,None,783.1190842112992,None,1,1.217393585946411,783.1190842112992,None,784.3695559448097,None,784.3695559448097,None,784.3695559448097,None,784.3695559448097,None,784.3695559448097,None,784.3695559448097,None,784.3695559448097,None,788.3545091075357,None,788.3545091075357,None,788.3545091075357,None,788.3545091075357,None,788.3545091075357,None,788.3545091075357,None,788.3545091075357,None,789.3547922915313,None,,,,,,,,,,,,,,,,,,,,,,,,,,,,,,24085,2020_Jan_03_1519,Mmi_3levels,3.1.5,59.98474074339681,
,,,2,0,9.9,,,,,,,,,0,1,1,1,0,13,13,3,,,,,,,,,,,,,,,,,,,,,,,,,,,,,,,,,,,,,,,,,,,,,,,,,,,,,,,,,,,False,False,False,0.66,0.66,9.299999999999999,3.085,2.475,-0.6099999999999999,0.9325000000000001,gamble,win,2.475,63.96166666666665,791.3722572335973,None,791.3722572335973,None,791.3722572335973,None,791.3722572335973,None,791.3722572335973,None,791.3722572335973,None,791.3722572335973,None,1,1.9341278488282114,791.3722572335973,None,793.3396753780544,None,793.3396753780544,None,793.3396753780544,None,793.3396753780544,None,793.3396753780544,None,793.3396753780544,None,793.3396753780544,None,797.3244576703291,None,797.3244576703291,None,797.3244576703291,None,797.3244576703291,None,797.3244576703291,None,797.3244576703291,None,797.3244576703291,None,806.8280381099321,None,798.3248874063138,None,799.3252185876481,None,0.69,7.502737926784903,802.3263426846825,None,None,802.3263426846825,None,,,,,,,,,,,,,,,,,,,24085,2020_Jan_03_1519,Mmi_3levels,3.1.5,59.98474074339681,
,,,2,0,9.7,,,,,,,,,0,1,1,1,0,14,14,19,,,,,,,,,,,,,,,,,,,,,,,,,,,,,,,,,,,,,,,,,,,,,,,,,,,,,,,,,,,False,True,True,0.69,0.69,9.989999999999998,-19.65,9.7,-9.95,-0.125,gamble,lose,-9.95,54.011666666666656,808.8455862470437,None,808.8455862470437,None,808.8455862470437,None,808.8455862470437,None,808.8455862470437,None,808.8455862470437,None,808.8455862470437,None,None,,808.8455862470437,None,811.8467167438939,None,811.8467167438939,None,811.8467167438939,None,811.8467167438939,None,811.8467167438939,None,811.8467167438939,None,811.8467167438939,None,815.8481403440237,None,815.8481403440237,None,815.8481403440237,None,815.8481403440237,None,815.8481403440237,None,815.8481403440237,None,815.8481403440237,None,816.8318897341378,None,,,,,,,,,,,,,,,,,,,,,,,,,,,,,,24085,2020_Jan_03_1519,Mmi_3levels,3.1.5,59.98474074339681,
,,,2,0,4.3,,,,,,,,,0,1,1,1,0,15,15,6,,,,,,,,,,,,,,,,,,,,,,,,,,,,,,,,,,,,,,,,,,,,,,,,,,,,,,,,,,,False,False,False,0.69,0.69,10.679999999999998,3.3049999999999997,1.075,-2.2299999999999995,-0.5774999999999998,certain,certain,-0.5774999999999998,53.434166666666655,818.8493277975358,None,818.8493277975358,None,818.8493277975358,None,818.8493277975358,None,818.8493277975358,None,818.8493277975358,None,818.8493277975358,None,3,1.0006940411403775,818.8493277975358,None,819.883052628953,None,819.883052628953,None,819.883052628953,None,819.883052628953,None,819.883052628953,None,819.883052628953,None,819.883052628953,None,823.8678928380832,None,823.8678928380832,None,823.8678928380832,None,823.8678928380832,None,823.8678928380832,None,823.8678928380832,None,823.8678928380832,None,833.3881702625658,None,824.8682387385052,None,825.8685939186253,None,0.63,7.520168630639091,828.869722495554,None,None,828.869722495554,None,,,,,,,,,,,,,,,,,,,24085,2020_Jan_03_1519,Mmi_3levels,3.1.5,59.98474074339681,
,,,2,0,6.5,,,,,,,,,0,1,1,1,0,16,16,14,,,,,,,,,,,,,,,,,,,,,,,,,,,,,,,,,,,,,,,,,,,,,,,,,,,,,,,,,,,False,True,True,0.63,0.63,11.309999999999999,-20.13,6.5,-13.629999999999999,-3.5649999999999995,certain,certain,-3.5649999999999995,49.86916666666666,835.4056102458853,None,835.4056102458853,None,835.4056102458853,None,835.4056102458853,None,835.4056102458853,None,835.4056102458853,None,835.4056102458853,None,3,1.150652683340013,835.4056102458853,None,836.5893221979495,None,836.5893221979495,None,836.5893221979495,None,836.5893221979495,None,836.5893221979495,None,836.5893221979495,None,836.5893221979495,None,840.5908446726389,None,840.5908446726389,None,840.5908446726389,None,840.5908446726389,None,840.5908446726389,None,840.5908446726389,None,840.5908446726389,None,841.5746011023875,None,,,,,,,,,,,,,,,,,,,,,,,,,,,,,,24085,2020_Jan_03_1519,Mmi_3levels,3.1.5,59.98474074339681,
,,,2,0,11.3,,,,,,,,,0,1,1,1,0,17,17,16,,,,,,,,,,,,,,,,,,,,,,,,,,,,,,,,,,,,,,,,,,,,,,,,,,,,,,,,,,,False,True,True,0.63,0.63,11.94,-20.759999999999998,11.3,-9.459999999999997,0.9200000000000017,certain,certain,0.9200000000000017,50.78916666666666,843.5920010879636,None,843.5920010879636,None,843.5920010879636,None,843.5920010879636,None,843.5920010879636,None,843.5920010879636,None,843.5920010879636,None,3,1.884310158668086,843.5920010879636,None,845.5094271521084,None,845.5094271521084,None,845.5094271521084,None,845.5094271521084,None,845.5094271521084,None,845.5094271521084,None,845.5094271521084,None,849.5109003495891,None,849.5109003495891,None,849.5109003495891,None,849.5109003495891,None,849.5109003495891,None,849.5109003495891,None,849.5109003495891,None,850.4945943825878,None,,,,,,,,,,,,,,,,,,,,,,,,,,,,,,24085,2020_Jan_03_1519,Mmi_3levels,3.1.5,59.98474074339681,
,,,2,0,6.1,,,,,,,,,0,1,1,1,0,18,18,13,,,,,,,,,,,,,,,,,,,,,,,,,,,,,,,,,,,,,,,,,,,,,,,,,,,,,,,,,,,False,True,False,0.63,0.63,12.57,-21.39,6.1,-15.290000000000001,-4.595000000000001,certain,certain,-4.595000000000001,46.19416666666666,852.5120670043398,None,852.5120670043398,None,852.5120670043398,None,852.5120670043398,None,852.5120670043398,None,852.5120670043398,None,852.5120670043398,None,3,2.484473989577964,852.5120670043398,None,855.0296357804909,None,855.0296357804909,None,855.0296357804909,None,855.0296357804909,None,855.0296357804909,None,855.0296357804909,None,855.0296357804909,None,859.0145377458539,None,859.0145377458539,None,859.0145377458539,None,859.0145377458539,None,859.0145377458539,None,859.0145377458539,None,859.0145377458539,None,868.5181325846352,None,860.0149233243428,None,861.0152973833028,None,0.7,7.502769284881651,864.0163642035332,None,None,864.0163642035332,None,,,,,,,,,,,,,,,,,,,24085,2020_Jan_03_1519,Mmi_3levels,3.1.5,59.98474074339681,
,,,2,0,2.7,,,,,,,,,0,1,1,1,0,19,19,25,,,,,,,,,,,,,,,,,,,,,,,,,,,,,,,,,,,,,,,,,,,,,,,,,,,,,,,,,,,False,True,False,0.7,0.7,13.27,-23.07,2.7,-20.37,-8.835,certain,certain,-8.835,37.35916666666666,870.5355082515161,None,870.5355082515161,None,870.5355082515161,None,870.5355082515161,None,870.5355082515161,None,870.5355082515161,None,870.5355082515161,None,3,2.2009797852952033,870.5355082515161,None,872.7697444143705,None,872.7697444143705,None,872.7697444143705,None,872.7697444143705,None,872.7697444143705,None,872.7697444143705,None,872.7697444143705,None,876.7712032126728,None,876.7712032126728,None,876.7712032126728,None,876.7712032126728,None,876.7712032126728,None,876.7712032126728,None,876.7712032126728,None,877.7549625220709,None,,,,,,,,,,,,,,,,,,,,,,,,,,,,,,24085,2020_Jan_03_1519,Mmi_3levels,3.1.5,59.98474074339681,
,,,2,0,13.9,,,,,,,,,0,1,1,1,0,20,20,0,,,,,,,,,,,,,,,,,,,,,,,,,,,,,,,,,,,,,,,,,,,,,,,,,,,,,,,,,,,False,True,True,0.7,0.7,13.969999999999999,-23.769999999999996,13.9,-9.869999999999996,-4.934999999999998,gamble,lose,-9.869999999999996,27.489166666666662,879.772335949121,None,879.772335949121,None,879.772335949121,None,879.772335949121,None,879.772335949121,None,879.772335949121,None,879.772335949121,None,1,2.2011224972084165,879.772335949121,None,882.0065650723409,None,882.0065650723409,None,882.0065650723409,None,882.0065650723409,None,882.0065650723409,None,882.0065650723409,None,882.0065650723409,None,886.008091066964,None,886.008091066964,None,886.008091066964,None,886.008091066964,None,886.008091066964,None,886.008091066964,None,886.008091066964,None,895.4950135592371,None,886.9917435024399,None,887.9921198012307,None,0.76,7.502811202546582,890.9932435783558,None,None,890.9932435783558,None,,,,,,,,,,,,,,,,,,,24085,2020_Jan_03_1519,Mmi_3levels,3.1.5,59.98474074339681,
,,,2,0,8.3,,,,,,,,,0,1,1,1,0,21,21,12,,,,,,,,,,,,,,,,,,,,,,,,,,,,,,,,,,,,,,,,,,,,,,,,,,,,,,,,,,,False,False,False,0.76,0.76,14.729999999999999,3.8875,2.075,-1.8125,0.1312500000000001,gamble,win,2.075,29.56416666666666,897.5124359435868,None,897.5124359435868,None,897.5124359435868,None,897.5124359435868,None,897.5124359435868,None,897.5124359435868,None,897.5124359435868,None,1,1.8008898701518774,897.5124359435868,None,899.3464238003362,None,899.3464238003362,None,899.3464238003362,None,899.3464238003362,None,899.3464238003362,None,899.3464238003362,None,899.3464238003362,None,903.3313088067807,None,903.3313088067807,None,903.3313088067807,None,903.3313088067807,None,903.3313088067807,None,903.3313088067807,None,903.3313088067807,None,904.3316428679973,None,,,,,,,,,,,,,,,,,,,,,,,,,,,,,,24085,2020_Jan_03_1519,Mmi_3levels,3.1.5,59.98474074339681,
,,,2,0,2.5,,,,,,,,,0,1,1,1,0,22,22,2,,,,,,,,,,,,,,,,,,,,,,,,,,,,,,,,,,,,,,,,,,,,,,,,,,,,,,,,,,,False,False,False,0.76,0.76,15.489999999999998,3.9508333333333336,0.625,-3.3258333333333336,-1.3504166666666668,gamble,win,0.625,30.18916666666666,906.3490892508999,None,906.3490892508999,None,906.3490892508999,None,906.3490892508999,None,906.3490892508999,None,906.3490892508999,None,906.3490892508999,None,None,,906.3490892508999,None,909.3502408664208,None,909.3502408664208,None,909.3502408664208,None,909.3502408664208,None,909.3502408664208,None,909.3502408664208,None,909.3502408664208,None,913.3517489419319,None,913.3517489419319,None,913.3517489419319,None,913.3517489419319,None,913.3517489419319,None,913.3517489419319,None,913.3517489419319,None,922.8386989529245,None,914.3354797731154,None,915.3358554320876,None,0.71,7.502806082833558,918.3369401714299,None,None,918.3369401714299,None,,,,,,,,,,,,,,,,,,,24085,2020_Jan_03_1519,Mmi_3levels,3.1.5,59.98474074339681,
,,,2,0,11.9,,,,,,,,,0,1,1,1,0,23,23,15,,,,,,,,,,,,,,,,,,,,,,,,,,,,,,,,,,,,,,,,,,,,,,,,,,,,,,,,,,,False,False,True,0.71,0.71,16.2,3.835,2.975,-0.8599999999999999,1.0575,gamble,win,2.975,33.16416666666666,924.8560784596484,None,924.8560784596484,None,924.8560784596484,None,924.8560784596484,None,924.8560784596484,None,924.8560784596484,None,924.8560784596484,None,1,1.6009055492468178,924.8560784596484,None,926.4901031141635,None,926.4901031141635,None,926.4901031141635,None,926.4901031141635,None,926.4901031141635,None,926.4901031141635,None,926.4901031141635,None,930.4748690873384,None,930.4748690873384,None,930.4748690873384,None,930.4748690873384,None,930.4748690873384,None,930.4748690873384,None,930.4748690873384,None,931.4752479461022,None,,,,,,,,,,,,,,,,,,,,,,,,,,,,,,24085,2020_Jan_03_1519,Mmi_3levels,3.1.5,59.98474074339681,
,,,2,0,7.9,,,,,,,,,0,1,1,1,0,24,24,18,,,,,,,,,,,,,,,,,,,,,,,,,,,,,,,,,,,,,,,,,,,,,,,,,,,,,,,,,,,False,True,False,0.71,0.71,16.91,-26.85,7.9,-18.950000000000003,-5.525000000000001,gamble,lose,-18.950000000000003,14.214166666666657,933.4926802499685,None,933.4926802499685,None,933.4926802499685,None,933.4926802499685,None,933.4926802499685,None,933.4926802499685,None,933.4926802499685,None,None,,933.4926802499685,None,936.4938277057372,None,936.4938277057372,None,936.4938277057372,None,936.4938277057372,None,936.4938277057372,None,936.4938277057372,None,936.4938277057372,None,940.4953879383393,None,940.4953879383393,None,940.4953879383393,None,940.4953879383393,None,940.4953879383393,None,940.4953879383393,None,940.4953879383393,None,941.479089651024,None,,,,,,,,,,,,,,,,,,,,,,,,,,,,,,24085,2020_Jan_03_1519,Mmi_3levels,3.1.5,59.98474074339681,
,,,2,0,2.1,,,,,,,,,0,1,1,1,0,25,25,7,,,,,,,,,,,,,,,,,,,,,,,,,,,,,,,,,,,,,,,,,,,,,,,,,,,,,,,,,,,False,True,True,0.71,0.71,17.62,-27.560000000000002,2.1,-25.46,-11.68,certain,certain,-11.68,2.534166666666657,943.4964659579564,None,943.4964659579564,None,943.4964659579564,None,943.4964659579564,None,943.4964659579564,None,943.4964659579564,None,943.4964659579564,None,3,1.534055212745443,943.4964659579564,None,945.0637759484816,None,945.0637759484816,None,945.0637759484816,None,945.0637759484816,None,945.0637759484816,None,945.0637759484816,None,945.0637759484816,None,949.0653038630262,None,949.0653038630262,None,949.0653038630262,None,949.0653038630262,None,949.0653038630262,None,949.0653038630262,None,949.0653038630262,None,958.5522199557163,None,950.0490020557772,None,951.0493274775799,None,0.69,7.502815362531692,954.0504531746265,None,None,954.0504531746265,None,,,,,,,,,,,,,,,,,,,24085,2020_Jan_03_1519,Mmi_3levels,3.1.5,59.98474074339681,
,,,2,0,7.1,,,,,,,,,0,1,1,1,0,26,26,21,,,,,,,,,,,,,,,,,,,,,,,,,,,,,,,,,,,,,,,,,,,,,,,,,,,,,,,,,,,False,True,False,0.69,0.69,18.310000000000002,-27.970000000000002,7.1,-20.870000000000005,-6.8850000000000025,certain,certain,-6.8850000000000025,-4.3508333333333455,960.5696567392442,None,960.5696567392442,None,960.5696567392442,None,960.5696567392442,None,960.5696567392442,None,960.5696567392442,None,960.5696567392442,None,3,1.084001055918634,960.5696567392442,None,961.6866914653219,None,961.6866914653219,None,961.6866914653219,None,961.6866914653219,None,961.6866914653219,None,961.6866914653219,None,961.6866914653219,None,965.6882053005975,None,965.6882053005975,None,965.6882053005975,None,965.6882053005975,None,965.6882053005975,None,965.6882053005975,None,965.6882053005975,None,966.6719649299048,None,,,,,,,,,,,,,,,,,,,,,,,,,,,,,,24085,2020_Jan_03_1519,Mmi_3levels,3.1.5,59.98474074339681,
,,,3,1,2.5,,,,,,,,,0,2,2,2,0,0,0,1,,,,,,,,,,,,,,,,,,,,,,,,,,,,,,,,,,,,,,,,,,,,,,,,978.8265149951912,None,0.54,7.5021472396329045,981.8276355722919,None,None,981.8276355722919,None,986.3293869942427,None,True,False,False,0.54,-0.45999999999999996,-0.45999999999999996,-1.6483333333333332,2.5,0.8516666666666668,1.6758333333333333,gamble,lose,0.8516666666666668,-3.499166666666679,989.3638410649728,None,989.3638410649728,None,989.3638410649728,None,989.3638410649728,None,989.3638410649728,None,989.3638410649728,None,989.3638410649728,None,1,0.9339355395641178,989.3638410649728,None,990.330844512675,None,990.330844512675,None,990.330844512675,None,990.330844512675,None,990.330844512675,None,990.330844512675,None,990.330844512675,None,994.3157535179053,None,994.3157535179053,None,994.3157535179053,None,994.3157535179053,None,994.3157535179053,None,994.3157535179053,None,994.3157535179053,None,1003.8193601958919,None,995.3160869390704,None,996.3165189148858,None,0.52,7.502750405808911,999.3176417320501,None,None,999.3176417320501,None,968.6726631307974,None,4,10.13738206657581,968.6726631307974,None,,,,,,,,,,,,,24085,2020_Jan_03_1519,Mmi_3levels,3.1.5,59.98474074339681,
,,,3,1,10.7,,,,,,,,,0,2,2,2,0,1,1,16,,,,,,,,,,,,,,,,,,,,,,,,,,,,,,,,,,,,,,,,,,,,,,,,,,,,,,,,,,,True,False,True,0.52,-0.48,-0.94,-1.7583333333333333,10.7,8.941666666666666,4.470833333333333,gamble,lose,8.941666666666666,5.4424999999999875,1005.8367982592899,None,1005.8367982592899,None,1005.8367982592899,None,1005.8367982592899,None,1005.8367982592899,None,1005.8367982592899,None,1005.8367982592899,None,1,0.9338859424460679,1005.8367982592899,None,1006.8037866679952,None,1006.8037866679952,None,1006.8037866679952,None,1006.8037866679952,None,1006.8037866679952,None,1006.8037866679952,None,1006.8037866679952,None,1010.8053203420714,None,1010.8053203420714,None,1010.8053203420714,None,1010.8053203420714,None,1010.8053203420714,None,1010.8053203420714,None,1010.8053203420714,None,1011.7890527730342,None,,,,,,,,,,,,,,,,,,,,,,,,,,,,,,24085,2020_Jan_03_1519,Mmi_3levels,3.1.5,59.98474074339681,
,,,3,1,2.7,,,,,,,,,0,2,2,2,0,2,2,14,,,,,,,,,,,,,,,,,,,,,,,,,,,,,,,,,,,,,,,,,,,,,,,,,,,,,,,,,,,True,True,False,0.52,-0.48,-1.42,8.14,2.7,-5.44,-1.37,gamble,win,2.7,8.142499999999988,1013.8064204405528,None,1013.8064204405528,None,1013.8064204405528,None,1013.8064204405528,None,1013.8064204405528,None,1013.8064204405528,None,1013.8064204405528,None,1,1.7509678658097982,1013.8064204405528,None,1015.590496212244,None,1015.590496212244,None,1015.590496212244,None,1015.590496212244,None,1015.590496212244,None,1015.590496212244,None,1015.590496212244,None,1019.5919777292293,None,1019.5919777292293,None,1019.5919777292293,None,1019.5919777292293,None,1019.5919777292293,None,1019.5919777292293,None,1019.5919777292293,None,1020.5757053603884,None,,,,,,,,,,,,,,,,,,,,,,,,,,,,,,24085,2020_Jan_03_1519,Mmi_3levels,3.1.5,59.98474074339681,
,,,3,1,5.5,,,,,,,,,0,2,2,2,0,3,3,19,,,,,,,,,,,,,,,,,,,,,,,,,,,,,,,,,,,,,,,,,,,,,,,,,,,,,,,,,,,True,True,True,0.52,-0.48,-1.9,8.62,5.5,-3.119999999999999,1.1900000000000004,gamble,win,5.5,13.642499999999988,1022.5930627884809,None,1022.5930627884809,None,1022.5930627884809,None,1022.5930627884809,None,1022.5930627884809,None,1022.5930627884809,None,1022.5930627884809,None,1,1.9678082026075572,1022.5930627884809,None,1024.593901461456,None,1024.593901461456,None,1024.593901461456,None,1024.593901461456,None,1024.593901461456,None,1024.593901461456,None,1024.593901461456,None,1028.595421056496,None,1028.595421056496,None,1028.595421056496,None,1028.595421056496,None,1028.595421056496,None,1028.595421056496,None,1028.595421056496,None,1038.0989509387873,None,1029.57903669402,None,1030.57949714805,None,0.65,7.519328997703269,1033.5805617284495,None,None,1033.5805617284495,None,,,,,,,,,,,,,,,,,,,24085,2020_Jan_03_1519,Mmi_3levels,3.1.5,59.98474074339681,
,,,3,1,2.9,,,,,,,,,0,2,2,2,0,4,4,3,,,,,,,,,,,,,,,,,,,,,,,,,,,,,,,,,,,,,,,,,,,,,,,,,,,,,,,,,,,True,False,False,0.65,-0.35,-2.25,-1.4124999999999999,2.9,1.4875,0.74375,gamble,lose,1.4875,15.129999999999988,1040.1164360395633,None,1040.1164360395633,None,1040.1164360395633,None,1040.1164360395633,None,1040.1164360395633,None,1040.1164360395633,None,1040.1164360395633,None,1,1.6341817656066269,1040.1164360395633,None,1041.7837087523658,None,1041.7837087523658,None,1041.7837087523658,None,1041.7837087523658,None,1041.7837087523658,None,1041.7837087523658,None,1041.7837087523658,None,1045.768505443586,None,1045.768505443586,None,1045.768505443586,None,1045.768505443586,None,1045.768505443586,None,1045.768505443586,None,1045.768505443586,None,1046.7688996617217,None,,,,,,,,,,,,,,,,,,,,,,,,,,,,,,24085,2020_Jan_03_1519,Mmi_3levels,3.1.5,59.98474074339681,
,,,3,1,4.7,,,,,,,,,0,2,2,2,0,5,5,26,,,,,,,,,,,,,,,,,,,,,,,,,,,,,,,,,,,,,,,,,,,,,,,,,,,,,,,,,,,True,True,False,0.65,-0.35,-2.6,7.5,4.7,-2.8,0.9500000000000002,gamble,win,4.7,19.829999999999988,1048.7863284456544,None,1048.7863284456544,None,1048.7863284456544,None,1048.7863284456544,None,1048.7863284456544,None,1048.7863284456544,None,1048.7863284456544,None,1,1.6509389074053615,1048.7863284456544,None,1050.4703563801013,None,1050.4703563801013,None,1050.4703563801013,None,1050.4703563801013,None,1050.4703563801013,None,1050.4703563801013,None,1050.4703563801013,None,1054.4718743751291,None,1054.4718743751291,None,1054.4718743751291,None,1054.4718743751291,None,1054.4718743751291,None,1054.4718743751291,None,1054.4718743751291,None,1063.9587936676107,None,1055.4555245705415,None,1056.4559027894866,None,0.62,7.502727687126026,1059.4570262464695,None,None,1059.4570262464695,None,,,,,,,,,,,,,,,,,,,24085,2020_Jan_03_1519,Mmi_3levels,3.1.5,59.98474074339681,
,,,3,1,4.5,,,,,,,,,0,2,2,2,0,6,6,20,,,,,,,,,,,,,,,,,,,,,,,,,,,,,,,,,,,,,,,,,,,,,,,,,,,,,,,,,,,True,True,True,0.62,-0.38,-2.98,8.3,4.5,-3.8000000000000007,0.34999999999999964,gamble,win,4.5,24.329999999999988,1065.9761779741384,None,1065.9761779741384,None,1065.9761779741384,None,1065.9761779741384,None,1065.9761779741384,None,1065.9761779741384,None,1065.9761779741384,None,1,1.317439823411405,1065.9761779741384,None,1067.3267141839024,None,1067.3267141839024,None,1067.3267141839024,None,1067.3267141839024,None,1067.3267141839024,None,1067.3267141839024,None,1067.3267141839024,None,1071.3281973008998,None,1071.3281973008998,None,1071.3281973008998,None,1071.3281973008998,None,1071.3281973008998,None,1071.3281973008998,None,1071.3281973008998,None,1072.311907333089,None,,,,,,,,,,,,,,,,,,,,,,,,,,,,,,24085,2020_Jan_03_1519,Mmi_3levels,3.1.5,59.98474074339681,
,,,3,1,6.1,,,,,,,,,0,2,2,2,0,7,7,24,,,,,,,,,,,,,,,,,,,,,,,,,,,,,,,,,,,,,,,,,,,,,,,,,,,,,,,,,,,True,True,False,0.62,-0.38,-3.36,8.68,6.1,-2.58,1.7599999999999998,gamble,win,6.1,30.429999999999986,1074.329333877191,None,1074.329333877191,None,1074.329333877191,None,1074.329333877191,None,1074.329333877191,None,1074.329333877191,None,1074.329333877191,None,1,0.7339000217616558,1074.329333877191,None,1075.0962957274169,None,1075.0962957274169,None,1075.0962957274169,None,1075.0962957274169,None,1075.0962957274169,None,1075.0962957274169,None,1075.0962957274169,None,1079.0978658795357,None,1079.0978658795357,None,1079.0978658795357,None,1079.0978658795357,None,1079.0978658795357,None,1079.0978658795357,None,1079.0978658795357,None,1088.584735254757,None,1080.0815733519848,None,1081.0819406912196,None,0.63,7.502709448337555,1084.0831278248224,None,None,1084.0831278248224,None,,,,,,,,,,,,,,,,,,,24085,2020_Jan_03_1519,Mmi_3levels,3.1.5,59.98474074339681,
,,,3,1,8.7,,,,,,,,,0,2,2,2,0,8,8,0,,,,,,,,,,,,,,,,,,,,,,,,,,,,,,,,,,,,,,,,,,,,,,,,,,,,,,,,,,,True,True,False,0.63,-0.37,-3.73,8.91,8.7,-0.21000000000000085,-0.10500000000000043,gamble,win,8.7,39.12999999999998,1090.6022213154938,None,1090.6022213154938,None,1090.6022213154938,None,1090.6022213154938,None,1090.6022213154938,None,1090.6022213154938,None,1090.6022213154938,None,1,0.8004988520406187,1090.6022213154938,None,1091.435814314289,None,1091.435814314289,None,1091.435814314289,None,1091.435814314289,None,1091.435814314289,None,1091.435814314289,None,1091.435814314289,None,1095.42065548338,None,1095.42065548338,None,1095.42065548338,None,1095.42065548338,None,1095.42065548338,None,1095.42065548338,None,1095.42065548338,None,1096.421038501896,None,,,,,,,,,,,,,,,,,,,,,,,,,,,,,,24085,2020_Jan_03_1519,Mmi_3levels,3.1.5,59.98474074339681,
,,,3,1,1.7,,,,,,,,,0,2,2,2,0,9,9,5,,,,,,,,,,,,,,,,,,,,,,,,,,,,,,,,,,,,,,,,,,,,,,,,,,,,,,,,,,,True,True,True,0.63,-0.37,-4.1,9.28,1.7,-7.579999999999999,-2.9399999999999995,gamble,win,1.7,40.829999999999984,1098.438471445581,None,1098.438471445581,None,1098.438471445581,None,1098.438471445581,None,1098.438471445581,None,1098.438471445581,None,1098.438471445581,None,1,1.5009057093411684,1098.438471445581,None,1099.9724325838033,None,1099.9724325838033,None,1099.9724325838033,None,1099.9724325838033,None,1099.9724325838033,None,1099.9724325838033,None,1099.9724325838033,None,1103.9739000215195,None,1103.9739000215195,None,1103.9739000215195,None,1103.9739000215195,None,1103.9739000215195,None,1103.9739000215195,None,1103.9739000215195,None,1104.9576036541257,None,,,,,,,,,,,,,,,,,,,,,,,,,,,,,,24085,2020_Jan_03_1519,Mmi_3levels,3.1.5,59.98474074339681,
,,,3,1,7.3,,,,,,,,,0,2,2,2,0,10,10,9,,,,,,,,,,,,,,,,,,,,,,,,,,,,,,,,,,,,,,,,,,,,,,,,,,,,,,,,,,,True,True,False,0.63,-0.37,-4.47,9.649999999999999,7.3,-2.3499999999999988,-1.1749999999999994,gamble,win,7.3,48.12999999999998,1106.9750833152793,None,1106.9750833152793,None,1106.9750833152793,None,1106.9750833152793,None,1106.9750833152793,None,1106.9750833152793,None,1106.9750833152793,None,1,1.2007599575445056,1106.9750833152793,None,1108.2088852624875,None,1108.2088852624875,None,1108.2088852624875,None,1108.2088852624875,None,1108.2088852624875,None,1108.2088852624875,None,1108.2088852624875,None,1112.2104010174517,None,1112.2104010174517,None,1112.2104010174517,None,1112.2104010174517,None,1112.2104010174517,None,1112.2104010174517,None,1112.2104010174517,None,1121.697267832933,None,1113.1940492931753,None,1114.194433271652,None,0.65,7.502745286328718,1117.1956095257774,None,None,1117.1956095257774,None,,,,,,,,,,,,,,,,,,,24085,2020_Jan_03_1519,Mmi_3levels,3.1.5,59.98474074339681,
,,,3,1,12.3,,,,,,,,,0,2,2,2,0,11,11,2,,,,,,,,,,,,,,,,,,,,,,,,,,,,,,,,,,,,,,,,,,,,,,,,,,,,,,,,,,,True,True,False,0.65,-0.35,-4.819999999999999,9.719999999999999,12.3,2.580000000000002,1.290000000000001,gamble,win,12.3,60.42999999999998,1123.7147558135912,None,1123.7147558135912,None,1123.7147558135912,None,1123.7147558135912,None,1123.7147558135912,None,1123.7147558135912,None,1123.7147558135912,None,1,0.9005985264666378,1123.7147558135912,None,1124.648398249643,None,1124.648398249643,None,1124.648398249643,None,1124.648398249643,None,1124.648398249643,None,1124.648398249643,None,1124.648398249643,None,1128.6499373635743,None,1128.6499373635743,None,1128.6499373635743,None,1128.6499373635743,None,1128.6499373635743,None,1128.6499373635743,None,1128.6499373635743,None,1129.6336614750326,None,,,,,,,,,,,,,,,,,,,,,,,,,,,,,,24085,2020_Jan_03_1519,Mmi_3levels,3.1.5,59.98474074339681,
,,,3,1,1.3,,,,,,,,,0,2,2,2,0,12,12,4,,,,,,,,,,,,,,,,,,,,,,,,,,,,,,,,,,,,,,,,,,,,,,,,,,,,,,,,,,,True,False,False,0.65,-0.35,-5.169999999999999,-1.655833333333333,1.3,-0.355833333333333,0.4720833333333335,gamble,lose,-0.355833333333333,60.07416666666664,1131.651105298195,None,1131.651105298195,None,1131.651105298195,None,1131.651105298195,None,1131.651105298195,None,1131.651105298195,None,1131.651105298195,None,1,1.4341657666955143,1131.651105298195,None,1133.1183399329893,None,1133.1183399329893,None,1133.1183399329893,None,1133.1183399329893,None,1133.1183399329893,None,1133.1183399329893,None,1133.1183399329893,None,1137.1031577431131,None,1137.1031577431131,None,1137.1031577431131,None,1137.1031577431131,None,1137.1031577431131,None,1137.1031577431131,None,1137.1031577431131,None,1146.6067538617644,None,1138.1035375618376,None,1139.103917380562,None,0.65,7.5027516859117895,1142.1050334780011,None,None,1142.1050334780011,None,,,,,,,,,,,,,,,,,,,24085,2020_Jan_03_1519,Mmi_3levels,3.1.5,59.98474074339681,
,,,3,1,1.1,,,,,,,,,0,2,2,2,0,13,13,11,,,,,,,,,,,,,,,,,,,,,,,,,,,,,,,,,,,,,,,,,,,,,,,,,,,,,,,,,,,True,True,False,0.65,-0.35,-5.519999999999999,10.419999999999998,1.1,-9.319999999999999,-4.109999999999999,gamble,win,1.1,61.17416666666664,1148.6241372083314,None,1148.6241372083314,None,1148.6241372083314,None,1148.6241372083314,None,1148.6241372083314,None,1148.6241372083314,None,1148.6241372083314,None,1,1.3174673416651785,1148.6241372083314,None,1149.9746951770503,None,1149.9746951770503,None,1149.9746951770503,None,1149.9746951770503,None,1149.9746951770503,None,1149.9746951770503,None,1149.9746951770503,None,1153.9762106121052,None,1153.9762106121052,None,1153.9762106121052,None,1153.9762106121052,None,1153.9762106121052,None,1153.9762106121052,None,1153.9762106121052,None,1154.9598652876448,None,,,,,,,,,,,,,,,,,,,,,,,,,,,,,,24085,2020_Jan_03_1519,Mmi_3levels,3.1.5,59.98474074339681,
,,,3,1,5.7,,,,,,,,,0,2,2,2,0,14,14,12,,,,,,,,,,,,,,,,,,,,,,,,,,,,,,,,,,,,,,,,,,,,,,,,,,,,,,,,,,,True,True,True,0.65,-0.35,-5.869999999999998,10.769999999999998,5.7,-5.069999999999998,0.3150000000000013,gamble,win,5.7,66.87416666666664,1156.9773020711727,None,1156.9773020711727,None,1156.9773020711727,None,1156.9773020711727,None,1156.9773020711727,None,1156.9773020711727,None,1156.9773020711727,None,1,1.117344468832016,1156.9773020711727,None,1158.127731087152,None,1158.127731087152,None,1158.127731087152,None,1158.127731087152,None,1158.127731087152,None,1158.127731087152,None,1158.127731087152,None,1162.1292983593885,None,1162.1292983593885,None,1162.1292983593885,None,1162.1292983593885,None,1162.1292983593885,None,1162.1292983593885,None,1162.1292983593885,None,1163.1130077515263,None,,,,,,,,,,,,,,,,,,,,,,,,,,,,,,24085,2020_Jan_03_1519,Mmi_3levels,3.1.5,59.98474074339681,
,,,3,1,11.3,,,,,,,,,0,2,2,2,0,15,15,25,,,,,,,,,,,,,,,,,,,,,,,,,,,,,,,,,,,,,,,,,,,,,,,,,,,,,,,,,,,True,True,True,0.65,-0.35,-6.219999999999998,11.119999999999997,11.3,0.18000000000000327,0.09000000000000163,gamble,win,11.3,78.17416666666664,1165.1303840584587,None,1165.1303840584587,None,1165.1303840584587,None,1165.1303840584587,None,1165.1303840584587,None,1165.1303840584587,None,1165.1303840584587,None,1,0.7172363146673888,1165.1303840584587,None,1165.880728919059,None,1165.880728919059,None,1165.880728919059,None,1165.880728919059,None,1165.880728919059,None,1165.880728919059,None,1165.880728919059,None,1169.8655096115544,None,1169.8655096115544,None,1169.8655096115544,None,1169.8655096115544,None,1169.8655096115544,None,1169.8655096115544,None,1169.8655096115544,None,1179.3691502076108,None,1170.8659406274091,None,1171.866266048979,None,0.57,7.502808642573655,1174.867407425074,None,None,1174.867407425074,None,,,,,,,,,,,,,,,,,,,24085,2020_Jan_03_1519,Mmi_3levels,3.1.5,59.98474074339681,
,,,3,1,-1.3,,,,,,,,,0,2,2,2,0,16,16,17,,,,,,,,,,,,,,,,,,,,,,,,,,,,,,,,,,,,,,,,,,,,,,,,,,,,,,,,,,,True,True,True,0.57,-0.43000000000000005,-6.649999999999998,12.669999999999998,-1.3,-13.969999999999999,-7.635,gamble,win,-1.3,76.87416666666664,1181.3865943506826,None,1181.3865943506826,None,1181.3865943506826,None,1181.3865943506826,None,1181.3865943506826,None,1181.3865943506826,None,1181.3865943506826,None,1,1.8175462174694985,1181.3865943506826,None,1183.2372430344112,None,1183.2372430344112,None,1183.2372430344112,None,1183.2372430344112,None,1183.2372430344112,None,1183.2372430344112,None,1183.2372430344112,None,1187.2388144664,None,1187.2388144664,None,1187.2388144664,None,1187.2388144664,None,1187.2388144664,None,1187.2388144664,None,1187.2388144664,None,1188.2224621020723,None,,,,,,,,,,,,,,,,,,,,,,,,,,,,,,24085,2020_Jan_03_1519,Mmi_3levels,3.1.5,59.98474074339681,
,,,3,1,12.5,,,,,,,,,0,2,2,2,0,17,17,6,,,,,,,,,,,,,,,,,,,,,,,,,,,,,,,,,,,,,,,,,,,,,,,,,,,,,,,,,,,True,False,False,0.57,-0.43000000000000005,-7.079999999999997,-2.0949999999999998,12.5,10.405000000000001,5.202500000000001,gamble,lose,10.405000000000001,87.27916666666664,1190.2398937658872,None,1190.2398937658872,None,1190.2398937658872,None,1190.2398937658872,None,1190.2398937658872,None,1190.2398937658872,None,1190.2398937658872,None,1,0.9674530227202922,1190.2398937658872,None,1191.2403311815578,None,1191.2403311815578,None,1191.2403311815578,None,1191.2403311815578,None,1191.2403311815578,None,1191.2403311815578,None,1191.2403311815578,None,1195.241841816809,None,1195.241841816809,None,1195.241841816809,None,1195.241841816809,None,1195.241841816809,None,1195.241841816809,None,1195.241841816809,None,1204.728711832082,None,1196.2255432095844,None,1197.2258731110487,None,0.54,7.502828161697835,1200.2270813633222,None,None,1200.2270813633222,None,,,,,,,,,,,,,,,,,,,24085,2020_Jan_03_1519,Mmi_3levels,3.1.5,59.98474074339681,
,,,3,1,9.5,,,,,,,,,0,2,2,2,0,18,18,10,,,,,,,,,,,,,,,,,,,,,,,,,,,,,,,,,,,,,,,,,,,,,,,,,,,,,,,,,,,True,True,False,0.54,-0.45999999999999996,-7.539999999999997,13.979999999999997,9.5,-4.479999999999997,-2.2399999999999984,gamble,win,9.5,96.77916666666664,1206.7461418961175,None,1206.7461418961175,None,1206.7461418961175,None,1206.7461418961175,None,1206.7461418961175,None,1206.7461418961175,None,1206.7461418961175,None,1,1.0840455333236605,1206.7461418961175,None,1207.8632799764164,None,1207.8632799764164,None,1207.8632799764164,None,1207.8632799764164,None,1207.8632799764164,None,1207.8632799764164,None,1207.8632799764164,None,1211.8647602135316,None,1211.8647602135316,None,1211.8647602135316,None,1211.8647602135316,None,1211.8647602135316,None,1211.8647602135316,None,1211.8647602135316,None,1212.8485012839083,None,,,,,,,,,,,,,,,,,,,,,,,,,,,,,,24085,2020_Jan_03_1519,Mmi_3levels,3.1.5,59.98474074339681,
,,,3,1,12.1,,,,,,,,,0,2,2,2,0,19,19,15,,,,,,,,,,,,,,,,,,,,,,,,,,,,,,,,,,,,,,,,,,,,,,,,,,,,,,,,,,,True,True,False,0.54,-0.45999999999999996,-7.999999999999997,14.439999999999998,12.1,-2.339999999999998,-1.169999999999999,gamble,win,12.1,108.87916666666663,1214.8658759908285,None,1214.8658759908285,None,1214.8658759908285,None,1214.8658759908285,None,1214.8658759908285,None,1214.8658759908285,None,1214.8658759908285,None,1,1.517501579830423,1214.8658759908285,None,1216.4164704375435,None,1216.4164704375435,None,1216.4164704375435,None,1216.4164704375435,None,1216.4164704375435,None,1216.4164704375435,None,1216.4164704375435,None,1220.4180037917104,None,1220.4180037917104,None,1220.4180037917104,None,1220.4180037917104,None,1220.4180037917104,None,1220.4180037917104,None,1220.4180037917104,None,1229.9049608421046,None,1221.4017058245372,None,1222.402066764189,None,0.67,7.502821441972628,1225.4031924612354,None,None,1225.4031924612354,None,,,,,,,,,,,,,,,,,,,24085,2020_Jan_03_1519,Mmi_3levels,3.1.5,59.98474074339681,
,,,3,1,5.3,,,,,,,,,0,2,2,2,0,20,20,23,,,,,,,,,,,,,,,,,,,,,,,,,,,,,,,,,,,,,,,,,,,,,,,,,,,,,,,,,,,True,False,False,0.67,-0.32999999999999996,-8.329999999999997,-1.8491666666666662,5.3,3.4508333333333336,1.7254166666666668,gamble,lose,3.4508333333333336,112.32999999999997,1231.9223416289315,None,1231.9223416289315,None,1231.9223416289315,None,1231.9223416289315,None,1231.9223416289315,None,1231.9223416289315,None,1231.9223416289315,None,1,1.4174479828216136,1231.9223416289315,None,1233.3729112769943,None,1233.3729112769943,None,1233.3729112769943,None,1233.3729112769943,None,1233.3729112769943,None,1233.3729112769943,None,1233.3729112769943,None,1237.3577617253177,None,1237.3577617253177,None,1237.3577617253177,None,1237.3577617253177,None,1237.3577617253177,None,1237.3577617253177,None,1237.3577617253177,None,1238.3581575432327,None,,,,,,,,,,,,,,,,,,,,,,,,,,,,,,24085,2020_Jan_03_1519,Mmi_3levels,3.1.5,59.98474074339681,
,,,3,1,3.1,,,,,,,,,0,2,2,2,0,21,21,18,,,,,,,,,,,,,,,,,,,,,,,,,,,,,,,,,,,,,,,,,,,,,,,,,,,,,,,,,,,True,True,True,0.67,-0.32999999999999996,-8.659999999999997,13.279999999999996,3.1,-10.179999999999996,-3.5399999999999983,gamble,win,3.1,115.42999999999996,1240.375533530023,None,1240.375533530023,None,1240.375533530023,None,1240.375533530023,None,1240.375533530023,None,1240.375533530023,None,1240.375533530023,None,1,1.0506717222742736,1240.375533530023,None,1241.4593070787378,None,1241.4593070787378,None,1241.4593070787378,None,1241.4593070787378,None,1241.4593070787378,None,1241.4593070787378,None,1241.4593070787378,None,1245.4608477924485,None,1245.4608477924485,None,1245.4608477924485,None,1245.4608477924485,None,1245.4608477924485,None,1245.4608477924485,None,1245.4608477924485,None,1246.4445523850154,None,,,,,,,,,,,,,,,,,,,,,,,,,,,,,,24085,2020_Jan_03_1519,Mmi_3levels,3.1.5,59.98474074339681,
,,,3,1,7.5,,,,,,,,,0,2,2,2,0,22,22,21,,,,,,,,,,,,,,,,,,,,,,,,,,,,,,,,,,,,,,,,,,,,,,,,,,,,,,,,,,,True,True,True,0.67,-0.32999999999999996,-8.989999999999997,13.609999999999996,7.5,-6.109999999999996,0.6950000000000021,gamble,win,7.5,122.92999999999996,1248.4619802089874,None,1248.4619802089874,None,1248.4619802089874,None,1248.4619802089874,None,1248.4619802089874,None,1248.4619802089874,None,1248.4619802089874,None,1,0.917241434333846,1248.4619802089874,None,1249.4122975512873,None,1249.4122975512873,None,1249.4122975512873,None,1249.4122975512873,None,1249.4122975512873,None,1249.4122975512873,None,1249.4122975512873,None,1253.3971326404717,None,1253.3971326404717,None,1253.3971326404717,None,1253.3971326404717,None,1253.3971326404717,None,1253.3971326404717,None,1253.3971326404717,None,1262.9007303591352,None,1254.3975674961694,None,1255.3979149968363,None,0.7,7.502741766395047,1258.3990611725021,None,None,1258.3990611725021,None,,,,,,,,,,,,,,,,,,,24085,2020_Jan_03_1519,Mmi_3levels,3.1.5,59.98474074339681,
,,,3,1,8.3,,,,,,,,,0,2,2,2,0,23,23,7,,,,,,,,,,,,,,,,,,,,,,,,,,,,,,,,,,,,,,,,,,,,,,,,,,,,,,,,,,,True,False,True,0.7,-0.30000000000000004,-9.289999999999997,-1.8241666666666667,8.3,6.475833333333334,3.237916666666667,gamble,lose,6.475833333333334,129.4058333333333,1264.9181863416452,None,1264.9181863416452,None,1264.9181863416452,None,1264.9181863416452,None,1264.9181863416452,None,1264.9181863416452,None,1264.9181863416452,None,1,0.5671864775940776,1264.9181863416452,None,1265.5184624860995,None,1265.5184624860995,None,1265.5184624860995,None,1265.5184624860995,None,1265.5184624860995,None,1265.5184624860995,None,1265.5184624860995,None,1269.5199004856404,None,1269.5199004856404,None,1269.5199004856404,None,1269.5199004856404,None,1269.5199004856404,None,1269.5199004856404,None,1269.5199004856404,None,1270.5036063580774,None,,,,,,,,,,,,,,,,,,,,,,,,,,,,,,24085,2020_Jan_03_1519,Mmi_3levels,3.1.5,59.98474074339681,
,,,3,1,-0.9,,,,,,,,,0,2,2,2,0,24,24,13,,,,,,,,,,,,,,,,,,,,,,,,,,,,,,,,,,,,,,,,,,,,,,,,,,,,,,,,,,,True,True,False,0.7,-0.30000000000000004,-9.589999999999998,13.79,-0.9,-14.69,-7.795,gamble,win,-0.9,128.5058333333333,1272.5210623405874,None,1272.5210623405874,None,1272.5210623405874,None,1272.5210623405874,None,1272.5210623405874,None,1272.5210623405874,None,1272.5210623405874,None,1,1.7175921348389238,1272.5210623405874,None,1274.2717515018303,None,1274.2717515018303,None,1274.2717515018303,None,1274.2717515018303,None,1274.2717515018303,None,1274.2717515018303,None,1274.2717515018303,None,1278.273272056831,None,1278.273272056831,None,1278.273272056831,None,1278.273272056831,None,1278.273272056831,None,1278.273272056831,None,1278.273272056831,None,1287.7601919891313,None,1279.256934411591,None,1280.2573030309286,None,0.62,7.502752005821094,1283.2584216883406,None,None,1283.2584216883406,None,,,,,,,,,,,,,,,,,,,24085,2020_Jan_03_1519,Mmi_3levels,3.1.5,59.98474074339681,
,,,3,1,4.1,,,,,,,,,0,2,2,2,0,25,25,22,,,,,,,,,,,,,,,,,,,,,,,,,,,,,,,,,,,,,,,,,,,,,,,,,,,,,,,,,,,True,False,True,0.62,-0.38,-9.969999999999999,-2.160833333333333,4.1,1.9391666666666665,0.9695833333333332,gamble,lose,1.9391666666666665,130.44499999999996,1289.7775833352935,None,1289.7775833352935,None,1289.7775833352935,None,1289.7775833352935,None,1289.7775833352935,None,1289.7775833352935,None,1289.7775833352935,None,1,0.8506166855804622,1289.7775833352935,None,1290.6612532099243,None,1290.6612532099243,None,1290.6612532099243,None,1290.6612532099243,None,1290.6612532099243,None,1290.6612532099243,None,1290.6612532099243,None,1294.6461289366707,None,1294.6461289366707,None,1294.6461289366707,None,1294.6461289366707,None,1294.6461289366707,None,1294.6461289366707,None,1294.6461289366707,None,1295.6465141952503,None,,,,,,,,,,,,,,,,,,,,,,,,,,,,,,24085,2020_Jan_03_1519,Mmi_3levels,3.1.5,59.98474074339681,
,,,3,1,10.1,,,,,,,,,0,2,2,2,0,26,26,8,,,,,,,,,,,,,,,,,,,,,,,,,,,,,,,,,,,,,,,,,,,,,,,,,,,,,,,,,,,True,True,False,0.62,-0.38,-10.35,15.67,10.1,-5.57,-2.785,gamble,win,10.1,140.54499999999996,1297.6639209003188,None,1297.6639209003188,None,1297.6639209003188,None,1297.6639209003188,None,1297.6639209003188,None,1297.6639209003188,None,1297.6639209003188,None,1,0.8338995415251702,1297.6639209003188,None,1298.530910429079,None,1298.530910429079,None,1298.530910429079,None,1298.530910429079,None,1298.530910429079,None,1298.530910429079,None,1298.530910429079,None,1302.5324290639255,None,1302.5324290639255,None,1302.5324290639255,None,1302.5324290639255,None,1302.5324290639255,None,1302.5324290639255,None,1302.5324290639255,None,1312.0193208379205,None,1303.516103898175,None,1304.5165601926856,None,0.68,7.502828161697835,1307.5176074940246,None,None,1307.5176074940246,None,,,,,,,,,,,,,,,,,,,24085,2020_Jan_03_1519,Mmi_3levels,3.1.5,59.98474074339681,
,,,,,,,,,,,,,,,,,,,,,,,,,,,,,,0,0,0,0,,,,,,,,,,,,,,,,,,,,,,,,,,,,,,,,,,,,,,,,,,,,,,,,,,,,,,,,,,,,,,,,,,,,,,,,,,,,,,,,,,,,,,,,,,,,,,,,,,,,,,,,,,,,,,,,,,,,,,,,1314.0201268729288,None,4,2.3011088978964835,1314.0201268729288,None,140.54499999999996,4,1316.3376895694528,None,1316.3376895694528,None,1316.3376895694528,None,4,5.052132760407403,1316.3376895694528,None,24085,2020_Jan_03_1519,Mmi_3levels,3.1.5,59.98474074339681,
