currSlide,currImage,currText,blockNum,targetHappiness,highAmount,instructionLoop1.thisRepN,instructionLoop1.thisTrialN,instructionLoop1.thisN,instructionLoop1.thisIndex,instructionLoop2.thisRepN,instructionLoop2.thisTrialN,instructionLoop2.thisN,instructionLoop2.thisIndex,blockLoop.thisRepN,blockLoop.thisTrialN,blockLoop.thisN,blockLoop.thisIndex,trialLoop.thisRepN,trialLoop.thisTrialN,trialLoop.thisN,trialLoop.thisIndex,doRatingLoop.thisRepN,doRatingLoop.thisTrialN,doRatingLoop.thisN,doRatingLoop.thisIndex,trialHappyLoop.thisRepN,trialHappyLoop.thisTrialN,trialHappyLoop.thisN,trialHappyLoop.thisIndex,logWinningsLoop.thisRepN,logWinningsLoop.thisTrialN,logWinningsLoop.thisN,logWinningsLoop.thisIndex,instrImage.started,instrImage.stopped,instrText.started,instrText.stopped,instrContinueText.started,instrContinueText.stopped,instrKeyResp.keys,instrKeyResp.rt,instrKeyResp.started,instrKeyResp.stopped,lifeHappyText.started,lifeHappyText.stopped,lifeHappySlider.response,lifeHappySlider.rt,lifeHappySlider.started,lifeHappySlider.stopped,lifeHappyResp.keys,lifeHappyResp.rt,lifeHappyResp.started,lifeHappyResp.stopped,instrImage_2.started,instrImage_2.stopped,instrText_2.started,instrText_2.stopped,instrContinueText_2.started,instrContinueText_2.stopped,instrKeyResp_2.keys,instrKeyResp_2.rt,instrKeyResp_2.started,instrKeyResp_2.stopped,localizing.started,localizing.stopped,start_exp.keys,start_exp.rt,start_exp.started,start_exp.stopped,blockHappyText.started,blockHappyText.stopped,blockHappySlider.response,blockHappySlider.rt,blockHappySlider.started,blockHappySlider.stopped,blockHappyResp.keys,blockHappyResp.started,blockHappyResp.stopped,blankText.started,blankText.stopped,isHappyBlock,isCongruent,isWinOnTop,lastHappyRating,diff,sumDiff,RPE,winAmount,loseAmount,certainAmount,choice,outcome,outcomeAmount,currentWinnings,fixCross.started,fixCross.stopped,certainBox.started,certainBox.stopped,outcome1Box.started,outcome1Box.stopped,outcome2Box.started,outcome2Box.stopped,certainText.started,certainText.stopped,outcome1Text.started,outcome1Text.stopped,outcome2Text.started,outcome2Text.stopped,choiceKey.keys,choiceKey.started,choiceKey.stopped,fixCross_2.started,fixCross_2.stopped,certainBox_2.started,certainBox_2.stopped,outcome1Box_2.started,outcome1Box_2.stopped,outcome2Box_2.started,outcome2Box_2.stopped,certainText_2.started,certainText_2.stopped,outcome1Text_2.started,outcome1Text_2.stopped,outcome2Text_2.started,outcome2Text_2.stopped,fixCross_3.started,fixCross_3.stopped,certainBox_3.started,certainBox_3.stopped,outcome1Box_3.started,outcome1Box_3.stopped,outcome2Box_3.started,outcome2Box_3.stopped,certainText_3.started,certainText_3.stopped,outcome1Text_3.started,outcome1Text_3.stopped,outcome2Text_3.started,outcome2Text_3.stopped,fixCross_ITI.started,fixCross_ITI.stopped,choiceKey.rt,fixCross_ISI.started,fixCross_ISI.stopped,happyText.started,happyText.stopped,happySlider.response,happySlider.rt,happySlider.started,happySlider.stopped,happyResp.keys,happyResp.started,happyResp.stopped,endOfBlockText.started,endOfBlockText.stopped,restKeyResp.keys,restKeyResp.rt,restKeyResp.started,restKeyResp.stopped,finalWinnings,cashBonus,goodbyeText.started,goodbyeText.stopped,finalWinningsText.started,finalWinningsText.stopped,spaceToContinue.started,spaceToContinue.stopped,goodbyeKeyResp_2.keys,goodbyeKeyResp_2.rt,goodbyeKeyResp_2.started,goodbyeKeyResp_2.stopped,participant,date,expName,psychopyVersion,frameRate,
1,black.png,"Welcome! You are about to play our gambling task.
This task has 3 blocks and takes about 15 minutes.",,,,0,0,0,0,,,,,,,,,,,,,,,,,,,,,,,,,13.325457294355147,None,13.325457294355147,None,13.325457294355147,None,4,8.554598062532023,13.325457294355147,None,,,,,,,,,,,,,,,,,,,,,,,,,,,,,,,,,,,,,,,,,,,,,,,,,,,,,,,,,,,,,,,,,,,,,,,,,,,,,,,,,,,,,,,,,,,,,,,,,,,,,,,,,,,,,,,,,,,,,,,,,,,,,,,,,24223,2019_Dec_23_1144,Mmi_3levels,3.1.5,59.97645217186193,
2,black.png,"In this game, you may win or lose points. Your goal is to get as many points as possible. These points will be converted to a cash bonus at the end.
Sometimes we will ask you to rate your mood.",,,,0,1,1,1,,,,,,,,,,,,,,,,,,,,,,,,,21.92978889180813,None,21.92978889180813,None,21.92978889180813,None,4,3.2515078355791047,21.92978889180813,None,,,,,,,,,,,,,,,,,,,,,,,,,,,,,,,,,,,,,,,,,,,,,,,,,,,,,,,,,,,,,,,,,,,,,,,,,,,,,,,,,,,,,,,,,,,,,,,,,,,,,,,,,,,,,,,,,,,,,,,,,,,,,,,,,24223,2019_Dec_23_1144,Mmi_3levels,3.1.5,59.97645217186193,
3,black.png,"On the next screen, please rate how you feel about your life these days. Use the LEFT (green) and RIGHT (blue) buttons to move the slider (you can press and hold them to slide gradually) and the TOP (red) button to lock in your response.
Make your rating as accurately and quickly as you can!",,,,0,2,2,2,,,,,,,,,,,,,,,,,,,,,,,,,25.23109297879273,None,25.23109297879273,None,25.23109297879273,None,4,6.6360936587443575,25.23109297879273,None,,,,,,,,,,,,,,,,,,,,,,,,,,,,,,,,,,,,,,,,,,,,,,,,,,,,,,,,,,,,,,,,,,,,,,,,,,,,,,,,,,,,,,,,,,,,,,,,,,,,,,,,,,,,,,,,,,,,,,,,,,,,,,,,,24223,2019_Dec_23_1144,Mmi_3levels,3.1.5,59.97645217186193,
,,,,,,,,,,,,,,,,,,,,,,,,,,,,,,,,,,,,,,,,,,,,31.883614517573733,None,1.0,8.918956858455203,35.88516163092572,None,4,4.901861175778322,35.88516163092572,None,,,,,,,,,,,,,,,,,,,,,,,,,,,,,,,,,,,,,,,,,,,,,,,,,,,,,,,,,,,,,,,,,,,,,,,,,,,,,,,,,,,,,,,,,,,,,,,,,,,,,,,,,,,,,,,,,,,,,,,24223,2019_Dec_23_1144,Mmi_3levels,3.1.5,59.97645217186193,
4,black.png,"In this game you can win money by earning points according to your choices. You will decide whether to gamble a number of points or stick with a guaranteed number of points. 
Make your choice by pressing the left or right arrow key once. An example of one trial is shown on the next screen.",,,,,,,,0,0,0,0,,,,,,,,,,,,,,,,,,,,,,,,,,,,,,,,,,,,,,,,,40.85369587299647,None,40.85369587299647,None,40.85369587299647,None,4,6.285947186988778,40.85369587299647,None,,,,,,,,,,,,,,,,,,,,,,,,,,,,,,,,,,,,,,,,,,,,,,,,,,,,,,,,,,,,,,,,,,,,,,,,,,,,,,,,,,,,,,,,,,,,,,,,,,,,,,,,,,,,,24223,2019_Dec_23_1144,Mmi_3levels,3.1.5,59.97645217186193,
5,example_start.png,"The GAMBLING OPTION will be shown on the RIGHT SIDE. 
Select this option using the RIGHT (blue) button on your keypad.",,,,,,,,0,1,1,1,,,,,,,,,,,,,,,,,,,,,,,,,,,,,,,,,,,,,,,,,47.20612925675232,None,47.20612925675232,None,47.20612925675232,None,4,4.701981809048448,47.20612925675232,None,,,,,,,,,,,,,,,,,,,,,,,,,,,,,,,,,,,,,,,,,,,,,,,,,,,,,,,,,,,,,,,,,,,,,,,,,,,,,,,,,,,,,,,,,,,,,,,,,,,,,,,,,,,,,24223,2019_Dec_23_1144,Mmi_3levels,3.1.5,59.97645217186193,
6,example_gamble.png,"Once you select the gambling choice, the choice you made will remain on the screen.",,,,,,,,0,2,2,2,,,,,,,,,,,,,,,,,,,,,,,,,,,,,,,,,,,,,,,,,51.94123017106904,None,51.94123017106904,None,51.94123017106904,None,4,3.8349990000133403,51.94123017106904,None,,,,,,,,,,,,,,,,,,,,,,,,,,,,,,,,,,,,,,,,,,,,,,,,,,,,,,,,,,,,,,,,,,,,,,,,,,,,,,,,,,,,,,,,,,,,,,,,,,,,,,,,,,,,,24223,2019_Dec_23_1144,Mmi_3levels,3.1.5,59.97645217186193,
7,example_win.png,"The outcome you received will then be shown on the screen. In this example , you WON 10 points.",,,,,,,,0,3,3,3,,,,,,,,,,,,,,,,,,,,,,,,,,,,,,,,,,,,,,,,,55.8093767548562,None,55.8093767548562,None,55.8093767548562,None,4,2.8179394753533415,55.8093767548562,None,,,,,,,,,,,,,,,,,,,,,,,,,,,,,,,,,,,,,,,,,,,,,,,,,,,,,,,,,,,,,,,,,,,,,,,,,,,,,,,,,,,,,,,,,,,,,,,,,,,,,,,,,,,,,24223,2019_Dec_23_1144,Mmi_3levels,3.1.5,59.97645217186193,
8,example_start.png,"The GUARANTEED OPTION will be shown on the LEFT SIDE. You are 100% guaranteed to gain or lose this amount. In this example, you have a 100% chance of winning 1 point. Select this option using the LEFT (green) button on your keyboard.",,,,,,,,0,4,4,4,,,,,,,,,,,,,,,,,,,,,,,,,,,,,,,,,,,,,,,,,58.67713264055783,None,58.67713264055783,None,58.67713264055783,None,4,5.468958378362004,58.67713264055783,None,,,,,,,,,,,,,,,,,,,,,,,,,,,,,,,,,,,,,,,,,,,,,,,,,,,,,,,,,,,,,,,,,,,,,,,,,,,,,,,,,,,,,,,,,,,,,,,,,,,,,,,,,,,,,24223,2019_Dec_23_1144,Mmi_3levels,3.1.5,59.97645217186193,
9,example_certain.png,"Once you select the guaranteed choice, your selection will remain on the screen.",,,,,,,,0,5,5,5,,,,,,,,,,,,,,,,,,,,,,,,,,,,,,,,,,,,,,,,,64.17922964313766,None,64.17922964313766,None,64.17922964313766,None,4,3.9848786068032496,64.17922964313766,None,,,,,,,,,,,,,,,,,,,,,,,,,,,,,,,,,,,,,,,,,,,,,,,,,,,,,,,,,,,,,,,,,,,,,,,,,,,,,,,,,,,,,,,,,,,,,,,,,,,,,,,,,,,,,24223,2019_Dec_23_1144,Mmi_3levels,3.1.5,59.97645217186193,
10,black.png,"Please make your choices as fast as possible.
You will be given a break at the end of each block.
Let's play!",,,,,,,,0,6,6,6,,,,,,,,,,,,,,,,,,,,,,,,,,,,,,,,,,,,,,,,,68.19740366539918,None,68.19740366539918,None,68.19740366539918,None,4,6.919505947618745,68.19740366539918,None,,,,,,,,,,,,,,,,,,,,,,,,,,,,,,,,,,,,,,,,,,,,,,,,,,,,,,,,,,,,,,,,,,,,,,,,,,,,,,,,,,,,,,,,,,,,,,,,,,,,,,,,,,,,,24223,2019_Dec_23_1144,Mmi_3levels,3.1.5,59.97645217186193,
,,,,,,,,,,,,,,,,,,,,,,,,,,,,,,,,,,,,,,,,,,,,,,,,,,,,,,,,,,,,,,,,75.13332565373275,None,space,558.6784119289368,75.13332565373275,None,,,,,,,,,,,,,,,,,,,,,,,,,,,,,,,,,,,,,,,,,,,,,,,,,,,,,,,,,,,,,,,,,,,,,,,,,,,,,,,,,,,,,,,,,,,,,,,,,,,,,,,24223,2019_Dec_23_1144,Mmi_3levels,3.1.5,59.97645217186193,
,,,1,1,13.3,,,,,,,,,0,0,0,0,0,0,0,5,,,,,,,,,,,,,,,,,,,,,,,,,,,,,,,,,,,,,,,,,,,,,,,,,633.8281920212321,None,1.0,7.492929835920222,636.8460118233343,None,None,636.8460118233343,None,641.3310732998652,None,True,False,True,1.0,0.0,0.0,-0.03,13.3,13.270000000000001,6.635000000000001,gamble,lose,13.270000000000001,13.270000000000001,644.3655254505575,None,644.3655254505575,None,644.3655254505575,None,644.3655254505575,None,644.3655254505575,None,644.3655254505575,None,644.3655254505575,None,None,644.3655254505575,None,647.3666610669461,None,647.3666610669461,None,647.3666610669461,None,647.3666610669461,None,647.3666610669461,None,647.3666610669461,None,647.3666610669461,None,651.3681800218765,None,651.3681800218765,None,651.3681800218765,None,651.3681800218765,None,651.3681800218765,None,651.3681800218765,None,651.3681800218765,None,652.3518705352326,None,,,,,,,,,,,,,,,,,,,,,,,,,,,,,,,24223,2019_Dec_23_1144,Mmi_3levels,3.1.5,59.97645217186193,
,,,1,1,7.1,,,,,,,,,0,0,0,0,0,1,1,10,,,,,,,,,,,,,,,,,,,,,,,,,,,,,,,,,,,,,,,,,,,,,,,,,,,,,,,,,,,,True,True,False,1.0,0.0,0.0,0.03,7.1,7.069999999999999,3.5349999999999997,gamble,win,7.1,20.37,654.3693060388323,None,654.3693060388323,None,654.3693060388323,None,654.3693060388323,None,654.3693060388323,None,654.3693060388323,None,654.3693060388323,None,1,654.3693060388323,None,657.203786667902,None,657.203786667902,None,657.203786667902,None,657.203786667902,None,657.203786667902,None,657.203786667902,None,657.203786667902,None,661.188561280549,None,661.188561280549,None,661.188561280549,None,661.188561280549,None,661.188561280549,None,661.188561280549,None,661.188561280549,None,662.1889398193453,None,2.8013224859605543,,,,,,,,,,,,,,,,,,,,,,,,,,,,,,24223,2019_Dec_23_1144,Mmi_3levels,3.1.5,59.97645217186193,
,,,1,1,2.7,,,,,,,,,0,0,0,0,0,2,2,23,,,,,,,,,,,,,,,,,,,,,,,,,,,,,,,,,,,,,,,,,,,,,,,,,,,,,,,,,,,,True,True,False,1.0,0.0,0.0,0.03,2.7,2.6700000000000004,1.3350000000000002,gamble,win,2.7,23.07,664.2063718031277,None,664.2063718031277,None,664.2063718031277,None,664.2063718031277,None,664.2063718031277,None,664.2063718031277,None,664.2063718031277,None,None,664.2063718031277,None,667.2074984600767,None,667.2074984600767,None,667.2074984600767,None,667.2074984600767,None,667.2074984600767,None,667.2074984600767,None,667.2074984600767,None,671.1923495483934,None,671.1923495483934,None,671.1923495483934,None,671.1923495483934,None,671.1923495483934,None,671.1923495483934,None,671.1923495483934,None,680.6959274280234,None,,672.1927300071111,None,673.1931056660833,None,1.0,7.50276672502514,676.1942819202086,None,None,676.1942819202086,None,,,,,,,,,,,,,,,,,,,24223,2019_Dec_23_1144,Mmi_3levels,3.1.5,59.97645217186193,
,,,1,1,4.1,,,,,,,,,0,0,0,0,0,3,3,15,,,,,,,,,,,,,,,,,,,,,,,,,,,,,,,,,,,,,,,,,,,,,,,,,,,,,,,,,,,,True,True,True,1.0,0.0,0.0,0.03,4.1,4.069999999999999,2.0349999999999997,gamble,win,4.1,27.17,682.7134122088901,None,682.7134122088901,None,682.7134122088901,None,682.7134122088901,None,682.7134122088901,None,682.7134122088901,None,682.7134122088901,None,1,682.7134122088901,None,684.0305426095729,None,684.0305426095729,None,684.0305426095729,None,684.0305426095729,None,684.0305426095729,None,684.0305426095729,None,684.0305426095729,None,688.0153901781305,None,688.0153901781305,None,688.0153901781305,None,688.0153901781305,None,688.0153901781305,None,688.0153901781305,None,688.0153901781305,None,689.0157616773504,None,1.2840471333474852,,,,,,,,,,,,,,,,,,,,,,,,,,,,,,24223,2019_Dec_23_1144,Mmi_3levels,3.1.5,59.97645217186193,
,,,1,1,9.9,,,,,,,,,0,0,0,0,0,4,4,21,,,,,,,,,,,,,,,,,,,,,,,,,,,,,,,,,,,,,,,,,,,,,,,,,,,,,,,,,,,,True,True,True,1.0,0.0,0.0,0.03,9.9,9.870000000000001,4.9350000000000005,gamble,win,9.9,37.07,691.0331664626719,None,691.0331664626719,None,691.0331664626719,None,691.0331664626719,None,691.0331664626719,None,691.0331664626719,None,691.0331664626719,None,None,691.0331664626719,None,694.0343270376325,None,694.0343270376325,None,694.0343270376325,None,694.0343270376325,None,694.0343270376325,None,694.0343270376325,None,694.0343270376325,None,698.0191582870902,None,698.0191582870902,None,698.0191582870902,None,698.0191582870902,None,698.0191582870902,None,698.0191582870902,None,698.0191582870902,None,707.5394251521793,None,,699.0195326661342,None,700.0199304038542,None,1.0,7.5194125128909945,703.0210442615207,None,None,703.0210442615207,None,,,,,,,,,,,,,,,,,,,24223,2019_Dec_23_1144,Mmi_3levels,3.1.5,59.97645217186193,
,,,1,1,-1.1,,,,,,,,,0,0,0,0,0,5,5,25,,,,,,,,,,,,,,,,,,,,,,,,,,,,,,,,,,,,,,,,,,,,,,,,,,,,,,,,,,,,True,True,True,1.0,0.0,0.0,0.03,-1.1,-1.1300000000000001,-1.1150000000000002,certain,certain,-1.1150000000000002,35.955,709.5568603358115,None,709.5568603358115,None,709.5568603358115,None,709.5568603358115,None,709.5568603358115,None,709.5568603358115,None,709.5568603358115,None,3,709.5568603358115,None,712.3245607045828,None,712.3245607045828,None,712.3245607045828,None,712.3245607045828,None,712.3245607045828,None,712.3245607045828,None,712.3245607045828,None,716.326101098326,None,716.326101098326,None,716.326101098326,None,716.326101098326,None,716.326101098326,None,716.326101098326,None,716.326101098326,None,717.3097903316957,None,2.7346081419382244,,,,,,,,,,,,,,,,,,,,,,,,,,,,,,24223,2019_Dec_23_1144,Mmi_3levels,3.1.5,59.97645217186193,
,,,1,1,6.1,,,,,,,,,0,0,0,0,0,6,6,17,,,,,,,,,,,,,,,,,,,,,,,,,,,,,,,,,,,,,,,,,,,,,,,,,,,,,,,,,,,,True,True,False,1.0,0.0,0.0,0.03,6.1,6.069999999999999,3.0349999999999997,gamble,win,6.1,42.055,719.3272520738537,None,719.3272520738537,None,719.3272520738537,None,719.3272520738537,None,719.3272520738537,None,719.3272520738537,None,719.3272520738537,None,1,719.3272520738537,None,720.9445739838411,None,720.9445739838411,None,720.9445739838411,None,720.9445739838411,None,720.9445739838411,None,720.9445739838411,None,720.9445739838411,None,724.9293591558817,None,724.9293591558817,None,724.9293591558817,None,724.9293591558817,None,724.9293591558817,None,724.9293591558817,None,724.9293591558817,None,725.9297344948282,None,1.584183925704565,,,,,,,,,,,,,,,,,,,,,,,,,,,,,,24223,2019_Dec_23_1144,Mmi_3levels,3.1.5,59.97645217186193,
,,,1,1,7.7,,,,,,,,,0,0,0,0,0,7,7,11,,,,,,,,,,,,,,,,,,,,,,,,,,,,,,,,,,,,,,,,,,,,,,,,,,,,,,,,,,,,True,False,False,1.0,0.0,0.0,-0.03,7.7,7.67,3.835,gamble,lose,7.67,49.725,727.947100882302,None,727.947100882302,None,727.947100882302,None,727.947100882302,None,727.947100882302,None,727.947100882302,None,727.947100882302,None,1,727.947100882302,None,729.3643715951475,None,729.3643715951475,None,729.3643715951475,None,729.3643715951475,None,729.3643715951475,None,729.3643715951475,None,729.3643715951475,None,733.3492070043576,None,733.3492070043576,None,733.3492070043576,None,733.3492070043576,None,733.3492070043576,None,733.3492070043576,None,733.3492070043576,None,742.8528076027287,None,1.3839973761932924,734.3495887430036,None,735.3499692017213,None,1.0,7.5027539257425815,738.3510875390493,None,None,738.3510875390493,None,,,,,,,,,,,,,,,,,,,24223,2019_Dec_23_1144,Mmi_3levels,3.1.5,59.97645217186193,
,,,1,1,-0.5,,,,,,,,,0,0,0,0,0,8,8,0,,,,,,,,,,,,,,,,,,,,,,,,,,,,,,,,,,,,,,,,,,,,,,,,,,,,,,,,,,,,True,True,False,1.0,0.0,0.0,0.03,-0.5,-0.53,-0.515,gamble,win,-0.5,49.225,744.8702411864651,None,744.8702411864651,None,744.8702411864651,None,744.8702411864651,None,744.8702411864651,None,744.8702411864651,None,744.8702411864651,None,1,744.8702411864651,None,747.6046419800259,None,747.6046419800259,None,747.6046419800259,None,747.6046419800259,None,747.6046419800259,None,747.6046419800259,None,747.6046419800259,None,751.60616701463,None,751.60616701463,None,751.60616701463,None,751.60616701463,None,751.60616701463,None,751.60616701463,None,751.60616701463,None,752.5898248897865,None,2.7013076067669317,,,,,,,,,,,,,,,,,,,,,,,,,,,,,,24223,2019_Dec_23_1144,Mmi_3levels,3.1.5,59.97645217186193,
,,,1,1,-0.7,,,,,,,,,0,0,0,0,0,9,9,16,,,,,,,,,,,,,,,,,,,,,,,,,,,,,,,,,,,,,,,,,,,,,,,,,,,,,,,,,,,,True,False,False,1.0,0.0,0.0,-0.03,-0.7,-0.73,-0.715,certain,certain,-0.715,48.51,754.6072549537057,None,754.6072549537057,None,754.6072549537057,None,754.6072549537057,None,754.6072549537057,None,754.6072549537057,None,754.6072549537057,None,3,754.6072549537057,None,756.858134984388,None,756.858134984388,None,756.858134984388,None,756.858134984388,None,756.858134984388,None,756.858134984388,None,756.858134984388,None,760.8596209812094,None,760.8596209812094,None,760.8596209812094,None,760.8596209812094,None,760.8596209812094,None,760.8596209812094,None,760.8596209812094,None,770.3465108353412,None,2.2177465262357146,761.8432724567247,None,762.8436545153381,None,1.0,7.50277408468537,765.8448294895352,None,None,765.8448294895352,None,,,,,,,,,,,,,,,,,,,24223,2019_Dec_23_1144,Mmi_3levels,3.1.5,59.97645217186193,
,,,1,1,1.5,,,,,,,,,0,0,0,0,0,10,10,4,,,,,,,,,,,,,,,,,,,,,,,,,,,,,,,,,,,,,,,,,,,,,,,,,,,,,,,,,,,,True,False,False,1.0,0.0,0.0,-0.03,1.5,1.47,1.4849999999999999,gamble,lose,1.47,49.98,772.3639709776035,None,772.3639709776035,None,772.3639709776035,None,772.3639709776035,None,772.3639709776035,None,772.3639709776035,None,772.3639709776035,None,None,772.3639709776035,None,775.3484448070521,None,775.3484448070521,None,775.3484448070521,None,775.3484448070521,None,775.3484448070521,None,775.3484448070521,None,775.3484448070521,None,779.349973041506,None,779.349973041506,None,779.349973041506,None,779.349973041506,None,779.349973041506,None,779.349973041506,None,779.349973041506,None,780.3503288615611,None,,,,,,,,,,,,,,,,,,,,,,,,,,,,,,,24223,2019_Dec_23_1144,Mmi_3levels,3.1.5,59.97645217186193,
,,,1,1,7.5,,,,,,,,,0,0,0,0,0,11,11,1,,,,,,,,,,,,,,,,,,,,,,,,,,,,,,,,,,,,,,,,,,,,,,,,,,,,,,,,,,,,True,True,True,1.0,0.0,0.0,0.03,7.5,7.47,3.735,gamble,win,7.5,57.48,782.3677634052001,None,782.3677634052001,None,782.3677634052001,None,782.3677634052001,None,782.3677634052001,None,782.3677634052001,None,782.3677634052001,None,1,782.3677634052001,None,783.8682796963258,None,783.8682796963258,None,783.8682796963258,None,783.8682796963258,None,783.8682796963258,None,783.8682796963258,None,783.8682796963258,None,787.8531467837747,None,787.8531467837747,None,787.8531467837747,None,787.8531467837747,None,787.8531467837747,None,787.8531467837747,None,787.8531467837747,None,797.3567982592504,None,1.4674266240908764,788.8535253225709,None,789.8538776228088,None,1.0,7.502804162970278,792.8550548368949,None,None,792.8550548368949,None,,,,,,,,,,,,,,,,,,,24223,2019_Dec_23_1144,Mmi_3levels,3.1.5,59.97645217186193,
,,,1,1,0.9,,,,,,,,,0,0,0,0,0,12,12,6,,,,,,,,,,,,,,,,,,,,,,,,,,,,,,,,,,,,,,,,,,,,,,,,,,,,,,,,,,,,True,False,True,1.0,0.0,0.0,-0.03,0.9,0.87,0.885,certain,certain,0.885,58.364999999999995,799.3742052844609,None,799.3742052844609,None,799.3742052844609,None,799.3742052844609,None,799.3742052844609,None,799.3742052844609,None,799.3742052844609,None,3,799.3742052844609,None,801.8751497116173,None,801.8751497116173,None,801.8751497116173,None,801.8751497116173,None,801.8751497116173,None,801.8751497116173,None,801.8751497116173,None,805.8599828809383,None,805.8599828809383,None,805.8599828809383,None,805.8599828809383,None,805.8599828809383,None,805.8599828809383,None,805.8599828809383,None,806.8603655794868,None,2.4678563600755297,,,,,,,,,,,,,,,,,,,,,,,,,,,,,,24223,2019_Dec_23_1144,Mmi_3levels,3.1.5,59.97645217186193,
,,,1,1,0.7,,,,,,,,,0,0,0,0,0,13,13,12,,,,,,,,,,,,,,,,,,,,,,,,,,,,,,,,,,,,,,,,,,,,,,,,,,,,,,,,,,,,True,False,False,1.0,0.0,0.0,-0.03,0.7,0.6699999999999999,0.6849999999999999,certain,certain,0.6849999999999999,59.05,808.8777988432557,None,808.8777988432557,None,808.8777988432557,None,808.8777988432557,None,808.8777988432557,None,808.8777988432557,None,808.8777988432557,None,3,808.8777988432557,None,811.5288068667869,None,811.5288068667869,None,811.5288068667869,None,811.5288068667869,None,811.5288068667869,None,811.5288068667869,None,811.5288068667869,None,815.5136483556707,None,815.5136483556707,None,815.5136483556707,None,815.5136483556707,None,815.5136483556707,None,815.5136483556707,None,815.5136483556707,None,816.5140185749624,None,2.617875799012836,,,,,,,,,,,,,,,,,,,,,,,,,,,,,,24223,2019_Dec_23_1144,Mmi_3levels,3.1.5,59.97645217186193,
,,,1,1,0.1,,,,,,,,,0,0,0,0,0,14,14,13,,,,,,,,,,,,,,,,,,,,,,,,,,,,,,,,,,,,,,,,,,,,,,,,,,,,,,,,,,,,True,True,False,1.0,0.0,0.0,0.03,0.1,0.07,0.085,gamble,win,0.1,59.15,818.5314617581316,None,818.5314617581316,None,818.5314617581316,None,818.5314617581316,None,818.5314617581316,None,818.5314617581316,None,818.5314617581316,None,1,818.5314617581316,None,821.0657428783597,None,821.0657428783597,None,821.0657428783597,None,821.0657428783597,None,821.0657428783597,None,821.0657428783597,None,821.0657428783597,None,825.0505779676023,None,825.0505779676023,None,825.0505779676023,None,825.0505779676023,None,825.0505779676023,None,825.0505779676023,None,825.0505779676023,None,834.5541843256797,None,2.5011872934992425,826.0509667458246,None,827.051388482214,None,1.0,7.50276480516186,830.052508419496,None,None,830.052508419496,None,,,,,,,,,,,,,,,,,,,24223,2019_Dec_23_1144,Mmi_3levels,3.1.5,59.97645217186193,
,,,1,1,9.7,,,,,,,,,0,0,0,0,0,15,15,26,,,,,,,,,,,,,,,,,,,,,,,,,,,,,,,,,,,,,,,,,,,,,,,,,,,,,,,,,,,,True,True,True,1.0,0.0,0.0,0.03,9.7,9.67,4.835,gamble,win,9.7,68.85,836.5716147095663,None,836.5716147095663,None,836.5716147095663,None,836.5716147095663,None,836.5716147095663,None,836.5716147095663,None,836.5716147095663,None,1,836.5716147095663,None,838.1722233154578,None,838.1722233154578,None,838.1722233154578,None,838.1722233154578,None,838.1722233154578,None,838.1722233154578,None,838.1722233154578,None,842.1570635244134,None,842.1570635244134,None,842.1570635244134,None,842.1570635244134,None,842.1570635244134,None,842.1570635244134,None,842.1570635244134,None,843.1574366235291,None,1.5675109393778257,,,,,,,,,,,,,,,,,,,,,,,,,,,,,,24223,2019_Dec_23_1144,Mmi_3levels,3.1.5,59.97645217186193,
,,,1,1,3.5,,,,,,,,,0,0,0,0,0,16,16,20,,,,,,,,,,,,,,,,,,,,,,,,,,,,,,,,,,,,,,,,,,,,,,,,,,,,,,,,,,,,True,True,True,1.0,0.0,0.0,0.03,3.5,3.47,1.735,gamble,win,3.5,72.35,845.1749124448979,None,845.1749124448979,None,845.1749124448979,None,845.1749124448979,None,845.1749124448979,None,845.1749124448979,None,845.1749124448979,None,1,845.1749124448979,None,847.3423561880481,None,847.3423561880481,None,847.3423561880481,None,847.3423561880481,None,847.3423561880481,None,847.3423561880481,None,847.3423561880481,None,851.3272363947472,None,851.3272363947472,None,851.3272363947472,None,851.3272363947472,None,851.3272363947472,None,851.3272363947472,None,851.3272363947472,None,860.8307960354141,None,2.134359515912365,852.3275877350825,None,853.3279509147396,None,1.0,7.502613133634441,856.3290769316955,None,None,856.3290769316955,None,,,,,,,,,,,,,,,,,,,24223,2019_Dec_23_1144,Mmi_3levels,3.1.5,59.97645217186193,
,,,1,1,9.1,,,,,,,,,0,0,0,0,0,17,17,8,,,,,,,,,,,,,,,,,,,,,,,,,,,,,,,,,,,,,,,,,,,,,,,,,,,,,,,,,,,,True,True,True,1.0,0.0,0.0,0.03,9.1,9.07,4.535,gamble,win,9.1,81.44999999999999,862.8481765020988,None,862.8481765020988,None,862.8481765020988,None,862.8481765020988,None,862.8481765020988,None,862.8481765020988,None,862.8481765020988,None,1,862.8481765020988,None,864.1153759389417,None,864.1153759389417,None,864.1153759389417,None,864.1153759389417,None,864.1153759389417,None,864.1153759389417,None,864.1153759389417,None,868.1002177477931,None,868.1002177477931,None,868.1002177477931,None,868.1002177477931,None,868.1002177477931,None,868.1002177477931,None,868.1002177477931,None,869.1005934067653,None,1.2341088099055924,,,,,,,,,,,,,,,,,,,,,,,,,,,,,,24223,2019_Dec_23_1144,Mmi_3levels,3.1.5,59.97645217186193,
,,,1,1,-0.1,,,,,,,,,0,0,0,0,0,18,18,18,,,,,,,,,,,,,,,,,,,,,,,,,,,,,,,,,,,,,,,,,,,,,,,,,,,,,,,,,,,,True,True,True,1.0,0.0,0.0,0.03,-0.1,-0.13,-0.115,certain,certain,-0.115,81.335,871.1179809130263,None,871.1179809130263,None,871.1179809130263,None,871.1179809130263,None,871.1179809130263,None,871.1179809130263,None,871.1179809130263,None,3,871.1179809130263,None,873.8856864015106,None,873.8856864015106,None,873.8856864015106,None,873.8856864015106,None,873.8856864015106,None,873.8856864015106,None,873.8856864015106,None,877.8872591134859,None,877.8872591134859,None,877.8872591134859,None,877.8872591134859,None,877.8872591134859,None,877.8872591134859,None,877.8872591134859,None,878.8709534665686,None,2.734605582081713,,,,,,,,,,,,,,,,,,,,,,,,,,,,,,24223,2019_Dec_23_1144,Mmi_3levels,3.1.5,59.97645217186193,
,,,1,1,13.7,,,,,,,,,0,0,0,0,0,19,19,9,,,,,,,,,,,,,,,,,,,,,,,,,,,,,,,,,,,,,,,,,,,,,,,,,,,,,,,,,,,,True,False,False,1.0,0.0,0.0,-0.03,13.7,13.67,6.835,gamble,lose,13.67,95.005,880.8883918500505,None,880.8883918500505,None,880.8883918500505,None,880.8883918500505,None,880.8883918500505,None,880.8883918500505,None,880.8883918500505,None,1,880.8883918500505,None,882.3722869919147,None,882.3722869919147,None,882.3722869919147,None,882.3722869919147,None,882.3722869919147,None,882.3722869919147,None,882.3722869919147,None,886.3737960273866,None,886.3737960273866,None,886.3737960273866,None,886.3737960273866,None,886.3737960273866,None,886.3737960273866,None,886.3737960273866,None,895.8607629972394,None,1.450804834952578,887.3575006199535,None,888.357880438678,None,1.0,7.502740806492511,891.35900037596,None,None,891.35900037596,None,,,,,,,,,,,,,,,,,,,24223,2019_Dec_23_1144,Mmi_3levels,3.1.5,59.97645217186193,
,,,1,1,5.1,,,,,,,,,0,0,0,0,0,20,20,7,,,,,,,,,,,,,,,,,,,,,,,,,,,,,,,,,,,,,,,,,,,,,,,,,,,,,,,,,,,,True,False,True,1.0,0.0,0.0,-0.03,5.1,5.069999999999999,2.5349999999999997,gamble,lose,5.069999999999999,100.07499999999999,897.8781517834868,None,897.8781517834868,None,897.8781517834868,None,897.8781517834868,None,897.8781517834868,None,897.8781517834868,None,897.8781517834868,None,1,897.8781517834868,None,899.2786813538405,None,899.2786813538405,None,899.2786813538405,None,899.2786813538405,None,899.2786813538405,None,899.2786813538405,None,899.2786813538405,None,903.2635222027311,None,903.2635222027311,None,903.2635222027311,None,903.2635222027311,None,903.2635222027311,None,903.2635222027311,None,903.2635222027311,None,904.2639036213513,None,1.3674437431618571,,,,,,,,,,,,,,,,,,,,,,,,,,,,,,24223,2019_Dec_23_1144,Mmi_3levels,3.1.5,59.97645217186193,
,,,1,1,1.7,,,,,,,,,0,0,0,0,0,21,21,22,,,,,,,,,,,,,,,,,,,,,,,,,,,,,,,,,,,,,,,,,,,,,,,,,,,,,,,,,,,,True,True,True,1.0,0.0,0.0,0.03,1.7,1.67,1.685,gamble,win,1.7,101.77499999999999,906.281331125414,None,906.281331125414,None,906.281331125414,None,906.281331125414,None,906.281331125414,None,906.281331125414,None,906.281331125414,None,1,906.281331125414,None,909.0323697072454,None,909.0323697072454,None,909.0323697072454,None,909.0323697072454,None,909.0323697072454,None,909.0323697072454,None,909.0323697072454,None,913.0172153559397,None,913.0172153559397,None,913.0172153559397,None,913.0172153559397,None,913.0172153559397,None,913.0172153559397,None,913.0172153559397,None,922.5208105145721,None,2.7179549945285544,914.0175775756361,None,915.0179791531409,None,1.0,7.502719047712162,918.0190933307749,None,None,918.0190933307749,None,,,,,,,,,,,,,,,,,,,24223,2019_Dec_23_1144,Mmi_3levels,3.1.5,59.97645217186193,
,,,1,1,1.9,,,,,,,,,0,0,0,0,0,22,22,2,,,,,,,,,,,,,,,,,,,,,,,,,,,,,,,,,,,,,,,,,,,,,,,,,,,,,,,,,,,,True,True,True,1.0,0.0,0.0,0.03,1.9,1.8699999999999999,1.8849999999999998,certain,certain,1.8849999999999998,103.66,924.538244418276,None,924.538244418276,None,924.538244418276,None,924.538244418276,None,924.538244418276,None,924.538244418276,None,924.538244418276,None,3,924.538244418276,None,926.9891855655587,None,926.9891855655587,None,926.9891855655587,None,926.9891855655587,None,926.9891855655587,None,926.9891855655587,None,926.9891855655587,None,930.9906302847085,None,930.9906302847085,None,930.9906302847085,None,930.9906302847085,None,930.9906302847085,None,930.9906302847085,None,930.9906302847085,None,931.9910376218613,None,2.434503987780772,,,,,,,,,,,,,,,,,,,,,,,,,,,,,,24223,2019_Dec_23_1144,Mmi_3levels,3.1.5,59.97645217186193,
,,,1,1,3.9,,,,,,,,,0,0,0,0,0,23,23,24,,,,,,,,,,,,,,,,,,,,,,,,,,,,,,,,,,,,,,,,,,,,,,,,,,,,,,,,,,,,True,False,True,1.0,0.0,0.0,-0.03,3.9,3.87,1.935,gamble,lose,3.87,107.53,934.0085310422583,None,934.0085310422583,None,934.0085310422583,None,934.0085310422583,None,934.0085310422583,None,934.0085310422583,None,934.0085310422583,None,1,934.0085310422583,None,936.0092881198507,None,936.0092881198507,None,936.0092881198507,None,936.0092881198507,None,936.0092881198507,None,936.0092881198507,None,936.0092881198507,None,939.9940918508219,None,939.9940918508219,None,939.9940918508219,None,939.9940918508219,None,939.9940918508219,None,939.9940918508219,None,939.9940918508219,None,949.4976818897994,None,1.9676251729833893,940.9944700696506,None,941.994799331238,None,1.0,7.502787843928672,944.9959295079461,None,None,944.9959295079461,None,,,,,,,,,,,,,,,,,,,24223,2019_Dec_23_1144,Mmi_3levels,3.1.5,59.97645217186193,
,,,1,1,4.9,,,,,,,,,0,0,0,0,0,24,24,14,,,,,,,,,,,,,,,,,,,,,,,,,,,,,,,,,,,,,,,,,,,,,,,,,,,,,,,,,,,,True,True,True,1.0,0.0,0.0,0.03,4.9,4.87,2.435,gamble,win,4.9,112.43,951.5151157935034,None,951.5151157935034,None,951.5151157935034,None,951.5151157935034,None,951.5151157935034,None,951.5151157935034,None,951.5151157935034,None,1,951.5151157935034,None,952.8822958713863,None,952.8822958713863,None,952.8822958713863,None,952.8822958713863,None,952.8822958713863,None,952.8822958713863,None,952.8822958713863,None,956.8671440798789,None,956.8671440798789,None,956.8671440798789,None,956.8671440798789,None,956.8671440798789,None,956.8671440798789,None,956.8671440798789,None,957.867503739777,None,1.3340920108603314,,,,,,,,,,,,,,,,,,,,,,,,,,,,,,24223,2019_Dec_23_1144,Mmi_3levels,3.1.5,59.97645217186193,
,,,1,1,8.7,,,,,,,,,0,0,0,0,0,25,25,19,,,,,,,,,,,,,,,,,,,,,,,,,,,,,,,,,,,,,,,,,,,,,,,,,,,,,,,,,,,,True,True,True,1.0,0.0,0.0,0.03,8.7,8.67,4.335,gamble,win,8.7,121.13000000000001,959.8850038797827,None,959.8850038797827,None,959.8850038797827,None,959.8850038797827,None,959.8850038797827,None,959.8850038797827,None,959.8850038797827,None,1,959.8850038797827,None,961.0520678041503,None,961.0520678041503,None,961.0520678041503,None,961.0520678041503,None,961.0520678041503,None,961.0520678041503,None,961.0520678041503,None,965.0369416112662,None,965.0369416112662,None,965.0369416112662,None,965.0369416112662,None,965.0369416112662,None,965.0369416112662,None,965.0369416112662,None,966.03727791243,None,1.133987056731712,,,,,,,,,,,,,,,,,,,,,,,,,,,,,,24223,2019_Dec_23_1144,Mmi_3levels,3.1.5,59.97645217186193,
,,,1,1,12.3,,,,,,,,,0,0,0,0,0,26,26,3,,,,,,,,,,,,,,,,,,,,,,,,,,,,,,,,,,,,,,,,,,,,,,,,,,,,,,,,,,,,True,True,False,1.0,0.0,0.0,0.03,12.3,12.270000000000001,6.135000000000001,gamble,win,12.3,133.43,968.0547134160297,None,968.0547134160297,None,968.0547134160297,None,968.0547134160297,None,968.0547134160297,None,968.0547134160297,None,968.0547134160297,None,1,968.0547134160297,None,969.8220493252156,None,969.8220493252156,None,969.8220493252156,None,969.8220493252156,None,969.8220493252156,None,969.8220493252156,None,969.8220493252156,None,973.8068799346802,None,973.8068799346802,None,973.8068799346802,None,973.8068799346802,None,973.8068799346802,None,973.8068799346802,None,973.8068799346802,None,983.3104811730445,None,1.734235362848267,974.8072635931894,None,975.8076462917961,None,1.0,7.502714567992371,978.8087390306173,None,None,978.8087390306173,None,,,,,,,,,,,,,,,,,,,24223,2019_Dec_23_1144,Mmi_3levels,3.1.5,59.97645217186193,
,,,2,0,7.1,,,,,,,,,0,1,1,1,0,0,0,3,,,,,,,,,,,,,,,,,,,,,,,,,,,,,,,,,,,,,,,,,,,,,,,,,994.8814530386007,None,1.0,7.500614205608144,997.8993195580551,None,None,997.8993195580551,None,1002.3843957537902,None,False,True,True,1.0,1.0,1.0,-15.0,7.1,-7.9,-0.40000000000000036,gamble,lose,-7.9,125.53,1005.4188565440127,None,1005.4188565440127,None,1005.4188565440127,None,1005.4188565440127,None,1005.4188565440127,None,1005.4188565440127,None,1005.4188565440127,None,1,1005.4188565440127,None,1008.253302934987,None,1008.253302934987,None,1008.253302934987,None,1008.253302934987,None,1008.253302934987,None,1008.253302934987,None,1008.253302934987,None,1012.2380967465579,None,1012.2380967465579,None,1012.2380967465579,None,1012.2380967465579,None,1012.2380967465579,None,1012.2380967465579,None,1012.2380967465579,None,1013.2384861647733,None,2.8013055269257165,,,,,,,,,,,,985.3112801683019,None,4,9.553777948429342,985.3112801683019,None,,,,,,,,,,,,,24223,2019_Dec_23_1144,Mmi_3levels,3.1.5,59.97645217186193,
,,,2,0,0.7,,,,,,,,,0,1,1,1,0,1,1,25,,,,,,,,,,,,,,,,,,,,,,,,,,,,,,,,,,,,,,,,,,,,,,,,,,,,,,,,,,,,False,True,True,1.0,1.0,2.0,-16.0,0.7,-15.3,-7.300000000000001,gamble,lose,-15.3,110.23,1015.2559146287385,None,1015.2559146287385,None,1015.2559146287385,None,1015.2559146287385,None,1015.2559146287385,None,1015.2559146287385,None,1015.2559146287385,None,None,1015.2559146287385,None,1018.2570457654074,None,1018.2570457654074,None,1018.2570457654074,None,1018.2570457654074,None,1018.2570457654074,None,1018.2570457654074,None,1018.2570457654074,None,1022.2585564008332,None,1022.2585564008332,None,1022.2585564008332,None,1022.2585564008332,None,1022.2585564008332,None,1022.2585564008332,None,1022.2585564008332,None,1031.745484332845,None,,1023.2422673929832,None,1024.2426862495486,None,0.94,7.502702728612348,1027.2437732286635,None,None,1027.2437732286635,None,,,,,,,,,,,,,,,,,,,24223,2019_Dec_23_1144,Mmi_3levels,3.1.5,59.97645217186193,
,,,2,0,0.5,,,,,,,,,0,1,1,1,0,2,2,6,,,,,,,,,,,,,,,,,,,,,,,,,,,,,,,,,,,,,,,,,,,,,,,,,,,,,,,,,,,,False,True,False,0.94,0.94,2.94,-16.1,0.5,-15.600000000000001,-7.550000000000001,certain,certain,-7.550000000000001,102.68,1033.76291599666,None,1033.76291599666,None,1033.76291599666,None,1033.76291599666,None,1033.76291599666,None,1033.76291599666,None,1033.76291599666,None,3,1033.76291599666,None,1036.4305883670459,None,1036.4305883670459,None,1036.4305883670459,None,1036.4305883670459,None,1036.4305883670459,None,1036.4305883670459,None,1036.4305883670459,None,1040.432108921872,None,1040.432108921872,None,1040.432108921872,None,1040.432108921872,None,1040.432108921872,None,1040.432108921872,None,1040.432108921872,None,1041.41581127455,None,2.6346153415506706,,,,,,,,,,,,,,,,,,,,,,,,,,,,,,24223,2019_Dec_23_1144,Mmi_3levels,3.1.5,59.97645217186193,
,,,2,0,7.5,,,,,,,,,0,1,1,1,0,3,3,16,,,,,,,,,,,,,,,,,,,,,,,,,,,,,,,,,,,,,,,,,,,,,,,,,,,,,,,,,,,,False,False,True,0.94,0.94,3.88,3.6133333333333333,1.875,-1.7383333333333333,0.06833333333333336,gamble,win,1.875,104.555,1043.4332454982214,None,1043.4332454982214,None,1043.4332454982214,None,1043.4332454982214,None,1043.4332454982214,None,1043.4332454982214,None,1043.4332454982214,None,1,1043.4332454982214,None,1045.7174449430313,None,1045.7174449430313,None,1045.7174449430313,None,1045.7174449430313,None,1045.7174449430313,None,1045.7174449430313,None,1045.7174449430313,None,1049.7022873918759,None,1049.7022873918759,None,1049.7022873918759,None,1049.7022873918759,None,1049.7022873918759,None,1049.7022873918759,None,1049.7022873918759,None,1059.205874870997,None,2.251109137898311,1050.7026934491587,None,1051.7030495891813,None,0.97,7.502816642285325,1054.7041640867828,None,None,1054.7041640867828,None,,,,,,,,,,,,,,,,,,,24223,2019_Dec_23_1144,Mmi_3levels,3.1.5,59.97645217186193,
,,,2,0,12.3,,,,,,,,,0,1,1,1,0,4,4,21,,,,,,,,,,,,,,,,,,,,,,,,,,,,,,,,,,,,,,,,,,,,,,,,,,,,,,,,,,,,False,False,False,0.97,0.97,4.85,3.799166666666667,3.075,-0.7241666666666666,1.1754166666666668,gamble,win,3.075,107.63000000000001,1061.2233068547794,None,1061.2233068547794,None,1061.2233068547794,None,1061.2233068547794,None,1061.2233068547794,None,1061.2233068547794,None,1061.2233068547794,None,1,1061.2233068547794,None,1062.557147679734,None,1062.557147679734,None,1062.557147679734,None,1062.557147679734,None,1062.557147679734,None,1062.557147679734,None,1062.557147679734,None,1066.541992688377,None,1066.541992688377,None,1066.541992688377,None,1066.541992688377,None,1066.541992688377,None,1066.541992688377,None,1066.541992688377,None,1067.542363227636,None,1.3007316390285268,,,,,,,,,,,,,,,,,,,,,,,,,,,,,,24223,2019_Dec_23_1144,Mmi_3levels,3.1.5,59.97645217186193,
,,,2,0,5.9,,,,,,,,,0,1,1,1,0,5,5,13,,,,,,,,,,,,,,,,,,,,,,,,,,,,,,,,,,,,,,,,,,,,,,,,,,,,,,,,,,,,False,True,False,0.97,0.97,5.819999999999999,-19.4,5.9,-13.499999999999998,-3.799999999999999,gamble,lose,-13.499999999999998,94.13000000000001,1069.5598416088615,None,1069.5598416088615,None,1069.5598416088615,None,1069.5598416088615,None,1069.5598416088615,None,1069.5598416088615,None,1069.5598416088615,None,None,1069.5598416088615,None,1072.560931147833,None,1072.560931147833,None,1072.560931147833,None,1072.560931147833,None,1072.560931147833,None,1072.560931147833,None,1072.560931147833,None,1076.5625070595997,None,1076.5625070595997,None,1076.5625070595997,None,1076.5625070595997,None,1076.5625070595997,None,1076.5625070595997,None,1076.5625070595997,None,1077.5461607749457,None,,,,,,,,,,,,,,,,,,,,,,,,,,,,,,,24223,2019_Dec_23_1144,Mmi_3levels,3.1.5,59.97645217186193,
,,,2,0,5.5,,,,,,,,,0,1,1,1,0,6,6,9,,,,,,,,,,,,,,,,,,,,,,,,,,,,,,,,,,,,,,,,,,,,,,,,,,,,,,,,,,,,False,False,True,0.97,0.97,6.789999999999999,3.9608333333333334,1.375,-2.5858333333333334,-0.6054166666666667,gamble,win,1.375,95.50500000000001,1079.5635837992886,None,1079.5635837992886,None,1079.5635837992886,None,1079.5635837992886,None,1079.5635837992886,None,1079.5635837992886,None,1079.5635837992886,None,1,1079.5635837992886,None,1082.2646427800064,None,1082.2646427800064,None,1082.2646427800064,None,1082.2646427800064,None,1082.2646427800064,None,1082.2646427800064,None,1082.2646427800064,None,1086.2494484308409,None,1086.2494484308409,None,1086.2494484308409,None,1086.2494484308409,None,1086.2494484308409,None,1086.2494484308409,None,1086.2494484308409,None,1095.7530416696682,None,2.66792419628473,1087.2498324093758,None,1088.2501696705003,None,0.98,7.502768644946627,1091.25132800563,None,None,1091.25132800563,None,,,,,,,,,,,,,,,,,,,24223,2019_Dec_23_1144,Mmi_3levels,3.1.5,59.97645217186193,
,,,2,0,13.1,,,,,,,,,0,1,1,1,0,7,7,10,,,,,,,,,,,,,,,,,,,,,,,,,,,,,,,,,,,,,,,,,,,,,,,,,,,,,,,,,,,,False,False,False,0.98,0.98,7.77,4.0775,3.275,-0.8024999999999998,1.23625,gamble,win,3.275,98.78000000000002,1097.7704518946703,None,1097.7704518946703,None,1097.7704518946703,None,1097.7704518946703,None,1097.7704518946703,None,1097.7704518946703,None,1097.7704518946703,None,1,1097.7704518946703,None,1099.1043151183403,None,1099.1043151183403,None,1099.1043151183403,None,1099.1043151183403,None,1099.1043151183403,None,1099.1043151183403,None,1099.1043151183403,None,1103.0891198092722,None,1103.0891198092722,None,1103.0891198092722,None,1103.0891198092722,None,1103.0891198092722,None,1103.0891198092722,None,1103.0891198092722,None,1104.0895341860596,None,1.300773556693457,,,,,,,,,,,,,,,,,,,,,,,,,,,,,,24223,2019_Dec_23_1144,Mmi_3levels,3.1.5,59.97645217186193,
,,,2,0,-0.9,,,,,,,,,0,1,1,1,0,8,8,23,,,,,,,,,,,,,,,,,,,,,,,,,,,,,,,,,,,,,,,,,,,,,,,,,,,,,,,,,,,,False,True,True,0.98,0.98,8.75,-22.47,-0.9,-23.369999999999997,-12.134999999999998,gamble,lose,-23.369999999999997,75.41000000000003,1106.1069648899138,None,1106.1069648899138,None,1106.1069648899138,None,1106.1069648899138,None,1106.1069648899138,None,1106.1069648899138,None,1106.1069648899138,None,None,1106.1069648899138,None,1109.1081027462496,None,1109.1081027462496,None,1109.1081027462496,None,1109.1081027462496,None,1109.1081027462496,None,1109.1081027462496,None,1109.1081027462496,None,1113.109599622374,None,1113.109599622374,None,1113.109599622374,None,1113.109599622374,None,1113.109599622374,None,1113.109599622374,None,1113.109599622374,None,1122.5965435535181,None,,1114.0933221339365,None,1115.0936952330521,None,0.93,7.502784004085697,1118.0948170901975,None,None,1118.0948170901975,None,,,,,,,,,,,,,,,,,,,24223,2019_Dec_23_1144,Mmi_3levels,3.1.5,59.97645217186193,
,,,2,0,12.7,,,,,,,,,0,1,1,1,0,9,9,15,,,,,,,,,,,,,,,,,,,,,,,,,,,,,,,,,,,,,,,,,,,,,,,,,,,,,,,,,,,,False,True,False,0.93,0.93,9.68,-22.700000000000003,12.7,-10.000000000000004,1.3499999999999979,certain,certain,1.3499999999999979,76.76000000000002,1124.6139729775023,None,1124.6139729775023,None,1124.6139729775023,None,1124.6139729775023,None,1124.6139729775023,None,1124.6139729775023,None,1124.6139729775023,None,3,1124.6139729775023,None,1126.2479198764777,None,1126.2479198764777,None,1126.2479198764777,None,1126.2479198764777,None,1126.2479198764777,None,1126.2479198764777,None,1126.2479198764777,None,1130.2494010734954,None,1130.2494010734954,None,1130.2494010734954,None,1130.2494010734954,None,1130.2494010734954,None,1130.2494010734954,None,1130.2494010734954,None,1131.233086147171,None,1.6006646028254181,,,,,,,,,,,,,,,,,,,,,,,,,,,,,,24223,2019_Dec_23_1144,Mmi_3levels,3.1.5,59.97645217186193,
,,,2,0,7.7,,,,,,,,,0,1,1,1,0,10,10,22,,,,,,,,,,,,,,,,,,,,,,,,,,,,,,,,,,,,,,,,,,,,,,,,,,,,,,,,,,,,False,True,True,0.93,0.93,10.61,-23.630000000000003,7.7,-15.930000000000003,-4.115000000000002,gamble,lose,-15.930000000000003,60.83000000000001,1133.2505709279794,None,1133.2505709279794,None,1133.2505709279794,None,1133.2505709279794,None,1133.2505709279794,None,1133.2505709279794,None,1133.2505709279794,None,1,1133.2505709279794,None,1135.1846456598141,None,1135.1846456598141,None,1135.1846456598141,None,1135.1846456598141,None,1135.1846456598141,None,1135.1846456598141,None,1135.1846456598141,None,1139.1862055724487,None,1139.1862055724487,None,1139.1862055724487,None,1139.1862055724487,None,1139.1862055724487,None,1139.1862055724487,None,1139.1862055724487,None,1140.1698493683944,None,1.9007844360894524,,,,,,,,,,,,,,,,,,,,,,,,,,,,,,24223,2019_Dec_23_1144,Mmi_3levels,3.1.5,59.97645217186193,
,,,2,0,7.3,,,,,,,,,0,1,1,1,0,11,11,11,,,,,,,,,,,,,,,,,,,,,,,,,,,,,,,,,,,,,,,,,,,,,,,,,,,,,,,,,,,,False,True,False,0.93,0.93,11.54,-24.560000000000002,7.3,-17.26,-4.98,certain,certain,-4.98,55.85000000000001,1142.187333509326,None,1142.187333509326,None,1142.187333509326,None,1142.187333509326,None,1142.187333509326,None,1142.187333509326,None,1142.187333509326,None,3,1142.187333509326,None,1145.021688385401,None,1145.021688385401,None,1145.021688385401,None,1145.021688385401,None,1145.021688385401,None,1145.021688385401,None,1145.021688385401,None,1149.0232092602528,None,1149.0232092602528,None,1149.0232092602528,None,1149.0232092602528,None,1149.0232092602528,None,1149.0232092602528,None,1149.0232092602528,None,1158.5101387922186,None,2.8012767285108566,1150.0069189725327,None,1151.0073090306832,None,0.91,7.502725447411649,1154.0084004895762,None,None,1154.0084004895762,None,,,,,,,,,,,,,,,,,,,24223,2019_Dec_23_1144,Mmi_3levels,3.1.5,59.97645217186193,
,,,2,0,7.9,,,,,,,,,0,1,1,1,0,12,12,7,,,,,,,,,,,,,,,,,,,,,,,,,,,,,,,,,,,,,,,,,,,,,,,,,,,,,,,,,,,,False,True,True,0.91,0.91,12.45,-25.189999999999998,7.9,-17.29,-4.694999999999999,gamble,lose,-17.29,38.56000000000001,1160.5275125392945,None,1160.5275125392945,None,1160.5275125392945,None,1160.5275125392945,None,1160.5275125392945,None,1160.5275125392945,None,1160.5275125392945,None,1,1160.5275125392945,None,1162.2949345236411,None,1162.2949345236411,None,1162.2949345236411,None,1162.2949345236411,None,1162.2949345236411,None,1162.2949345236411,None,1162.2949345236411,None,1166.2964534785715,None,1166.2964534785715,None,1166.2964534785715,None,1166.2964534785715,None,1166.2964534785715,None,1166.2964534785715,None,1166.2964534785715,None,1167.2801775900298,None,1.73428847984178,,,,,,,,,,,,,,,,,,,,,,,,,,,,,,24223,2019_Dec_23_1144,Mmi_3levels,3.1.5,59.97645217186193,
,,,2,0,5.3,,,,,,,,,0,1,1,1,0,13,13,18,,,,,,,,,,,,,,,,,,,,,,,,,,,,,,,,,,,,,,,,,,,,,,,,,,,,,,,,,,,,False,True,False,0.91,0.91,13.36,-26.1,5.3,-20.8,-7.75,gamble,lose,-20.8,17.76000000000001,1169.2975766157033,None,1169.2975766157033,None,1169.2975766157033,None,1169.2975766157033,None,1169.2975766157033,None,1169.2975766157033,None,1169.2975766157033,None,1,1169.2975766157033,None,1171.898508083541,None,1171.898508083541,None,1171.898508083541,None,1171.898508083541,None,1171.898508083541,None,1171.898508083541,None,1171.898508083541,None,1175.900045597402,None,1175.900045597402,None,1175.900045597402,None,1175.900045597402,None,1175.900045597402,None,1175.900045597402,None,1175.900045597402,None,1185.38692361227,None,2.5678581199608743,1176.8837575495709,None,1177.884136728302,None,0.88,7.502744966302998,1180.885287703888,None,None,1180.885287703888,None,,,,,,,,,,,,,,,,,,,24223,2019_Dec_23_1144,Mmi_3levels,3.1.5,59.97645217186193,
,,,2,0,8.3,,,,,,,,,0,1,1,1,0,14,14,17,,,,,,,,,,,,,,,,,,,,,,,,,,,,,,,,,,,,,,,,,,,,,,,,,,,,,,,,,,,,False,True,True,0.88,0.88,14.24,-26.560000000000002,8.3,-18.26,-4.98,gamble,lose,-18.26,-0.4999999999999929,1187.4044099930325,None,1187.4044099930325,None,1187.4044099930325,None,1187.4044099930325,None,1187.4044099930325,None,1187.4044099930325,None,1187.4044099930325,None,None,1187.4044099930325,None,1190.4055350500275,None,1190.4055350500275,None,1190.4055350500275,None,1190.4055350500275,None,1190.4055350500275,None,1190.4055350500275,None,1190.4055350500275,None,1194.4070549649186,None,1194.4070549649186,None,1194.4070549649186,None,1194.4070549649186,None,1194.4070549649186,None,1194.4070549649186,None,1194.4070549649186,None,1195.3907992352033,None,,,,,,,,,,,,,,,,,,,,,,,,,,,,,,,24223,2019_Dec_23_1144,Mmi_3levels,3.1.5,59.97645217186193,
,,,2,0,6.3,,,,,,,,,0,1,1,1,0,15,15,12,,,,,,,,,,,,,,,,,,,,,,,,,,,,,,,,,,,,,,,,,,,,,,,,,,,,,,,,,,,,False,True,False,0.88,0.88,15.120000000000001,-27.44,6.3,-21.14,-7.42,certain,certain,-7.42,-7.919999999999993,1197.4082027405966,None,1197.4082027405966,None,1197.4082027405966,None,1197.4082027405966,None,1197.4082027405966,None,1197.4082027405966,None,1197.4082027405966,None,3,1197.4082027405966,None,1199.8257729567122,None,1199.8257729567122,None,1199.8257729567122,None,1199.8257729567122,None,1199.8257729567122,None,1199.8257729567122,None,1199.8257729567122,None,1203.8105914068292,None,1203.8105914068292,None,1203.8105914068292,None,1203.8105914068292,None,1203.8105914068292,None,1203.8105914068292,None,1203.8105914068292,None,1213.314205444476,None,2.3844677497982047,1204.8109856247902,None,1205.8113660834497,None,0.9,7.5027670450508595,1208.8124927403987,None,None,1208.8124927403987,None,,,,,,,,,,,,,,,,,,,24223,2019_Dec_23_1144,Mmi_3levels,3.1.5,59.97645217186193,
,,,2,0,0.1,,,,,,,,,0,1,1,1,0,16,16,26,,,,,,,,,,,,,,,,,,,,,,,,,,,,,,,,,,,,,,,,,,,,,,,,,,,,,,,,,,,,False,True,False,0.9,0.9,16.02,-28.619999999999997,0.1,-28.519999999999996,-14.209999999999997,gamble,lose,-28.519999999999996,-36.43999999999999,1215.3316764660995,None,1215.3316764660995,None,1215.3316764660995,None,1215.3316764660995,None,1215.3316764660995,None,1215.3316764660995,None,1215.3316764660995,None,None,1215.3316764660995,None,1218.3327698448556,None,1218.3327698448556,None,1218.3327698448556,None,1218.3327698448556,None,1218.3327698448556,None,1218.3327698448556,None,1218.3327698448556,None,1222.3342731206794,None,1222.3342731206794,None,1222.3342731206794,None,1222.3342731206794,None,1222.3342731206794,None,1222.3342731206794,None,1222.3342731206794,None,1223.3179921124247,None,,,,,,,,,,,,,,,,,,,,,,,,,,,,,,,24223,2019_Dec_23_1144,Mmi_3levels,3.1.5,59.97645217186193,
,,,2,0,10.1,,,,,,,,,0,1,1,1,0,17,17,20,,,,,,,,,,,,,,,,,,,,,,,,,,,,,,,,,,,,,,,,,,,,,,,,,,,,,,,,,,,,False,False,False,0.9,0.9,16.919999999999998,4.56,2.525,-2.0349999999999997,0.2450000000000001,gamble,win,2.525,-33.91499999999999,1225.3354695336893,None,1225.3354695336893,None,1225.3354695336893,None,1225.3354695336893,None,1225.3354695336893,None,1225.3354695336893,None,1225.3354695336893,None,1,1225.3354695336893,None,1227.1694557904266,None,1227.1694557904266,None,1227.1694557904266,None,1227.1694557904266,None,1227.1694557904266,None,1227.1694557904266,None,1227.1694557904266,None,1231.1543039989774,None,1231.1543039989774,None,1231.1543039989774,None,1231.1543039989774,None,1231.1543039989774,None,1231.1543039989774,None,1231.1543039989774,None,1232.1546230210806,None,1.8007164398441091,,,,,,,,,,,,,,,,,,,,,,,,,,,,,,24223,2019_Dec_23_1144,Mmi_3levels,3.1.5,59.97645217186193,
,,,2,0,10.3,,,,,,,,,0,1,1,1,0,18,18,24,,,,,,,,,,,,,,,,,,,,,,,,,,,,,,,,,,,,,,,,,,,,,,,,,,,,,,,,,,,,False,True,True,0.9,0.9,17.819999999999997,-30.419999999999995,10.3,-20.119999999999994,-4.909999999999997,certain,certain,-4.909999999999997,-38.82499999999999,1234.2220938027021,None,1234.2220938027021,None,1234.2220938027021,None,1234.2220938027021,None,1234.2220938027021,None,1234.2220938027021,None,1234.2220938027021,None,3,1234.2220938027021,None,1236.9564881966216,None,1236.9564881966216,None,1236.9564881966216,None,1236.9564881966216,None,1236.9564881966216,None,1236.9564881966216,None,1236.9564881966216,None,1240.9580033117672,None,1240.9580033117672,None,1240.9580033117672,None,1240.9580033117672,None,1240.9580033117672,None,1240.9580033117672,None,1240.9580033117672,None,1250.4449037253507,None,2.7012996072298847,1241.9417079043342,None,1242.9420810034499,None,0.91,7.502656971162651,1245.9432079803082,None,None,1245.9432079803082,None,,,,,,,,,,,,,,,,,,,24223,2019_Dec_23_1144,Mmi_3levels,3.1.5,59.97645217186193,
,,,2,0,3.7,,,,,,,,,0,1,1,1,0,19,19,19,,,,,,,,,,,,,,,,,,,,,,,,,,,,,,,,,,,,,,,,,,,,,,,,,,,,,,,,,,,,False,False,True,0.91,0.91,18.729999999999997,4.745833333333334,0.925,-3.8208333333333337,-1.447916666666667,certain,certain,-1.447916666666667,-40.27291666666665,1252.4623657874763,None,1252.4623657874763,None,1252.4623657874763,None,1252.4623657874763,None,1252.4623657874763,None,1252.4623657874763,None,1252.4623657874763,None,3,1252.4623657874763,None,1254.7965819513774,None,1254.7965819513774,None,1254.7965819513774,None,1254.7965819513774,None,1254.7965819513774,None,1254.7965819513774,None,1254.7965819513774,None,1258.798091306875,None,1258.798091306875,None,1258.798091306875,None,1258.798091306875,None,1258.798091306875,None,1258.798091306875,None,1258.798091306875,None,1259.781794299488,None,2.3011053781374358,,,,,,,,,,,,,,,,,,,,,,,,,,,,,,24223,2019_Dec_23_1144,Mmi_3levels,3.1.5,59.97645217186193,
,,,2,0,5.1,,,,,,,,,0,1,1,1,0,20,20,14,,,,,,,,,,,,,,,,,,,,,,,,,,,,,,,,,,,,,,,,,,,,,,,,,,,,,,,,,,,,False,True,True,0.91,0.91,19.639999999999997,-32.379999999999995,5.1,-27.279999999999994,-11.089999999999996,gamble,lose,-27.279999999999994,-67.55291666666665,1261.7991734862444,None,1261.7991734862444,None,1261.7991734862444,None,1261.7991734862444,None,1261.7991734862444,None,1261.7991734862444,None,1261.7991734862444,None,1,1261.7991734862444,None,1263.866771940724,None,1263.866771940724,None,1263.866771940724,None,1263.866771940724,None,1263.866771940724,None,1263.866771940724,None,1263.866771940724,None,1267.8681933011394,None,1267.8681933011394,None,1267.8681933011394,None,1267.8681933011394,None,1267.8681933011394,None,1267.8681933011394,None,1267.8681933011394,None,1277.3550879550749,None,2.0344038333860226,1268.8518774148542,None,1269.8522722727503,None,0.84,7.502686089545023,1272.85340564925,None,None,1272.85340564925,None,,,,,,,,,,,,,,,,,,,24223,2019_Dec_23_1144,Mmi_3levels,3.1.5,59.97645217186193,
,,,2,0,3.9,,,,,,,,,0,1,1,1,0,21,21,2,,,,,,,,,,,,,,,,,,,,,,,,,,,,,,,,,,,,,,,,,,,,,,,,,,,,,,,,,,,,False,True,True,0.84,0.84,20.479999999999997,-32.239999999999995,3.9,-28.339999999999996,-12.219999999999999,gamble,lose,-28.339999999999996,-95.89291666666665,1279.3725132192485,None,1279.3725132192485,None,1279.3725132192485,None,1279.3725132192485,None,1279.3725132192485,None,1279.3725132192485,None,1279.3725132192485,None,None,1279.3725132192485,None,1282.373680513876,None,1282.373680513876,None,1282.373680513876,None,1282.373680513876,None,1282.373680513876,None,1282.373680513876,None,1282.373680513876,None,1286.37523498683,None,1286.37523498683,None,1286.37523498683,None,1286.37523498683,None,1286.37523498683,None,1286.37523498683,None,1286.37523498683,None,1287.3588551040739,None,,,,,,,,,,,,,,,,,,,,,,,,,,,,,,,24223,2019_Dec_23_1144,Mmi_3levels,3.1.5,59.97645217186193,
,,,2,0,13.5,,,,,,,,,0,1,1,1,0,22,22,5,,,,,,,,,,,,,,,,,,,,,,,,,,,,,,,,,,,,,,,,,,,,,,,,,,,,,,,,,,,,False,False,True,0.84,0.84,21.319999999999997,4.716666666666667,3.375,-1.3416666666666668,1.0166666666666666,gamble,win,3.375,-92.51791666666665,1289.3763174862252,None,1289.3763174862252,None,1289.3763174862252,None,1289.3763174862252,None,1289.3763174862252,None,1289.3763174862252,None,1289.3763174862252,None,1,1289.3763174862252,None,1290.8268832945032,None,1290.8268832945032,None,1290.8268832945032,None,1290.8268832945032,None,1290.8268832945032,None,1290.8268832945032,None,1290.8268832945032,None,1294.8117055844632,None,1294.8117055844632,None,1294.8117055844632,None,1294.8117055844632,None,1294.8117055844632,None,1294.8117055844632,None,1294.8117055844632,None,1304.3152889037738,None,1.4174694216926582,1295.812096922542,None,1296.812481541012,None,0.94,7.502709448279347,1299.8135937987245,None,None,1299.8135937987245,None,,,,,,,,,,,,,,,,,,,24223,2019_Dec_23_1144,Mmi_3levels,3.1.5,59.97645217186193,
,,,2,0,1.3,,,,,,,,,0,1,1,1,0,23,23,4,,,,,,,,,,,,,,,,,,,,,,,,,,,,,,,,,,,,,,,,,,,,,,,,,,,,,,,,,,,,False,False,False,0.94,0.94,22.259999999999998,5.145,0.325,-4.819999999999999,-2.2474999999999996,certain,certain,-2.2474999999999996,-94.76541666666665,1306.3327544857166,None,1306.3327544857166,None,1306.3327544857166,None,1306.3327544857166,None,1306.3327544857166,None,1306.3327544857166,None,1306.3327544857166,None,3,1306.3327544857166,None,1308.450215107936,None,1308.450215107936,None,1308.450215107936,None,1308.450215107936,None,1308.450215107936,None,1308.450215107936,None,1308.450215107936,None,1312.4350485972827,None,1312.4350485972827,None,1312.4350485972827,None,1312.4350485972827,None,1312.4350485972827,None,1312.4350485972827,None,1312.4350485972827,None,1313.4354341756552,None,2.0843565560062416,,,,,,,,,,,,,,,,,,,,,,,,,,,,,,24223,2019_Dec_23_1144,Mmi_3levels,3.1.5,59.97645217186193,
,,,2,0,3.3,,,,,,,,,0,1,1,1,0,24,24,1,,,,,,,,,,,,,,,,,,,,,,,,,,,,,,,,,,,,,,,,,,,,,,,,,,,,,,,,,,,,False,True,False,0.94,0.94,23.2,-36.36,3.3,-33.06,-14.88,certain,certain,-14.88,-109.64541666666665,1315.4529045573436,None,1315.4529045573436,None,1315.4529045573436,None,1315.4529045573436,None,1315.4529045573436,None,1315.4529045573436,None,1315.4529045573436,None,3,1315.4529045573436,None,1317.1034937243094,None,1317.1034937243094,None,1317.1034937243094,None,1317.1034937243094,None,1317.1034937243094,None,1317.1034937243094,None,1317.1034937243094,None,1321.1050040397677,None,1321.1050040397677,None,1321.1050040397677,None,1321.1050040397677,None,1321.1050040397677,None,1321.1050040397677,None,1321.1050040397677,None,1322.0887057524524,None,1.617480301123578,,,,,,,,,,,,,,,,,,,,,,,,,,,,,,24223,2019_Dec_23_1144,Mmi_3levels,3.1.5,59.97645217186193,
,,,2,0,10.9,,,,,,,,,0,1,1,1,0,25,25,8,,,,,,,,,,,,,,,,,,,,,,,,,,,,,,,,,,,,,,,,,,,,,,,,,,,,,,,,,,,,False,True,True,0.94,0.94,24.14,-37.3,10.9,-26.4,-7.749999999999999,gamble,lose,-26.4,-136.04541666666665,1324.1061460557976,None,1324.1061460557976,None,1324.1061460557976,None,1324.1061460557976,None,1324.1061460557976,None,1324.1061460557976,None,1324.1061460557976,None,1,1324.1061460557976,None,1325.45664578781,None,1325.45664578781,None,1325.45664578781,None,1325.45664578781,None,1325.45664578781,None,1325.45664578781,None,1325.45664578781,None,1329.458140744071,None,1329.458140744071,None,1329.458140744071,None,1329.458140744071,None,1329.458140744071,None,1329.458140744071,None,1329.458140744071,None,1338.945083395287,None,1.317398225713987,1330.4418168582488,None,1331.4422382746125,None,0.89,7.50274720613379,1334.4433905301266,None,None,1334.4433905301266,None,,,,,,,,,,,,,,,,,,,24223,2019_Dec_23_1144,Mmi_3levels,3.1.5,59.97645217186193,
,,,2,0,6.7,,,,,,,,,0,1,1,1,0,26,26,0,,,,,,,,,,,,,,,,,,,,,,,,,,,,,,,,,,,,,,,,,,,,,,,,,,,,,,,,,,,,False,False,False,0.89,0.89,25.03,5.200833333333334,1.675,-3.525833333333334,-0.9254166666666669,certain,certain,-0.9254166666666669,-136.97083333333333,1340.9625169790233,None,1340.9625169790233,None,1340.9625169790233,None,1340.9625169790233,None,1340.9625169790233,None,1340.9625169790233,None,1340.9625169790233,None,3,1340.9625169790233,None,1342.863240298524,None,1342.863240298524,None,1342.863240298524,None,1342.863240298524,None,1342.863240298524,None,1342.863240298524,None,1342.863240298524,None,1346.8480865871534,None,1346.8480865871534,None,1346.8480865871534,None,1346.8480865871534,None,1346.8480865871534,None,1346.8480865871534,None,1346.8480865871534,None,1347.8484510467388,None,1.8676266128895804,,,,,,,,,,,,,,,,,,,,,,,,,,,,,,24223,2019_Dec_23_1144,Mmi_3levels,3.1.5,59.97645217186193,
,,,3,1,9.3,,,,,,,,,0,2,2,2,0,0,0,5,,,,,,,,,,,,,,,,,,,,,,,,,,,,,,,,,,,,,,,,,,,,,,,,,1357.151978369162,None,0.94,7.5021040422143415,1360.15309542662,None,None,1360.15309542662,None,1364.654782852158,None,True,False,True,0.94,-0.06000000000000005,-0.06000000000000005,-0.2150000000000002,9.3,9.085,4.5425,gamble,lose,9.085,-127.88583333333332,1367.689299639198,None,1367.689299639198,None,1367.689299639198,None,1367.689299639198,None,1367.689299639198,None,1367.689299639198,None,1367.689299639198,None,1,1367.689299639198,None,1369.1065050757024,None,1369.1065050757024,None,1369.1065050757024,None,1369.1065050757024,None,1369.1065050757024,None,1369.1065050757024,None,1369.1065050757024,None,1373.0912867279258,None,1373.0912867279258,None,1373.0912867279258,None,1373.0912867279258,None,1373.0912867279258,None,1373.0912867279258,None,1373.0912867279258,None,1382.5949417232187,None,1.384254961682018,1374.0917206236045,None,1375.0921023622504,None,0.99,7.502319070103113,1378.0932200596435,None,None,1378.0932200596435,None,1349.8492519618594,None,4,7.286217891785782,1349.8492519618594,None,,,,,,,,,,,,,24223,2019_Dec_23_1144,Mmi_3levels,3.1.5,59.97645217186193,
,,,3,1,12.5,,,,,,,,,0,2,2,2,0,1,1,20,,,,,,,,,,,,,,,,,,,,,,,,,,,,,,,,,,,,,,,,,,,,,,,,,,,,,,,,,,,,True,True,False,0.99,-0.010000000000000009,-0.07000000000000006,0.2100000000000002,12.5,12.29,6.145,gamble,win,12.5,-115.38583333333332,1384.6123215499683,None,1384.6123215499683,None,1384.6123215499683,None,1384.6123215499683,None,1384.6123215499683,None,1384.6123215499683,None,1384.6123215499683,None,1,1384.6123215499683,None,1385.7461748541682,None,1385.7461748541682,None,1385.7461748541682,None,1385.7461748541682,None,1385.7461748541682,None,1385.7461748541682,None,1385.7461748541682,None,1389.7309680257458,None,1389.7309680257458,None,1389.7309680257458,None,1389.7309680257458,None,1389.7309680257458,None,1389.7309680257458,None,1389.7309680257458,None,1390.731351684255,None,1.1007428384036757,,,,,,,,,,,,,,,,,,,,,,,,,,,,,,24223,2019_Dec_23_1144,Mmi_3levels,3.1.5,59.97645217186193,
,,,3,1,-1.1,,,,,,,,,0,2,2,2,0,2,2,2,,,,,,,,,,,,,,,,,,,,,,,,,,,,,,,,,,,,,,,,,,,,,,,,,,,,,,,,,,,,True,False,True,0.99,-0.010000000000000009,-0.08000000000000007,-0.041666666666666706,-1.1,-1.1416666666666668,-1.1208333333333336,certain,certain,-1.1208333333333336,-116.50666666666666,1392.7487862279522,None,1392.7487862279522,None,1392.7487862279522,None,1392.7487862279522,None,1392.7487862279522,None,1392.7487862279522,None,1392.7487862279522,None,3,1392.7487862279522,None,1395.1497016967041,None,1395.1497016967041,None,1395.1497016967041,None,1395.1497016967041,None,1395.1497016967041,None,1395.1497016967041,None,1395.1497016967041,None,1399.1345281464164,None,1399.1345281464164,None,1399.1345281464164,None,1399.1345281464164,None,1399.1345281464164,None,1399.1345281464164,None,1399.1345281464164,None,1400.1349127648864,None,2.3678104425780475,,,,,,,,,,,,,,,,,,,,,,,,,,,,,,24223,2019_Dec_23_1144,Mmi_3levels,3.1.5,59.97645217186193,
,,,3,1,4.9,,,,,,,,,0,2,2,2,0,3,3,15,,,,,,,,,,,,,,,,,,,,,,,,,,,,,,,,,,,,,,,,,,,,,,,,,,,,,,,,,,,,True,False,True,0.99,-0.010000000000000009,-0.09000000000000008,-0.04250000000000004,4.9,4.8575,2.42875,gamble,lose,4.8575,-111.64916666666666,1402.1523485884536,None,1402.1523485884536,None,1402.1523485884536,None,1402.1523485884536,None,1402.1523485884536,None,1402.1523485884536,None,1402.1523485884536,None,1,1402.1523485884536,None,1403.0360056636855,None,1403.0360056636855,None,1403.0360056636855,None,1403.0360056636855,None,1403.0360056636855,None,1403.0360056636855,None,1403.0360056636855,None,1407.0208538721781,None,1407.0208538721781,None,1407.0208538721781,None,1407.0208538721781,None,1407.0208538721781,None,1407.0208538721781,None,1407.0208538721781,None,1416.5244544705492,None,0.8505949266836978,1408.0212292111246,None,1409.021608389914,None,0.96,7.502720007672906,1412.0226796899224,None,None,1412.0226796899224,None,,,,,,,,,,,,,,,,,,,24223,2019_Dec_23_1144,Mmi_3levels,3.1.5,59.97645217186193,
,,,3,1,6.3,,,,,,,,,0,2,2,2,0,4,4,13,,,,,,,,,,,,,,,,,,,,,,,,,,,,,,,,,,,,,,,,,,,,,,,,,,,,,,,,,,,,True,True,True,0.96,-0.040000000000000036,-0.13000000000000012,0.6900000000000006,6.3,5.609999999999999,2.8049999999999997,gamble,win,6.3,-105.34916666666666,1418.5418829345144,None,1418.5418829345144,None,1418.5418829345144,None,1418.5418829345144,None,1418.5418829345144,None,1418.5418829345144,None,1418.5418829345144,None,1,1418.5418829345144,None,1419.5255948866834,None,1419.5255948866834,None,1419.5255948866834,None,1419.5255948866834,None,1419.5255948866834,None,1419.5255948866834,None,1419.5255948866834,None,1423.5104267760762,None,1423.5104267760762,None,1423.5104267760762,None,1423.5104267760762,None,1423.5104267760762,None,1423.5104267760762,None,1423.5104267760762,None,1424.5108062748332,None,0.950629964703694,,,,,,,,,,,,,,,,,,,,,,,,,,,,,,24223,2019_Dec_23_1144,Mmi_3levels,3.1.5,59.97645217186193,
,,,3,1,5.5,,,,,,,,,0,2,2,2,0,5,5,25,,,,,,,,,,,,,,,,,,,,,,,,,,,,,,,,,,,,,,,,,,,,,,,,,,,,,,,,,,,,True,False,False,0.96,-0.040000000000000036,-0.17000000000000015,-0.1541666666666668,5.5,5.345833333333333,2.6729166666666666,gamble,lose,5.345833333333333,-100.00333333333333,1426.5282337788958,None,1426.5282337788958,None,1426.5282337788958,None,1426.5282337788958,None,1426.5282337788958,None,1426.5282337788958,None,1426.5282337788958,None,1,1426.5282337788958,None,1427.4785978384898,None,1427.4785978384898,None,1427.4785978384898,None,1427.4785978384898,None,1427.4785978384898,None,1427.4785978384898,None,1427.4785978384898,None,1431.463450846728,None,1431.463450846728,None,1431.463450846728,None,1431.463450846728,None,1431.463450846728,None,1431.463450846728,None,1431.463450846728,None,1440.9670293663512,None,0.9172676730086096,1432.4638143463526,None,1433.4641903252923,None,1.0,7.502734406851232,1436.465315702313,None,None,1436.465315702313,None,,,,,,,,,,,,,,,,,,,24223,2019_Dec_23_1144,Mmi_3levels,3.1.5,59.97645217186193,
,,,3,1,1.3,,,,,,,,,0,2,2,2,0,6,6,17,,,,,,,,,,,,,,,,,,,,,,,,,,,,,,,,,,,,,,,,,,,,,,,,,,,,,,,,,,,,True,False,True,1.0,0.0,-0.17000000000000015,-0.03,1.3,1.27,1.2850000000000001,gamble,lose,1.27,-98.73333333333333,1442.9844674298074,None,1442.9844674298074,None,1442.9844674298074,None,1442.9844674298074,None,1442.9844674298074,None,1442.9844674298074,None,1442.9844674298074,None,1,1442.9844674298074,None,1444.8685296023032,None,1444.8685296023032,None,1444.8685296023032,None,1444.8685296023032,None,1444.8685296023032,None,1444.8685296023032,None,1444.8685296023032,None,1448.853348372446,None,1448.853348372446,None,1448.853348372446,None,1448.853348372446,None,1448.853348372446,None,1448.853348372446,None,1448.853348372446,None,1449.8537291511311,None,1.8509629060863517,,,,,,,,,,,,,,,,,,,,,,,,,,,,,,24223,2019_Dec_23_1144,Mmi_3levels,3.1.5,59.97645217186193,
,,,3,1,13.5,,,,,,,,,0,2,2,2,0,7,7,19,,,,,,,,,,,,,,,,,,,,,,,,,,,,,,,,,,,,,,,,,,,,,,,,,,,,,,,,,,,,True,False,True,1.0,0.0,-0.17000000000000015,-0.03,13.5,13.47,6.735,gamble,lose,13.47,-85.26333333333334,1451.8711672145873,None,1451.8711672145873,None,1451.8711672145873,None,1451.8711672145873,None,1451.8711672145873,None,1451.8711672145873,None,1451.8711672145873,None,1,1451.8711672145873,None,1452.9048907660763,None,1452.9048907660763,None,1452.9048907660763,None,1452.9048907660763,None,1452.9048907660763,None,1452.9048907660763,None,1452.9048907660763,None,1456.9064167606412,None,1456.9064167606412,None,1456.9064167606412,None,1456.9064167606412,None,1456.9064167606412,None,1456.9064167606412,None,1456.9064167606412,None,1466.3932720567682,None,1.0006873215315863,1457.8901056740433,None,1458.890483252937,None,1.0,7.502675210183952,1461.8916051100823,None,None,1461.8916051100823,None,,,,,,,,,,,,,,,,,,,24223,2019_Dec_23_1144,Mmi_3levels,3.1.5,59.97645217186193,
,,,3,1,1.1,,,,,,,,,0,2,2,2,0,8,8,12,,,,,,,,,,,,,,,,,,,,,,,,,,,,,,,,,,,,,,,,,,,,,,,,,,,,,,,,,,,,True,True,True,1.0,0.0,-0.17000000000000015,0.17000000000000015,1.1,0.9299999999999999,1.0150000000000001,certain,certain,1.0150000000000001,-84.24833333333333,1468.4107296391157,None,1468.4107296391157,None,1468.4107296391157,None,1468.4107296391157,None,1468.4107296391157,None,1468.4107296391157,None,1468.4107296391157,None,3,1468.4107296391157,None,1470.228065948293,None,1470.228065948293,None,1470.228065948293,None,1470.228065948293,None,1470.228065948293,None,1470.228065948293,None,1470.228065948293,None,1474.2129547945224,None,1474.2129547945224,None,1474.2129547945224,None,1474.2129547945224,None,1474.2129547945224,None,1474.2129547945224,None,1474.2129547945224,None,1475.2133304534946,None,1.7842994392267428,,,,,,,,,,,,,,,,,,,,,,,,,,,,,,24223,2019_Dec_23_1144,Mmi_3levels,3.1.5,59.97645217186193,
,,,3,1,8.5,,,,,,,,,0,2,2,2,0,9,9,8,,,,,,,,,,,,,,,,,,,,,,,,,,,,,,,,,,,,,,,,,,,,,,,,,,,,,,,,,,,,True,False,True,1.0,0.0,-0.17000000000000015,-0.03,8.5,8.47,4.235,gamble,lose,8.47,-75.77833333333334,1477.2307665970293,None,1477.2307665970293,None,1477.2307665970293,None,1477.2307665970293,None,1477.2307665970293,None,1477.2307665970293,None,1477.2307665970293,None,1,1477.2307665970293,None,1478.081084099249,None,1478.081084099249,None,1478.081084099249,None,1478.081084099249,None,1478.081084099249,None,1478.081084099249,None,1478.081084099249,None,1482.0659294279176,None,1482.0659294279176,None,1482.0659294279176,None,1482.0659294279176,None,1482.0659294279176,None,1482.0659294279176,None,1482.0659294279176,None,1483.0662526098313,None,0.8172931115841493,,,,,,,,,,,,,,,,,,,,,,,,,,,,,,24223,2019_Dec_23_1144,Mmi_3levels,3.1.5,59.97645217186193,
,,,3,1,10.3,,,,,,,,,0,2,2,2,0,10,10,7,,,,,,,,,,,,,,,,,,,,,,,,,,,,,,,,,,,,,,,,,,,,,,,,,,,,,,,,,,,,True,True,False,1.0,0.0,-0.17000000000000015,0.17000000000000015,10.3,10.13,5.065,gamble,win,10.3,-65.47833333333334,1485.0837335509132,None,1485.0837335509132,None,1485.0837335509132,None,1485.0837335509132,None,1485.0837335509132,None,1485.0837335509132,None,1485.0837335509132,None,1,1485.0837335509132,None,1486.1674783012131,None,1486.1674783012131,None,1486.1674783012131,None,1486.1674783012131,None,1486.1674783012131,None,1486.1674783012131,None,1486.1674783012131,None,1490.1689918164047,None,1490.1689918164047,None,1490.1689918164047,None,1490.1689918164047,None,1490.1689918164047,None,1490.1689918164047,None,1490.1689918164047,None,1499.655918788514,None,1.0506518835318275,1491.1526964089717,None,1492.153079427546,None,1.0,7.502709448279347,1495.1542003247305,None,None,1495.1542003247305,None,,,,,,,,,,,,,,,,,,,24223,2019_Dec_23_1144,Mmi_3levels,3.1.5,59.97645217186193,
,,,3,1,7.5,,,,,,,,,0,2,2,2,0,11,11,11,,,,,,,,,,,,,,,,,,,,,,,,,,,,,,,,,,,,,,,,,,,,,,,,,,,,,,,,,,,,True,True,False,1.0,0.0,-0.17000000000000015,0.17000000000000015,7.5,7.33,3.665,gamble,win,7.5,-57.97833333333334,1501.6733542921138,None,1501.6733542921138,None,1501.6733542921138,None,1501.6733542921138,None,1501.6733542921138,None,1501.6733542921138,None,1501.6733542921138,None,1,1501.6733542921138,None,1503.1072307950235,None,1503.1072307950235,None,1503.1072307950235,None,1503.1072307950235,None,1503.1072307950235,None,1503.1072307950235,None,1503.1072307950235,None,1507.0920991624007,None,1507.0920991624007,None,1507.0920991624007,None,1507.0920991624007,None,1507.0920991624007,None,1507.0920991624007,None,1507.0920991624007,None,1508.0923986656708,None,1.4007826761808246,,,,,,,,,,,,,,,,,,,,,,,,,,,,,,24223,2019_Dec_23_1144,Mmi_3levels,3.1.5,59.97645217186193,
,,,3,1,6.1,,,,,,,,,0,2,2,2,0,12,12,4,,,,,,,,,,,,,,,,,,,,,,,,,,,,,,,,,,,,,,,,,,,,,,,,,,,,,,,,,,,,True,True,False,1.0,0.0,-0.17000000000000015,0.17000000000000015,6.1,5.93,2.965,gamble,win,6.1,-51.87833333333334,1510.1098671274376,None,1510.1098671274376,None,1510.1098671274376,None,1510.1098671274376,None,1510.1098671274376,None,1510.1098671274376,None,1510.1098671274376,None,1,1510.1098671274376,None,1511.3936406761059,None,1511.3936406761059,None,1511.3936406761059,None,1511.3936406761059,None,1511.3936406761059,None,1511.3936406761059,None,1511.3936406761059,None,1515.3785365619115,None,1515.3785365619115,None,1515.3785365619115,None,1515.3785365619115,None,1515.3785365619115,None,1515.3785365619115,None,1515.3785365619115,None,1524.8821761981235,None,1.25076387723675,1516.378913500812,None,1517.3792901197448,None,1.0,7.50277408468537,1520.3804388553835,None,None,1520.3804388553835,None,,,,,,,,,,,,,,,,,,,24223,2019_Dec_23_1144,Mmi_3levels,3.1.5,59.97645217186193,
,,,3,1,7.3,,,,,,,,,0,2,2,2,0,13,13,24,,,,,,,,,,,,,,,,,,,,,,,,,,,,,,,,,,,,,,,,,,,,,,,,,,,,,,,,,,,,True,True,False,1.0,0.0,-0.17000000000000015,0.17000000000000015,7.3,7.13,3.565,gamble,win,7.3,-44.57833333333334,1526.8995659442735,None,1526.8995659442735,None,1526.8995659442735,None,1526.8995659442735,None,1526.8995659442735,None,1526.8995659442735,None,1526.8995659442735,None,1,1526.8995659442735,None,1528.416810898576,None,1528.416810898576,None,1528.416810898576,None,1528.416810898576,None,1528.416810898576,None,1528.416810898576,None,1528.416810898576,None,1532.4183151343022,None,1532.4183151343022,None,1532.4183151343022,None,1532.4183151343022,None,1532.4183151343022,None,1532.4183151343022,None,1532.4183151343022,None,1533.4020194069017,None,1.4841536873718724,,,,,,,,,,,,,,,,,,,,,,,,,,,,,,24223,2019_Dec_23_1144,Mmi_3levels,3.1.5,59.97645217186193,
,,,3,1,13.7,,,,,,,,,0,2,2,2,0,14,14,16,,,,,,,,,,,,,,,,,,,,,,,,,,,,,,,,,,,,,,,,,,,,,,,,,,,,,,,,,,,,True,False,True,1.0,0.0,-0.17000000000000015,-0.03,13.7,13.67,6.835,gamble,lose,13.67,-30.90833333333334,1535.419497788127,None,1535.419497788127,None,1535.419497788127,None,1535.419497788127,None,1535.419497788127,None,1535.419497788127,None,1535.419497788127,None,1,1535.419497788127,None,1536.736624349025,None,1536.736624349025,None,1536.736624349025,None,1536.736624349025,None,1536.736624349025,None,1536.736624349025,None,1536.736624349025,None,1540.7381321045686,None,1540.7381321045686,None,1540.7381321045686,None,1540.7381321045686,None,1540.7381321045686,None,1540.7381321045686,None,1540.7381321045686,None,1541.7218373370706,None,1.2840336940716952,,,,,,,,,,,,,,,,,,,,,,,,,,,,,,24223,2019_Dec_23_1144,Mmi_3levels,3.1.5,59.97645217186193,
,,,3,1,-1.3,,,,,,,,,0,2,2,2,0,15,15,9,,,,,,,,,,,,,,,,,,,,,,,,,,,,,,,,,,,,,,,,,,,,,,,,,,,,,,,,,,,,True,True,True,1.0,0.0,-0.17000000000000015,0.17000000000000015,-1.3,-1.4700000000000002,-1.3850000000000002,certain,certain,-1.3850000000000002,-32.29333333333334,1543.739221003605,None,1543.739221003605,None,1543.739221003605,None,1543.739221003605,None,1543.739221003605,None,1543.739221003605,None,1543.739221003605,None,3,1543.739221003605,None,1545.2064892365597,None,1545.2064892365597,None,1545.2064892365597,None,1545.2064892365597,None,1545.2064892365597,None,1545.2064892365597,None,1545.2064892365597,None,1549.2080043517053,None,1549.2080043517053,None,1549.2080043517053,None,1549.2080043517053,None,1549.2080043517053,None,1549.2080043517053,None,1549.2080043517053,None,1558.6949063652428,None,1.434181125892792,1550.1917089442722,None,1551.1920906829182,None,1.0,7.502630092727486,1554.1931610229658,None,None,1554.1931610229658,None,,,,,,,,,,,,,,,,,,,24223,2019_Dec_23_1144,Mmi_3levels,3.1.5,59.97645217186193,
,,,3,1,6.7,,,,,,,,,0,2,2,2,0,16,16,1,,,,,,,,,,,,,,,,,,,,,,,,,,,,,,,,,,,,,,,,,,,,,,,,,,,,,,,,,,,,True,False,True,1.0,0.0,-0.17000000000000015,-0.03,6.7,6.67,3.335,gamble,lose,6.67,-25.623333333333335,1560.7123124304926,None,1560.7123124304926,None,1560.7123124304926,None,1560.7123124304926,None,1560.7123124304926,None,1560.7123124304926,None,1560.7123124304926,None,1,1560.7123124304926,None,1561.7460894189426,None,1561.7460894189426,None,1561.7460894189426,None,1561.7460894189426,None,1561.7460894189426,None,1561.7460894189426,None,1561.7460894189426,None,1565.7309257881134,None,1565.7309257881134,None,1565.7309257881134,None,1565.7309257881134,None,1565.7309257881134,None,1565.7309257881134,None,1565.7309257881134,None,1566.7313052868703,None,1.0006854016100988,,,,,,,,,,,,,,,,,,,,,,,,,,,,,,24223,2019_Dec_23_1144,Mmi_3levels,3.1.5,59.97645217186193,
,,,3,1,9.9,,,,,,,,,0,2,2,2,0,17,17,18,,,,,,,,,,,,,,,,,,,,,,,,,,,,,,,,,,,,,,,,,,,,,,,,,,,,,,,,,,,,True,True,True,1.0,0.0,-0.17000000000000015,0.17000000000000015,9.9,9.73,4.865,gamble,win,9.9,-15.723333333333334,1568.7486607949832,None,1568.7486607949832,None,1568.7486607949832,None,1568.7486607949832,None,1568.7486607949832,None,1568.7486607949832,None,1568.7486607949832,None,1,1568.7486607949832,None,1569.8158071147627,None,1569.8158071147627,None,1569.8158071147627,None,1569.8158071147627,None,1569.8158071147627,None,1569.8158071147627,None,1569.8158071147627,None,1573.800638044253,None,1573.800638044253,None,1573.800638044253,None,1573.800638044253,None,1573.800638044253,None,1573.800638044253,None,1573.800638044253,None,1583.3209183485596,None,1.034056972770486,1574.8010252225795,None,1575.8014117609127,None,1.0,7.519383714476135,1578.8025265784818,None,None,1578.8025265784818,None,,,,,,,,,,,,,,,,,,,24223,2019_Dec_23_1144,Mmi_3levels,3.1.5,59.97645217186193,
,,,3,1,1.5,,,,,,,,,0,2,2,2,0,18,18,26,,,,,,,,,,,,,,,,,,,,,,,,,,,,,,,,,,,,,,,,,,,,,,,,,,,,,,,,,,,,True,True,False,1.0,0.0,-0.17000000000000015,0.17000000000000015,1.5,1.3299999999999998,1.415,gamble,win,1.5,-14.223333333333334,1585.338348092453,None,1585.338348092453,None,1585.338348092453,None,1585.338348092453,None,1585.338348092453,None,1585.338348092453,None,1585.338348092453,None,1,1585.338348092453,None,1587.505831833405,None,1587.505831833405,None,1587.505831833405,None,1587.505831833405,None,1587.505831833405,None,1587.505831833405,None,1587.505831833405,None,1591.49067972193,None,1591.49067972193,None,1591.49067972193,None,1591.49067972193,None,1591.49067972193,None,1591.49067972193,None,1591.49067972193,None,1592.491064980335,None,2.1344222323969007,,,,,,,,,,,,,,,,,,,,,,,,,,,,,,24223,2019_Dec_23_1144,Mmi_3levels,3.1.5,59.97645217186193,
,,,3,1,13.3,,,,,,,,,0,2,2,2,0,19,19,6,,,,,,,,,,,,,,,,,,,,,,,,,,,,,,,,,,,,,,,,,,,,,,,,,,,,,,,,,,,,True,True,False,1.0,0.0,-0.17000000000000015,0.17000000000000015,13.3,13.13,6.565,gamble,win,13.3,-0.9233333333333338,1594.5084787251544,None,1594.5084787251544,None,1594.5084787251544,None,1594.5084787251544,None,1594.5084787251544,None,1594.5084787251544,None,1594.5084787251544,None,1,1594.5084787251544,None,1595.392163958808,None,1595.392163958808,None,1595.392163958808,None,1595.392163958808,None,1595.392163958808,None,1595.392163958808,None,1595.392163958808,None,1599.393674274208,None,1599.393674274208,None,1599.393674274208,None,1599.393674274208,None,1599.393674274208,None,1599.393674274208,None,1599.393674274208,None,1608.880590366898,None,0.8506886814138852,1600.377405105275,None,1601.3777481261059,None,1.0,7.502737286675256,1604.378881182638,None,None,1604.378881182638,None,,,,,,,,,,,,,,,,,,,24223,2019_Dec_23_1144,Mmi_3levels,3.1.5,59.97645217186193,
,,,3,1,12.9,,,,,,,,,0,2,2,2,0,20,20,14,,,,,,,,,,,,,,,,,,,,,,,,,,,,,,,,,,,,,,,,,,,,,,,,,,,,,,,,,,,,True,True,True,1.0,0.0,-0.17000000000000015,0.17000000000000015,12.9,12.73,6.365,gamble,win,12.9,11.976666666666667,1610.8980092314305,None,1610.8980092314305,None,1610.8980092314305,None,1610.8980092314305,None,1610.8980092314305,None,1610.8980092314305,None,1610.8980092314305,None,1,1610.8980092314305,None,1612.0818440567236,None,1612.0818440567236,None,1612.0818440567236,None,1612.0818440567236,None,1612.0818440567236,None,1612.0818440567236,None,1612.0818440567236,None,1616.0833546920912,None,1616.0833546920912,None,1616.0833546920912,None,1616.0833546920912,None,1616.0833546920912,None,1616.0833546920912,None,1616.0833546920912,None,1617.067031446204,None,1.1509077091468498,,,,,,,,,,,,,,,,,,,,,,,,,,,,,,24223,2019_Dec_23_1144,Mmi_3levels,3.1.5,59.97645217186193,
,,,3,1,0.9,,,,,,,,,0,2,2,2,0,21,21,10,,,,,,,,,,,,,,,,,,,,,,,,,,,,,,,,,,,,,,,,,,,,,,,,,,,,,,,,,,,,True,True,False,1.0,0.0,-0.17000000000000015,0.17000000000000015,0.9,0.7299999999999999,0.815,gamble,win,0.9,12.876666666666667,1619.0844992680359,None,1619.0844992680359,None,1619.0844992680359,None,1619.0844992680359,None,1619.0844992680359,None,1619.0844992680359,None,1619.0844992680359,None,1,1619.0844992680359,None,1620.9185031238012,None,1620.9185031238012,None,1620.9185031238012,None,1620.9185031238012,None,1620.9185031238012,None,1620.9185031238012,None,1620.9185031238012,None,1624.920004159736,None,1624.920004159736,None,1624.920004159736,None,1624.920004159736,None,1624.920004159736,None,1624.920004159736,None,1624.920004159736,None,1625.903652115434,None,1.8008965898188762,,,,,,,,,,,,,,,,,,,,,,,,,,,,,,24223,2019_Dec_23_1144,Mmi_3levels,3.1.5,59.97645217186193,
,,,3,1,0.3,,,,,,,,,0,2,2,2,0,22,22,3,,,,,,,,,,,,,,,,,,,,,,,,,,,,,,,,,,,,,,,,,,,,,,,,,,,,,,,,,,,,True,True,False,1.0,0.0,-0.17000000000000015,0.17000000000000015,0.3,0.12999999999999984,0.2149999999999999,gamble,win,0.3,13.176666666666668,1627.921110977768,None,1627.921110977768,None,1627.921110977768,None,1627.921110977768,None,1627.921110977768,None,1627.921110977768,None,1627.921110977768,None,1,1627.921110977768,None,1630.3553903381107,None,1630.3553903381107,None,1630.3553903381107,None,1630.3553903381107,None,1630.3553903381107,None,1630.3553903381107,None,1630.3553903381107,None,1634.3569067331846,None,1634.3569067331846,None,1634.3569067331846,None,1634.3569067331846,None,1634.3569067331846,None,1634.3569067331846,None,1634.3569067331846,None,1643.8437994671986,None,2.4011957730399445,1635.3406129256473,None,1636.3409850648022,None,1.0,7.502699848788325,1639.3421072419733,None,None,1639.3421072419733,None,,,,,,,,,,,,,,,,,,,24223,2019_Dec_23_1144,Mmi_3levels,3.1.5,59.97645217186193,
,,,3,1,7.9,,,,,,,,,0,2,2,2,0,23,23,22,,,,,,,,,,,,,,,,,,,,,,,,,,,,,,,,,,,,,,,,,,,,,,,,,,,,,,,,,,,,True,True,False,1.0,0.0,-0.17000000000000015,0.17000000000000015,7.9,7.73,3.865,gamble,win,7.9,21.076666666666668,1645.8612672890304,None,1645.8612672890304,None,1645.8612672890304,None,1645.8612672890304,None,1645.8612672890304,None,1645.8612672890304,None,1645.8612672890304,None,1,1645.8612672890304,None,1647.0283731310628,None,1647.0283731310628,None,1647.0283731310628,None,1647.0283731310628,None,1647.0283731310628,None,1647.0283731310628,None,1647.0283731310628,None,1651.0132098202012,None,1651.0132098202012,None,1651.0132098202012,None,1651.0132098202012,None,1651.0132098202012,None,1651.0132098202012,None,1651.0132098202012,None,1652.0135902789189,None,1.1340120153618045,,,,,,,,,,,,,,,,,,,,,,,,,,,,,,24223,2019_Dec_23_1144,Mmi_3levels,3.1.5,59.97645217186193,
,,,3,1,2.9,,,,,,,,,0,2,2,2,0,24,24,23,,,,,,,,,,,,,,,,,,,,,,,,,,,,,,,,,,,,,,,,,,,,,,,,,,,,,,,,,,,,True,True,False,1.0,0.0,-0.17000000000000015,0.17000000000000015,2.9,2.7299999999999995,1.3649999999999998,gamble,win,2.9,23.976666666666667,1654.0309905845206,None,1654.0309905845206,None,1654.0309905845206,None,1654.0309905845206,None,1654.0309905845206,None,1654.0309905845206,None,1654.0309905845206,None,1,1654.0309905845206,None,1655.4482270592707,None,1655.4482270592707,None,1655.4482270592707,None,1655.4482270592707,None,1655.4482270592707,None,1655.4482270592707,None,1655.4482270592707,None,1659.4330551088788,None,1659.4330551088788,None,1659.4330551088788,None,1659.4330551088788,None,1659.4330551088788,None,1659.4330551088788,None,1659.4330551088788,None,1668.9366560272174,None,1.3840888910344802,1660.4334781251964,None,1661.4338189061382,None,1.0,7.502631052630022,1664.4349401233485,None,None,1664.4349401233485,None,,,,,,,,,,,,,,,,,,,24223,2019_Dec_23_1144,Mmi_3levels,3.1.5,59.97645217186193,
,,,3,1,11.1,,,,,,,,,0,2,2,2,0,25,25,0,,,,,,,,,,,,,,,,,,,,,,,,,,,,,,,,,,,,,,,,,,,,,,,,,,,,,,,,,,,,True,False,False,1.0,0.0,-0.17000000000000015,-0.03,11.1,11.07,5.535,gamble,lose,11.07,35.04666666666667,1670.954043213569,None,1670.954043213569,None,1670.954043213569,None,1670.954043213569,None,1670.954043213569,None,1670.954043213569,None,1670.954043213569,None,1,1670.954043213569,None,1672.087799563189,None,1672.087799563189,None,1672.087799563189,None,1672.087799563189,None,1672.087799563189,None,1672.087799563189,None,1672.087799563189,None,1676.072692249203,None,1676.072692249203,None,1676.072692249203,None,1676.072692249203,None,1676.072692249203,None,1676.072692249203,None,1676.072692249203,None,1677.0730759077123,None,1.1006583631387912,,,,,,,,,,,,,,,,,,,,,,,,,,,,,,24223,2019_Dec_23_1144,Mmi_3levels,3.1.5,59.97645217186193,
,,,3,1,5.1,,,,,,,,,0,2,2,2,0,26,26,21,,,,,,,,,,,,,,,,,,,,,,,,,,,,,,,,,,,,,,,,,,,,,,,,,,,,,,,,,,,,True,False,True,1.0,0.0,-0.17000000000000015,-0.03,5.1,5.069999999999999,2.5349999999999997,gamble,lose,5.069999999999999,40.11666666666667,1679.0905059716315,None,1679.0905059716315,None,1679.0905059716315,None,1679.0905059716315,None,1679.0905059716315,None,1679.0905059716315,None,1679.0905059716315,None,1,1679.0905059716315,None,1680.1742417624337,None,1680.1742417624337,None,1680.1742417624337,None,1680.1742417624337,None,1680.1742417624337,None,1680.1742417624337,None,1680.1742417624337,None,1684.1590627724654,None,1684.1590627724654,None,1684.1590627724654,None,1684.1590627724654,None,1684.1590627724654,None,1684.1590627724654,None,1684.1590627724654,None,1693.6626816097996,None,1.0506480436888523,1685.1594640300027,None,1686.159842568799,None,0.98,7.502763525233604,1689.160915468703,None,None,1689.160915468703,None,,,,,,,,,,,,,,,,,,,24223,2019_Dec_23_1144,Mmi_3levels,3.1.5,59.97645217186193,
,,,,,,,,,,,,,,,,,,,,,,,,,,,,,,0,0,0,0,,,,,,,,,,,,,,,,,,,,,,,,,,,,,,,,,,,,,,,,,,,,,,,,,,,,,,,,,,,,,,,,,,,,,,,,,,,,,,,,,,,,,,,,,,,,,,,,,,,,,,,,,,,,,,,,,,,,,,,,,1695.6634290879592,None,4,6.085854072181974,1695.6634290879592,None,40.11666666666667,3,1701.7824205044308,None,1701.7824205044308,None,1701.7824205044308,None,4,5.85241754463641,1701.7824205044308,None,24223,2019_Dec_23_1144,Mmi_3levels,3.1.5,59.97645217186193,
