currSlide,currImage,currText,blockNum,targetHappiness,highAmount,instructionLoop1.thisRepN,instructionLoop1.thisTrialN,instructionLoop1.thisN,instructionLoop1.thisIndex,instructionLoop2.thisRepN,instructionLoop2.thisTrialN,instructionLoop2.thisN,instructionLoop2.thisIndex,blockLoop.thisRepN,blockLoop.thisTrialN,blockLoop.thisN,blockLoop.thisIndex,trialLoop.thisRepN,trialLoop.thisTrialN,trialLoop.thisN,trialLoop.thisIndex,doRatingLoop.thisRepN,doRatingLoop.thisTrialN,doRatingLoop.thisN,doRatingLoop.thisIndex,trialHappyLoop.thisRepN,trialHappyLoop.thisTrialN,trialHappyLoop.thisN,trialHappyLoop.thisIndex,logWinningsLoop.thisRepN,logWinningsLoop.thisTrialN,logWinningsLoop.thisN,logWinningsLoop.thisIndex,instrImage.started,instrImage.stopped,instrText.started,instrText.stopped,instrContinueText.started,instrContinueText.stopped,instrKeyResp.keys,instrKeyResp.rt,instrKeyResp.started,instrKeyResp.stopped,lifeHappyText.started,lifeHappyText.stopped,lifeHappySlider.response,lifeHappySlider.rt,lifeHappySlider.started,lifeHappySlider.stopped,lifeHappyResp.keys,lifeHappyResp.rt,lifeHappyResp.started,lifeHappyResp.stopped,instrImage_2.started,instrImage_2.stopped,instrText_2.started,instrText_2.stopped,instrContinueText_2.started,instrContinueText_2.stopped,instrKeyResp_2.keys,instrKeyResp_2.rt,instrKeyResp_2.started,instrKeyResp_2.stopped,localizing.started,localizing.stopped,start_exp.keys,start_exp.rt,start_exp.started,start_exp.stopped,blockHappyText.started,blockHappyText.stopped,blockHappySlider.response,blockHappySlider.rt,blockHappySlider.started,blockHappySlider.stopped,blockHappyResp.keys,blockHappyResp.rt,blockHappyResp.started,blockHappyResp.stopped,blankText.started,blankText.stopped,isHappyBlock,isCongruent,isWinOnTop,lastHappyRating,diff,sumDiff,RPE,winAmount,loseAmount,certainAmount,choice,outcome,outcomeAmount,currentWinnings,fixCross.started,fixCross.stopped,certainBox.started,certainBox.stopped,outcome1Box.started,outcome1Box.stopped,outcome2Box.started,outcome2Box.stopped,certainText.started,certainText.stopped,outcome1Text.started,outcome1Text.stopped,outcome2Text.started,outcome2Text.stopped,choiceKey.keys,choiceKey.rt,choiceKey.started,choiceKey.stopped,fixCross_2.started,fixCross_2.stopped,certainBox_2.started,certainBox_2.stopped,outcome1Box_2.started,outcome1Box_2.stopped,outcome2Box_2.started,outcome2Box_2.stopped,certainText_2.started,certainText_2.stopped,outcome1Text_2.started,outcome1Text_2.stopped,outcome2Text_2.started,outcome2Text_2.stopped,fixCross_3.started,fixCross_3.stopped,certainBox_3.started,certainBox_3.stopped,outcome1Box_3.started,outcome1Box_3.stopped,outcome2Box_3.started,outcome2Box_3.stopped,certainText_3.started,certainText_3.stopped,outcome1Text_3.started,outcome1Text_3.stopped,outcome2Text_3.started,outcome2Text_3.stopped,fixCross_ITI.started,fixCross_ITI.stopped,fixCross_ISI.started,fixCross_ISI.stopped,happyText.started,happyText.stopped,happySlider.response,happySlider.rt,happySlider.started,happySlider.stopped,happyResp.keys,happyResp.started,happyResp.stopped,endOfBlockText.started,endOfBlockText.stopped,restKeyResp.keys,restKeyResp.rt,restKeyResp.started,restKeyResp.stopped,finalWinnings,cashBonus,goodbyeText.started,goodbyeText.stopped,finalWinningsText.started,finalWinningsText.stopped,spaceToContinue.started,spaceToContinue.stopped,goodbyeKeyResp_2.keys,goodbyeKeyResp_2.rt,goodbyeKeyResp_2.started,goodbyeKeyResp_2.stopped,participant,date,expName,psychopyVersion,frameRate,
1,black.png,"Welcome! You are about to play our gambling task.
This task has 3 blocks and takes about 15 minutes.",,,,0,0,0,0,,,,,,,,,,,,,,,,,,,,,,,,,23.068167702644132,None,23.068167702644132,None,23.068167702644132,None,4,118.99083795316983,23.068167702644132,None,,,,,,,,,,,,,,,,,,,,,,,,,,,,,,,,,,,,,,,,,,,,,,,,,,,,,,,,,,,,,,,,,,,,,,,,,,,,,,,,,,,,,,,,,,,,,,,,,,,,,,,,,,,,,,,,,,,,,,,,,,,,,,,,,,24071,2019_Aug_13_1528,Mmi_3levels,3.1.5,59.98151711687223,
2,black.png,"In this game, you may win or lose points. Your goal is to get as many points as possible. These points will be converted to a cash bonus at the end.
Sometimes we will ask you to rate your mood.",,,,0,1,1,1,,,,,,,,,,,,,,,,,,,,,,,,,142.1087801483227,None,142.1087801483227,None,142.1087801483227,None,4,2.9346385401440784,142.1087801483227,None,,,,,,,,,,,,,,,,,,,,,,,,,,,,,,,,,,,,,,,,,,,,,,,,,,,,,,,,,,,,,,,,,,,,,,,,,,,,,,,,,,,,,,,,,,,,,,,,,,,,,,,,,,,,,,,,,,,,,,,,,,,,,,,,,,24071,2019_Aug_13_1528,Mmi_3levels,3.1.5,59.98151711687223,
3,black.png,"On the next screen, please rate how you feel about your life these days. Use the LEFT (green) and RIGHT (blue) buttons to move the slider (you can press and hold them to slide gradually) and the TOP (red) button to lock in your response.
Make your rating as accurately and quickly as you can!",,,,0,2,2,2,,,,,,,,,,,,,,,,,,,,,,,,,145.0931739823427,None,145.0931739823427,None,145.0931739823427,None,4,4.41882390587125,145.0931739823427,None,,,,,,,,,,,,,,,,,,,,,,,,,,,,,,,,,,,,,,,,,,,,,,,,,,,,,,,,,,,,,,,,,,,,,,,,,,,,,,,,,,,,,,,,,,,,,,,,,,,,,,,,,,,,,,,,,,,,,,,,,,,,,,,,,,24071,2019_Aug_13_1528,Mmi_3levels,3.1.5,59.98151711687223,
,,,,,,,,,,,,,,,,,,,,,,,,,,,,,,,,,,,,,,,,,,,,149.52825553773437,None,0.31,9.6861132576596,153.5298196101794,None,4,5.669124129111879,153.5298196101794,None,,,,,,,,,,,,,,,,,,,,,,,,,,,,,,,,,,,,,,,,,,,,,,,,,,,,,,,,,,,,,,,,,,,,,,,,,,,,,,,,,,,,,,,,,,,,,,,,,,,,,,,,,,,,,,,,,,,,,,,,24071,2019_Aug_13_1528,Mmi_3levels,3.1.5,59.98151711687223,
4,black.png,"In this game you can win money by earning points according to your choices. You will decide whether to gamble a number of points or stick with a guaranteed number of points. 
Make your choice by pressing the left or right arrow key once. An example of one trial is shown on the next screen.",,,,,,,,0,0,0,0,,,,,,,,,,,,,,,,,,,,,,,,,,,,,,,,,,,,,,,,,159.26522162766196,None,159.26522162766196,None,159.26522162766196,None,4,4.151817098259926,159.26522162766196,None,,,,,,,,,,,,,,,,,,,,,,,,,,,,,,,,,,,,,,,,,,,,,,,,,,,,,,,,,,,,,,,,,,,,,,,,,,,,,,,,,,,,,,,,,,,,,,,,,,,,,,,,,,,,,,24071,2019_Aug_13_1528,Mmi_3levels,3.1.5,59.98151711687223,
5,example_start.png,"The GAMBLING OPTION will be shown on the RIGHT SIDE. 
Select this option using the RIGHT (blue) button on your keypad.",,,,,,,,0,1,1,1,,,,,,,,,,,,,,,,,,,,,,,,,,,,,,,,,,,,,,,,,163.48351148341317,None,163.48351148341317,None,163.48351148341317,None,4,3.7517086243024096,163.48351148341317,None,,,,,,,,,,,,,,,,,,,,,,,,,,,,,,,,,,,,,,,,,,,,,,,,,,,,,,,,,,,,,,,,,,,,,,,,,,,,,,,,,,,,,,,,,,,,,,,,,,,,,,,,,,,,,,24071,2019_Aug_13_1528,Mmi_3levels,3.1.5,59.98151711687223,
6,example_gamble.png,"Once you select the gambling choice, the choice you made will remain on the screen.",,,,,,,,0,2,2,2,,,,,,,,,,,,,,,,,,,,,,,,,,,,,,,,,,,,,,,,,167.26828161627054,None,167.26828161627054,None,167.26828161627054,None,4,2.751266089035198,167.26828161627054,None,,,,,,,,,,,,,,,,,,,,,,,,,,,,,,,,,,,,,,,,,,,,,,,,,,,,,,,,,,,,,,,,,,,,,,,,,,,,,,,,,,,,,,,,,,,,,,,,,,,,,,,,,,,,,,24071,2019_Aug_13_1528,Mmi_3levels,3.1.5,59.98151711687223,
7,example_win.png,"The outcome you received will then be shown on the screen. In this example , you WON 10 points.",,,,,,,,0,3,3,3,,,,,,,,,,,,,,,,,,,,,,,,,,,,,,,,,,,,,,,,,170.05268280976452,None,170.05268280976452,None,170.05268280976452,None,4,2.601316086249426,170.05268280976452,None,,,,,,,,,,,,,,,,,,,,,,,,,,,,,,,,,,,,,,,,,,,,,,,,,,,,,,,,,,,,,,,,,,,,,,,,,,,,,,,,,,,,,,,,,,,,,,,,,,,,,,,,,,,,,,24071,2019_Aug_13_1528,Mmi_3levels,3.1.5,59.98151711687223,
8,example_start.png,"The GUARANTEED OPTION will be shown on the LEFT SIDE. You are 100% guaranteed to gain or lose this amount. In this example, you have a 100% chance of winning 1 point. Select this option using the LEFT (green) button on your keyboard.",,,,,,,,0,4,4,4,,,,,,,,,,,,,,,,,,,,,,,,,,,,,,,,,,,,,,,,,172.72040541737806,None,172.72040541737806,None,172.72040541737806,None,4,1.834195205126889,172.72040541737806,None,,,,,,,,,,,,,,,,,,,,,,,,,,,,,,,,,,,,,,,,,,,,,,,,,,,,,,,,,,,,,,,,,,,,,,,,,,,,,,,,,,,,,,,,,,,,,,,,,,,,,,,,,,,,,,24071,2019_Aug_13_1528,Mmi_3levels,3.1.5,59.98151711687223,
9,example_certain.png,"Once you select the guaranteed choice, your selection will remain on the screen.",,,,,,,,0,5,5,5,,,,,,,,,,,,,,,,,,,,,,,,,,,,,,,,,,,,,,,,,174.58774084656034,None,174.58774084656034,None,174.58774084656034,None,4,1.6509856248740107,174.58774084656034,None,,,,,,,,,,,,,,,,,,,,,,,,,,,,,,,,,,,,,,,,,,,,,,,,,,,,,,,,,,,,,,,,,,,,,,,,,,,,,,,,,,,,,,,,,,,,,,,,,,,,,,,,,,,,,,24071,2019_Aug_13_1528,Mmi_3levels,3.1.5,59.98151711687223,
10,black.png,"Please make your choices as fast as possible.
You will be given a break at the end of each block.
Let's play!",,,,,,,,0,6,6,6,,,,,,,,,,,,,,,,,,,,,,,,,,,,,,,,,,,,,,,,,176.27170030481648,None,176.27170030481648,None,176.27170030481648,None,4,3.7182692169444636,176.27170030481648,None,,,,,,,,,,,,,,,,,,,,,,,,,,,,,,,,,,,,,,,,,,,,,,,,,,,,,,,,,,,,,,,,,,,,,,,,,,,,,,,,,,,,,,,,,,,,,,,,,,,,,,,,,,,,,,24071,2019_Aug_13_1528,Mmi_3levels,3.1.5,59.98151711687223,
,,,,,,,,,,,,,,,,,,,,,,,,,,,,,,,,,,,,,,,,,,,,,,,,,,,,,,,,,,,,,,,,180.00643035990652,None,space,30.145165630732663,180.00643035990652,None,,,,,,,,,,,,,,,,,,,,,,,,,,,,,,,,,,,,,,,,,,,,,,,,,,,,,,,,,,,,,,,,,,,,,,,,,,,,,,,,,,,,,,,,,,,,,,,,,,,,,,,,24071,2019_Aug_13_1528,Mmi_3levels,3.1.5,59.98151711687223,
,,,1,1,10.5,,,,,,,,,0,0,0,0,0,0,0,20,,,,,,,,,,,,,,,,,,,,,,,,,,,,,,,,,,,,,,,,,,,,,,,,,210.1679429152282,None,0.4,5.458043149556033,213.18570576049387,None,4,2.4345913428114727,213.18570576049387,None,215.63663506845478,None,True,True,True,0.4,-0.6,-0.6,9.0,10.5,1.5,0.75,gamble,win,10.5,10.5,218.67111025785562,None,218.67111025785562,None,218.67111025785562,None,218.67111025785562,None,218.67111025785562,None,218.67111025785562,None,218.67111025785562,None,1,2.9514289599610493,218.67111025785562,None,221.65563304466195,None,221.65563304466195,None,221.65563304466195,None,221.65563304466195,None,221.65563304466195,None,221.65563304466195,None,221.65563304466195,None,225.64045469462872,None,225.64045469462872,None,225.64045469462872,None,225.64045469462872,None,225.64045469462872,None,225.64045469462872,None,225.64045469462872,None,226.64081755431835,None,,,,,,,,,,,,,,,,,,,,,,,,,,,,,,24071,2019_Aug_13_1528,Mmi_3levels,3.1.5,59.98151711687223,
,,,1,1,0.7,,,,,,,,,0,0,0,0,0,1,1,5,,,,,,,,,,,,,,,,,,,,,,,,,,,,,,,,,,,,,,,,,,,,,,,,,,,,,,,,,,,,,True,True,False,0.4,-0.6,-1.2,9.6,0.7,-8.9,-4.1000000000000005,gamble,win,0.7,11.2,228.67492572416086,None,228.67492572416086,None,228.67492572416086,None,228.67492572416086,None,228.67492572416086,None,228.67492572416086,None,228.67492572416086,None,None,,228.67492572416086,None,231.67606870026793,None,231.67606870026793,None,231.67606870026793,None,231.67606870026793,None,231.67606870026793,None,231.67606870026793,None,231.67606870026793,None,235.6609025094658,None,235.6609025094658,None,235.6609025094658,None,235.6609025094658,None,235.6609025094658,None,235.6609025094658,None,235.6609025094658,None,236.66126600920688,None,,,,,,,,,,,,,,,,,,,,,,,,,,,,,,24071,2019_Aug_13_1528,Mmi_3levels,3.1.5,59.98151711687223,
,,,1,1,0.5,,,,,,,,,0,0,0,0,0,2,2,14,,,,,,,,,,,,,,,,,,,,,,,,,,,,,,,,,,,,,,,,,,,,,,,,,,,,,,,,,,,,,True,True,True,0.4,-0.6,-1.7999999999999998,10.2,0.5,-9.7,-4.6,gamble,win,0.5,11.7,238.67871879180893,None,238.67871879180893,None,238.67871879180893,None,238.67871879180893,None,238.67871879180893,None,238.67871879180893,None,238.67871879180893,None,1,0.8339996959548444,238.67871879180893,None,239.54576239734888,None,239.54576239734888,None,239.54576239734888,None,239.54576239734888,None,239.54576239734888,None,239.54576239734888,None,239.54576239734888,None,243.53055428899825,None,243.53055428899825,None,243.53055428899825,None,243.53055428899825,None,243.53055428899825,None,243.53055428899825,None,243.53055428899825,None,253.0341670466587,None,244.5309862648137,None,245.53133984503802,None,0.58,7.50276256527286,248.5324991401285,None,None,248.5324991401285,None,,,,,,,,,,,,,,,,,,,24071,2019_Aug_13_1528,Mmi_3levels,3.1.5,59.98151711687223,
,,,1,1,9.1,,,,,,,,,0,0,0,0,0,3,3,2,,,,,,,,,,,,,,,,,,,,,,,,,,,,,,,,,,,,,,,,,,,,,,,,,,,,,,,,,,,,,True,True,True,0.58,-0.42000000000000004,-2.2199999999999998,8.100000000000001,9.1,0.9999999999999982,0.4999999999999991,certain,certain,0.4999999999999991,12.2,255.05164894775953,None,255.05164894775953,None,255.05164894775953,None,255.05164894775953,None,255.05164894775953,None,255.05164894775953,None,255.05164894775953,None,3,0.8838644236093387,255.05164894775953,None,255.968610717915,None,255.968610717915,None,255.968610717915,None,255.968610717915,None,255.968610717915,None,255.968610717915,None,255.968610717915,None,259.9534534866689,None,259.9534534866689,None,259.9534534866689,None,259.9534534866689,None,259.9534534866689,None,259.9534534866689,None,259.9534534866689,None,260.95388418249786,None,,,,,,,,,,,,,,,,,,,,,,,,,,,,,,24071,2019_Aug_13_1528,Mmi_3levels,3.1.5,59.98151711687223,
,,,1,1,13.9,,,,,,,,,0,0,0,0,0,4,4,9,,,,,,,,,,,,,,,,,,,,,,,,,,,,,,,,,,,,,,,,,,,,,,,,,,,,,,,,,,,,,True,True,False,0.58,-0.42000000000000004,-2.6399999999999997,8.52,13.9,5.380000000000001,2.6900000000000004,gamble,win,13.9,26.1,262.9713094467297,None,262.9713094467297,None,262.9713094467297,None,262.9713094467297,None,262.9713094467297,None,262.9713094467297,None,262.9713094467297,None,1,0.8672467941651121,262.9713094467297,None,263.87165742728394,None,263.87165742728394,None,263.87165742728394,None,263.87165742728394,None,263.87165742728394,None,263.87165742728394,None,263.87165742728394,None,267.8565001960378,None,267.8565001960378,None,267.8565001960378,None,267.8565001960378,None,267.8565001960378,None,267.8565001960378,None,267.8565001960378,None,277.3600681562675,None,268.85682145808823,None,269.8572169558611,None,0.67,7.50270944822114,272.85840600926895,None,None,272.85840600926895,None,,,,,,,,,,,,,,,,,,,24071,2019_Aug_13_1528,Mmi_3levels,3.1.5,59.98151711687223,
,,,1,1,2.7,,,,,,,,,0,0,0,0,0,5,5,3,,,,,,,,,,,,,,,,,,,,,,,,,,,,,,,,,,,,,,,,,,,,,,,,,,,,,,,,,,,,,True,True,False,0.67,-0.32999999999999996,-2.9699999999999998,7.589999999999999,2.7,-4.889999999999999,-1.0949999999999993,gamble,win,2.7,28.8,279.37746750190854,None,279.37746750190854,None,279.37746750190854,None,279.37746750190854,None,279.37746750190854,None,279.37746750190854,None,279.37746750190854,None,1,1.250568368122913,279.37746750190854,None,280.6613197661936,None,280.6613197661936,None,280.6613197661936,None,280.6613197661936,None,280.6613197661936,None,280.6613197661936,None,280.6613197661936,None,284.6461580551695,None,284.6461580551695,None,284.6461580551695,None,284.6461580551695,None,284.6461580551695,None,284.6461580551695,None,284.6461580551695,None,285.6465858712327,None,,,,,,,,,,,,,,,,,,,,,,,,,,,,,,24071,2019_Aug_13_1528,Mmi_3levels,3.1.5,59.98151711687223,
,,,1,1,12.7,,,,,,,,,0,0,0,0,0,6,6,4,,,,,,,,,,,,,,,,,,,,,,,,,,,,,,,,,,,,,,,,,,,,,,,,,,,,,,,,,,,,,True,True,False,0.67,-0.32999999999999996,-3.3,7.919999999999999,12.7,4.78,2.39,gamble,win,12.7,41.5,287.6640213748906,None,287.6640213748906,None,287.6640213748906,None,287.6640213748906,None,287.6640213748906,None,287.6640213748906,None,287.6640213748906,None,1,1.1840255346614867,287.6640213748906,None,288.881147135864,None,288.881147135864,None,288.881147135864,None,288.881147135864,None,288.881147135864,None,288.881147135864,None,288.881147135864,None,292.86593390780035,None,292.86593390780035,None,292.86593390780035,None,292.86593390780035,None,292.86593390780035,None,292.86593390780035,None,292.86593390780035,None,293.86633036553394,None,,,,,,,,,,,,,,,,,,,,,,,,,,,,,,24071,2019_Aug_13_1528,Mmi_3levels,3.1.5,59.98151711687223,
,,,1,1,1.1,,,,,,,,,0,0,0,0,0,7,7,12,,,,,,,,,,,,,,,,,,,,,,,,,,,,,,,,,,,,,,,,,,,,,,,,,,,,,,,,,,,,,True,False,False,0.67,-0.32999999999999996,-3.63,-1.4574999999999998,1.1,-0.3574999999999997,0.3712500000000002,gamble,lose,-0.3574999999999997,41.1425,295.8837745087221,None,295.8837745087221,None,295.8837745087221,None,295.8837745087221,None,295.8837745087221,None,295.8837745087221,None,295.8837745087221,None,1,1.61751133936923,295.8837745087221,None,297.534386394429,None,297.534386394429,None,297.534386394429,None,297.534386394429,None,297.534386394429,None,297.534386394429,None,297.534386394429,None,301.5359085492091,None,301.5359085492091,None,301.5359085492091,None,301.5359085492091,None,301.5359085492091,None,301.5359085492091,None,301.5359085492091,None,311.0228444808163,None,302.5196349004982,None,303.5199993600836,None,0.43,7.50276256527286,306.52111929736566,None,None,306.52111929736566,None,,,,,,,,,,,,,,,,,,,24071,2019_Aug_13_1528,Mmi_3levels,3.1.5,59.98151711687223,
,,,1,1,11.1,,,,,,,,,0,0,0,0,0,8,8,17,,,,,,,,,,,,,,,,,,,,,,,,,,,,,,,,,,,,,,,,,,,,,,,,,,,,,,,,,,,,,True,True,True,0.43,-0.5700000000000001,-4.2,12.18,11.1,-1.08,-0.54,gamble,win,11.1,52.2425,313.06155687291175,None,313.06155687291175,None,313.06155687291175,None,313.06155687291175,None,313.06155687291175,None,313.06155687291175,None,313.06155687291175,None,1,1.2961747742956504,313.06155687291175,None,314.3908334734151,None,314.3908334734151,None,314.3908334734151,None,314.3908334734151,None,314.3908334734151,None,314.3908334734151,None,314.3908334734151,None,318.3923073108308,None,318.3923073108308,None,318.3923073108308,None,318.3923073108308,None,318.3923073108308,None,318.3923073108308,None,318.3923073108308,None,319.3760611806065,None,,,,,,,,,,,,,,,,,,,,,,,,,,,,,,24071,2019_Aug_13_1528,Mmi_3levels,3.1.5,59.98151711687223,
,,,1,1,7.7,,,,,,,,,0,0,0,0,0,9,9,13,,,,,,,,,,,,,,,,,,,,,,,,,,,,,,,,,,,,,,,,,,,,,,,,,,,,,,,,,,,,,True,True,False,0.43,-0.5700000000000001,-4.7700000000000005,12.75,7.7,-5.05,1.3250000000000002,certain,certain,1.3250000000000002,53.5675,321.39345924637746,None,321.39345924637746,None,321.39345924637746,None,321.39345924637746,None,321.39345924637746,None,321.39345924637746,None,321.39345924637746,None,3,1.6841716064373031,321.39345924637746,None,323.11078675603494,None,323.11078675603494,None,323.11078675603494,None,323.11078675603494,None,323.11078675603494,None,323.11078675603494,None,323.11078675603494,None,327.09565064357594,None,327.09565064357594,None,327.09565064357594,None,327.09565064357594,None,327.09565064357594,None,327.09565064357594,None,327.09565064357594,None,336.5992125241319,None,328.0960435816087,None,329.09639108215924,None,0.56,7.502726087346673,332.0975522971712,None,None,332.0975522971712,None,,,,,,,,,,,,,,,,,,,24071,2019_Aug_13_1528,Mmi_3levels,3.1.5,59.98151711687223,
,,,1,1,10.3,,,,,,,,,0,0,0,0,0,10,10,0,,,,,,,,,,,,,,,,,,,,,,,,,,,,,,,,,,,,,,,,,,,,,,,,,,,,,,,,,,,,,True,True,True,0.56,-0.43999999999999995,-5.210000000000001,11.370000000000001,10.3,-1.0700000000000003,-0.5350000000000001,gamble,win,10.3,63.86750000000001,338.6166352285072,None,338.6166352285072,None,338.6166352285072,None,338.6166352285072,None,338.6166352285072,None,338.6166352285072,None,338.6166352285072,None,1,1.5008292335551232,338.6166352285072,None,340.1505672483472,None,340.1505672483472,None,340.1505672483472,None,340.1505672483472,None,340.1505672483472,None,340.1505672483472,None,340.1505672483472,None,344.1521351605188,None,344.1521351605188,None,344.1521351605188,None,344.1521351605188,None,344.1521351605188,None,344.1521351605188,None,344.1521351605188,None,345.1358413529815,None,,,,,,,,,,,,,,,,,,,,,,,,,,,,,,24071,2019_Aug_13_1528,Mmi_3levels,3.1.5,59.98151711687223,
,,,1,1,10.7,,,,,,,,,0,0,0,0,0,11,11,1,,,,,,,,,,,,,,,,,,,,,,,,,,,,,,,,,,,,,,,,,,,,,,,,,,,,,,,,,,,,,True,True,False,0.56,-0.43999999999999995,-5.65,11.809999999999999,10.7,-1.1099999999999994,-0.5549999999999997,gamble,win,10.7,74.56750000000001,347.1532032606192,None,347.1532032606192,None,347.1532032606192,None,347.1532032606192,None,347.1532032606192,None,347.1532032606192,None,347.1532032606192,None,1,1.43412320909556,347.1532032606192,None,348.6204519747989,None,348.6204519747989,None,348.6204519747989,None,348.6204519747989,None,348.6204519747989,None,348.6204519747989,None,348.6204519747989,None,352.6052857839968,None,352.6052857839968,None,352.6052857839968,None,352.6052857839968,None,352.6052857839968,None,352.6052857839968,None,352.6052857839968,None,362.1089036614867,None,353.60565632325597,None,354.6060188630363,None,0.7,7.502859839936718,357.6071922372794,None,None,357.6071922372794,None,,,,,,,,,,,,,,,,,,,24071,2019_Aug_13_1528,Mmi_3levels,3.1.5,59.98151711687223,
,,,1,1,-0.7,,,,,,,,,0,0,0,0,0,12,12,16,,,,,,,,,,,,,,,,,,,,,,,,,,,,,,,,,,,,,,,,,,,,,,,,,,,,,,,,,,,,,True,True,False,0.7,-0.30000000000000004,-5.95,10.150000000000002,-0.7,-10.850000000000001,-5.775,gamble,win,-0.7,73.8675,364.1476333326427,None,364.1476333326427,None,364.1476333326427,None,364.1476333326427,None,364.1476333326427,None,364.1476333326427,None,364.1476333326427,None,None,,364.1476333326427,None,367.1441903254017,None,367.1441903254017,None,367.1441903254017,None,367.1441903254017,None,367.1441903254017,None,367.1441903254017,None,367.1441903254017,None,371.14568272186443,None,371.14568272186443,None,371.14568272186443,None,371.14568272186443,None,371.14568272186443,None,371.14568272186443,None,371.14568272186443,None,372.1293901941972,None,,,,,,,,,,,,,,,,,,,,,,,,,,,,,,24071,2019_Aug_13_1528,Mmi_3levels,3.1.5,59.98151711687223,
,,,1,1,11.3,,,,,,,,,0,0,0,0,0,13,13,6,,,,,,,,,,,,,,,,,,,,,,,,,,,,,,,,,,,,,,,,,,,,,,,,,,,,,,,,,,,,,True,False,False,0.7,-0.30000000000000004,-6.25,-1.5708333333333337,11.3,9.729166666666668,4.864583333333334,certain,certain,4.864583333333334,78.73208333333334,374.1468080987688,None,374.1468080987688,None,374.1468080987688,None,374.1468080987688,None,374.1468080987688,None,374.1468080987688,None,374.1468080987688,None,3,0.6171337605919689,374.1468080987688,None,374.797050085268,None,374.797050085268,None,374.797050085268,None,374.797050085268,None,374.797050085268,None,374.797050085268,None,374.797050085268,None,378.798609677935,None,378.798609677935,None,378.798609677935,None,378.798609677935,None,378.798609677935,None,378.798609677935,None,378.798609677935,None,379.78231459041126,None,,,,,,,,,,,,,,,,,,,,,,,,,,,,,,24071,2019_Aug_13_1528,Mmi_3levels,3.1.5,59.98151711687223,
,,,1,1,4.5,,,,,,,,,0,0,0,0,0,14,14,25,,,,,,,,,,,,,,,,,,,,,,,,,,,,,,,,,,,,,,,,,,,,,,,,,,,,,,,,,,,,,True,False,True,0.7,-0.30000000000000004,-6.55,-1.5958333333333337,4.5,2.9041666666666663,1.4520833333333332,gamble,lose,2.9041666666666663,81.63625,381.7996912173694,None,381.7996912173694,None,381.7996912173694,None,381.7996912173694,None,381.7996912173694,None,381.7996912173694,None,381.7996912173694,None,1,1.0507027606945485,381.7996912173694,None,382.8834990040632,None,382.8834990040632,None,382.8834990040632,None,382.8834990040632,None,382.8834990040632,None,382.8834990040632,None,382.8834990040632,None,386.8683350533247,None,386.8683350533247,None,386.8683350533247,None,386.8683350533247,None,386.8683350533247,None,386.8683350533247,None,386.8683350533247,None,396.3719494108809,None,387.86872863129247,None,388.869056932861,None,0.67,7.5027379266684875,391.87023862672504,None,None,391.87023862672504,None,,,,,,,,,,,,,,,,,,,24071,2019_Aug_13_1528,Mmi_3levels,3.1.5,59.98151711687223,
,,,1,1,9.5,,,,,,,,,0,0,0,0,0,15,15,11,,,,,,,,,,,,,,,,,,,,,,,,,,,,,,,,,,,,,,,,,,,,,,,,,,,,,,,,,,,,,True,True,True,0.67,-0.32999999999999996,-6.88,11.5,9.5,-2.0,-1.0,gamble,win,9.5,91.13625,398.3893173983088,None,398.3893173983088,None,398.3893173983088,None,398.3893173983088,None,398.3893173983088,None,398.3893173983088,None,398.3893173983088,None,1,1.250788515782915,398.3893173983088,None,399.67315782327205,None,399.67315782327205,None,399.67315782327205,None,399.67315782327205,None,399.67315782327205,None,399.67315782327205,None,399.67315782327205,None,403.65805402898695,None,403.65805402898695,None,403.65805402898695,None,403.65805402898695,None,403.65805402898695,None,403.65805402898695,None,403.65805402898695,None,404.6584245682461,None,,,,,,,,,,,,,,,,,,,,,,,,,,,,,,24071,2019_Aug_13_1528,Mmi_3levels,3.1.5,59.98151711687223,
,,,1,1,2.9,,,,,,,,,0,0,0,0,0,16,16,24,,,,,,,,,,,,,,,,,,,,,,,,,,,,,,,,,,,,,,,,,,,,,,,,,,,,,,,,,,,,,True,True,False,0.67,-0.32999999999999996,-7.21,11.829999999999998,2.9,-8.929999999999998,-3.014999999999999,certain,certain,-3.014999999999999,88.12125,406.67586775147356,None,406.67586775147356,None,406.67586775147356,None,406.67586775147356,None,406.67586775147356,None,406.67586775147356,None,406.67586775147356,None,3,1.6007836360950023,406.67586775147356,None,408.3097554537235,None,408.3097554537235,None,408.3097554537235,None,408.3097554537235,None,408.3097554537235,None,408.3097554537235,None,408.3097554537235,None,412.3112894478254,None,412.3112894478254,None,412.3112894478254,None,412.3112894478254,None,412.3112894478254,None,412.3112894478254,None,412.3112894478254,None,421.7982240995625,None,413.29505131719634,None,414.29537705890834,None,0.42,7.5027136080898345,417.29651395522524,None,None,417.29651395522524,None,,,,,,,,,,,,,,,,,,,24071,2019_Aug_13_1528,Mmi_3levels,3.1.5,59.98151711687223,
,,,1,1,6.1,,,,,,,,,0,0,0,0,0,17,17,7,,,,,,,,,,,,,,,,,,,,,,,,,,,,,,,,,,,,,,,,,,,,,,,,,,,,,,,,,,,,,True,False,False,0.42,-0.5800000000000001,-7.79,-2.679166666666667,6.1,3.4208333333333325,1.7104166666666663,gamble,lose,3.4208333333333325,91.54208333333334,423.81565864314325,None,423.81565864314325,None,423.81565864314325,None,423.81565864314325,None,423.81565864314325,None,423.81565864314325,None,423.81565864314325,None,1,1.017361587844789,423.81565864314325,None,424.86608045955654,None,424.86608045955654,None,424.86608045955654,None,424.86608045955654,None,424.86608045955654,None,424.86608045955654,None,424.86608045955654,None,428.86758885509335,None,428.86758885509335,None,428.86758885509335,None,428.86758885509335,None,428.86758885509335,None,428.86758885509335,None,428.86758885509335,None,429.8512643292779,None,,,,,,,,,,,,,,,,,,,,,,,,,,,,,,24071,2019_Aug_13_1528,Mmi_3levels,3.1.5,59.98151711687223,
,,,1,1,3.5,,,,,,,,,0,0,0,0,0,18,18,22,,,,,,,,,,,,,,,,,,,,,,,,,,,,,,,,,,,,,,,,,,,,,,,,,,,,,,,,,,,,,True,True,False,0.42,-0.5800000000000001,-8.370000000000001,16.490000000000002,3.5,-12.990000000000002,-4.745000000000001,gamble,win,3.5,95.04208333333334,431.86869151331484,None,431.86869151331484,None,431.86869151331484,None,431.86869151331484,None,431.86869151331484,None,431.86869151331484,None,431.86869151331484,None,1,1.250755877699703,431.86869151331484,None,433.15255113714375,None,433.15255113714375,None,433.15255113714375,None,433.15255113714375,None,433.15255113714375,None,433.15255113714375,None,433.15255113714375,None,437.137374707032,None,437.137374707032,None,437.137374707032,None,437.137374707032,None,437.137374707032,None,437.137374707032,None,437.137374707032,None,438.1378102026647,None,,,,,,,,,,,,,,,,,,,,,,,,,,,,,,24071,2019_Aug_13_1528,Mmi_3levels,3.1.5,59.98151711687223,
,,,1,1,8.5,,,,,,,,,0,0,0,0,0,19,19,15,,,,,,,,,,,,,,,,,,,,,,,,,,,,,,,,,,,,,,,,,,,,,,,,,,,,,,,,,,,,,True,True,False,0.42,-0.5800000000000001,-8.950000000000001,17.07,8.5,-8.57,-0.03500000000000014,certain,certain,-0.03500000000000014,95.00708333333334,440.1552073084749,None,440.1552073084749,None,440.1552073084749,None,440.1552073084749,None,440.1552073084749,None,440.1552073084749,None,440.1552073084749,None,3,2.1511457758024335,440.1552073084749,None,442.33935315627605,None,442.33935315627605,None,442.33935315627605,None,442.33935315627605,None,442.33935315627605,None,442.33935315627605,None,442.33935315627605,None,446.3242368827341,None,446.3242368827341,None,446.3242368827341,None,446.3242368827341,None,446.3242368827341,None,446.3242368827341,None,446.3242368827341,None,455.8277741246857,None,447.32459494273644,None,448.3250045197783,None,0.46,7.502661130973138,451.3260684602428,None,None,451.3260684602428,None,,,,,,,,,,,,,,,,,,,24071,2019_Aug_13_1528,Mmi_3levels,3.1.5,59.98151711687223,
,,,1,1,11.7,,,,,,,,,0,0,0,0,0,20,20,8,,,,,,,,,,,,,,,,,,,,,,,,,,,,,,,,,,,,,,,,,,,,,,,,,,,,,,,,,,,,,True,False,False,0.46,-0.54,-9.490000000000002,-2.6808333333333336,11.7,9.019166666666665,4.509583333333333,gamble,lose,9.019166666666665,104.02625,457.84525250596926,None,457.84525250596926,None,457.84525250596926,None,457.84525250596926,None,457.84525250596926,None,457.84525250596926,None,457.84525250596926,None,1,1.1006350044626743,457.84525250596926,None,458.9789864568738,None,458.9789864568738,None,458.9789864568738,None,458.9789864568738,None,458.9789864568738,None,458.9789864568738,None,458.9789864568738,None,462.9638157864101,None,462.9638157864101,None,462.9638157864101,None,462.9638157864101,None,462.9638157864101,None,462.9638157864101,None,462.9638157864101,None,463.9642621614039,None,,,,,,,,,,,,,,,,,,,,,,,,,,,,,,24071,2019_Aug_13_1528,Mmi_3levels,3.1.5,59.98151711687223,
,,,1,1,10.9,,,,,,,,,0,0,0,0,0,21,21,19,,,,,,,,,,,,,,,,,,,,,,,,,,,,,,,,,,,,,,,,,,,,,,,,,,,,,,,,,,,,,True,True,False,0.46,-0.54,-10.030000000000001,17.590000000000003,10.9,-6.690000000000003,-3.3450000000000015,gamble,win,10.9,114.92625000000001,465.9816384683363,None,465.9816384683363,None,465.9816384683363,None,465.9816384683363,None,465.9816384683363,None,465.9816384683363,None,465.9816384683363,None,1,1.951020022854209,465.9816384683363,None,467.9658118345542,None,467.9658118345542,None,467.9658118345542,None,467.9658118345542,None,467.9658118345542,None,467.9658118345542,None,467.9658118345542,None,471.96725911356043,None,471.96725911356043,None,471.96725911356043,None,471.96725911356043,None,471.96725911356043,None,471.96725911356043,None,471.96725911356043,None,481.45418288582005,None,472.95099282450974,None,473.95135984395165,None,0.57,7.502799683250487,476.95256073668133,None,None,476.95256073668133,None,,,,,,,,,,,,,,,,,,,24071,2019_Aug_13_1528,Mmi_3levels,3.1.5,59.98151711687223,
,,,1,1,5.3,,,,,,,,,0,0,0,0,0,22,22,26,,,,,,,,,,,,,,,,,,,,,,,,,,,,,,,,,,,,,,,,,,,,,,,,,,,,,,,,,,,,,True,True,True,0.57,-0.43000000000000005,-10.46,16.48,5.3,-11.18,-2.94,gamble,win,5.3,120.22625000000001,483.49297879321966,None,483.49297879321966,None,483.49297879321966,None,483.49297879321966,None,483.49297879321966,None,483.49297879321966,None,483.49297879321966,None,1,2.4465138752711937,483.49297879321966,None,485.9726456919452,None,485.9726456919452,None,485.9726456919452,None,485.9726456919452,None,485.9726456919452,None,485.9726456919452,None,485.9726456919452,None,489.97407921159174,None,489.97407921159174,None,489.97407921159174,None,489.97407921159174,None,489.97407921159174,None,489.97407921159174,None,489.97407921159174,None,490.957812282606,None,,,,,,,,,,,,,,,,,,,,,,,,,,,,,,24071,2019_Aug_13_1528,Mmi_3levels,3.1.5,59.98151711687223,
,,,1,1,2.3,,,,,,,,,0,0,0,0,0,23,23,21,,,,,,,,,,,,,,,,,,,,,,,,,,,,,,,,,,,,,,,,,,,,,,,,,,,,,,,,,,,,,True,True,True,0.57,-0.43000000000000005,-10.89,16.91,2.3,-14.61,-6.154999999999999,gamble,win,2.3,122.52625,492.97521610790864,None,492.97521610790864,None,492.97521610790864,None,492.97521610790864,None,492.97521610790864,None,492.97521610790864,None,492.97521610790864,None,1,2.001041221781634,492.97521610790864,None,495.00934891647194,None,495.00934891647194,None,495.00934891647194,None,495.00934891647194,None,495.00934891647194,None,495.00934891647194,None,495.00934891647194,None,499.01088259066455,None,499.01088259066455,None,499.01088259066455,None,499.01088259066455,None,499.01088259066455,None,499.01088259066455,None,499.01088259066455,None,508.4977708448423,None,499.9945689442102,None,500.9949526026612,None,0.54,7.502686409512535,503.9961077379994,None,None,503.9961077379994,None,,,,,,,,,,,,,,,,,,,24071,2019_Aug_13_1528,Mmi_3levels,3.1.5,59.98151711687223,
,,,1,1,6.9,,,,,,,,,0,0,0,0,0,24,24,23,,,,,,,,,,,,,,,,,,,,,,,,,,,,,,,,,,,,,,,,,,,,,,,,,,,,,,,,,,,,,True,False,False,0.54,-0.45999999999999996,-11.350000000000001,-2.555833333333333,6.9,4.344166666666667,2.1720833333333336,gamble,lose,4.344166666666667,126.87041666666667,510.51520506863017,None,510.51520506863017,None,510.51520506863017,None,510.51520506863017,None,510.51520506863017,None,510.51520506863017,None,510.51520506863017,None,1,1.934372315183282,510.51520506863017,None,512.4826612910256,None,512.4826612910256,None,512.4826612910256,None,512.4826612910256,None,512.4826612910256,None,512.4826612910256,None,512.4826612910256,None,516.4841322486755,None,516.4841322486755,None,516.4841322486755,None,516.4841322486755,None,516.4841322486755,None,516.4841322486755,None,516.4841322486755,None,517.4679149168078,None,,,,,,,,,,,,,,,,,,,,,,,,,,,,,,24071,2019_Aug_13_1528,Mmi_3levels,3.1.5,59.98151711687223,
,,,1,1,4.1,,,,,,,,,0,0,0,0,0,25,25,10,,,,,,,,,,,,,,,,,,,,,,,,,,,,,,,,,,,,,,,,,,,,,,,,,,,,,,,,,,,,,True,False,True,0.54,-0.45999999999999996,-11.810000000000002,-2.5941666666666667,4.1,1.505833333333333,0.7529166666666665,gamble,lose,1.505833333333333,128.37625,519.4852816242492,None,519.4852816242492,None,519.4852816242492,None,519.4852816242492,None,519.4852816242492,None,519.4852816242492,None,519.4852816242492,None,1,0.9007006007013842,519.4852816242492,None,520.4189560585655,None,520.4189560585655,None,520.4189560585655,None,520.4189560585655,None,520.4189560585655,None,520.4189560585655,None,520.4189560585655,None,524.4038487445796,None,524.4038487445796,None,524.4038487445796,None,524.4038487445796,None,524.4038487445796,None,524.4038487445796,None,524.4038487445796,None,525.4041943252087,None,,,,,,,,,,,,,,,,,,,,,,,,,,,,,,24071,2019_Aug_13_1528,Mmi_3levels,3.1.5,59.98151711687223,
,,,1,1,3.1,,,,,,,,,0,0,0,0,0,26,26,18,,,,,,,,,,,,,,,,,,,,,,,,,,,,,,,,,,,,,,,,,,,,,,,,,,,,,,,,,,,,,True,True,False,0.54,-0.45999999999999996,-12.270000000000003,18.71,3.1,-15.610000000000001,-6.255000000000001,gamble,win,3.1,131.47625,527.4216237490764,None,527.4216237490764,None,527.4216237490764,None,527.4216237490764,None,527.4216237490764,None,527.4216237490764,None,527.4216237490764,None,1,2.367848520516418,527.4216237490764,None,529.8225299384212,None,529.8225299384212,None,529.8225299384212,None,529.8225299384212,None,529.8225299384212,None,529.8225299384212,None,529.8225299384212,None,533.8240408938145,None,533.8240408938145,None,533.8240408938145,None,533.8240408938145,None,533.8240408938145,None,533.8240408938145,None,533.8240408938145,None,543.3110213028267,None,534.807749326108,None,535.8082401786232,None,0.39,7.502657931181602,538.8093210781226,None,None,538.8093210781226,None,,,,,,,,,,,,,,,,,,,24071,2019_Aug_13_1528,Mmi_3levels,3.1.5,59.98151711687223,
,,,2,0,-1.5,,,,,,,,,0,1,1,1,0,0,0,24,,,,,,,,,,,,,,,,,,,,,,,,,,,,,,,,,,,,,,,,,,,,,,,,,559.0503123825183,None,0.35,7.5016365483170375,562.0681440240005,None,None,,562.0681440240005,None,566.5531597430818,None,False,False,False,0.35,0.35,0.35,1.2541666666666664,-0.375,-1.6291666666666664,-1.0020833333333332,certain,certain,-1.0020833333333332,130.47416666666666,569.5876272529131,None,569.5876272529131,None,569.5876272529131,None,569.5876272529131,None,569.5876272529131,None,569.5876272529131,None,569.5876272529131,None,3,2.3509934643516317,569.5876272529131,None,571.971882534679,None,571.971882534679,None,571.971882534679,None,571.971882534679,None,571.971882534679,None,571.971882534679,None,571.971882534679,None,575.9567477022065,None,575.9567477022065,None,575.9567477022065,None,575.9567477022065,None,575.9567477022065,None,575.9567477022065,None,575.9567477022065,None,576.9571102418704,None,,,,,,,,,,,,545.3117844600929,None,4,13.722186117549427,545.3117844600929,None,,,,,,,,,,,,,24071,2019_Aug_13_1528,Mmi_3levels,3.1.5,59.98151711687223,
,,,2,0,5.7,,,,,,,,,0,1,1,1,0,1,1,5,,,,,,,,,,,,,,,,,,,,,,,,,,,,,,,,,,,,,,,,,,,,,,,,,,,,,,,,,,,,,False,True,True,0.35,0.35,0.7,-5.6,1.425,-4.175,-1.375,gamble,lose,-4.175,126.29916666666666,578.9745124673937,None,578.9745124673937,None,578.9745124673937,None,578.9745124673937,None,578.9745124673937,None,578.9745124673937,None,578.9745124673937,None,1,0.9175751758739352,578.9745124673937,None,579.9249542825855,None,579.9249542825855,None,579.9249542825855,None,579.9249542825855,None,579.9249542825855,None,579.9249542825855,None,579.9249542825855,None,583.9263919621008,None,583.9263919621008,None,583.9263919621008,None,583.9263919621008,None,583.9263919621008,None,583.9263919621008,None,583.9263919621008,None,593.4133653315948,None,584.9101496717194,None,585.9104792532744,None,0.32,7.502812482533045,588.911613269709,None,None,588.911613269709,None,,,,,,,,,,,,,,,,,,,24071,2019_Aug_13_1528,Mmi_3levels,3.1.5,59.98151711687223,
,,,2,0,6.1,,,,,,,,,0,1,1,1,0,2,2,19,,,,,,,,,,,,,,,,,,,,,,,,,,,,,,,,,,,,,,,,,,,,,,,,,,,,,,,,,,,,,False,False,False,0.32,0.32,1.02,1.205,1.525,0.31999999999999984,0.9224999999999999,gamble,win,1.525,127.82416666666667,595.4307688369881,None,595.4307688369881,None,595.4307688369881,None,595.4307688369881,None,595.4307688369881,None,595.4307688369881,None,595.4307688369881,None,1,1.4007669971324503,595.4307688369881,None,596.8647189358016,None,596.8647189358016,None,596.8647189358016,None,596.8647189358016,None,596.8647189358016,None,596.8647189358016,None,596.8647189358016,None,600.8494820290944,None,600.8494820290944,None,600.8494820290944,None,600.8494820290944,None,600.8494820290944,None,600.8494820290944,None,600.8494820290944,None,601.8499044054188,None,,,,,,,,,,,,,,,,,,,,,,,,,,,,,,24071,2019_Aug_13_1528,Mmi_3levels,3.1.5,59.98151711687223,
,,,2,0,12.3,,,,,,,,,0,1,1,1,0,3,3,23,,,,,,,,,,,,,,,,,,,,,,,,,,,,,,,,,,,,,,,,,,,,,,,,,,,,,,,,,,,,,False,False,False,0.32,0.32,1.34,1.2316666666666667,3.075,1.8433333333333335,0.9216666666666667,gamble,win,3.075,130.89916666666667,603.867291911738,None,603.867291911738,None,603.867291911738,None,603.867291911738,None,603.867291911738,None,603.867291911738,None,603.867291911738,None,1,1.0175682961707935,603.867291911738,None,604.9011056980817,None,604.9011056980817,None,604.9011056980817,None,604.9011056980817,None,604.9011056980817,None,604.9011056980817,None,604.9011056980817,None,608.9025379379746,None,608.9025379379746,None,608.9025379379746,None,608.9025379379746,None,608.9025379379746,None,608.9025379379746,None,608.9025379379746,None,618.4061948531307,None,609.9029452750692,None,610.9033090947196,None,0.42,7.502815682324581,613.9044779893011,None,None,613.9044779893011,None,,,,,,,,,,,,,,,,,,,24071,2019_Aug_13_1528,Mmi_3levels,3.1.5,59.98151711687223,
,,,2,0,10.7,,,,,,,,,0,1,1,1,0,4,4,26,,,,,,,,,,,,,,,,,,,,,,,,,,,,,,,,,,,,,,,,,,,,,,,,,,,,,,,,,,,,,False,True,False,0.42,0.42,1.76,-7.64,2.675,-4.965,-1.145,gamble,lose,-4.965,125.93416666666667,620.4235778796719,None,620.4235778796719,None,620.4235778796719,None,620.4235778796719,None,620.4235778796719,None,620.4235778796719,None,620.4235778796719,None,1,1.1341944050509483,620.4235778796719,None,621.5906846816652,None,621.5906846816652,None,621.5906846816652,None,621.5906846816652,None,621.5906846816652,None,621.5906846816652,None,621.5906846816652,None,625.5922535539139,None,625.5922535539139,None,625.5922535539139,None,625.5922535539139,None,625.5922535539139,None,625.5922535539139,None,625.5922535539139,None,626.5759507868206,None,,,,,,,,,,,,,,,,,,,,,,,,,,,,,,24071,2019_Aug_13_1528,Mmi_3levels,3.1.5,59.98151711687223,
,,,2,0,8.9,,,,,,,,,0,1,1,1,0,5,5,14,,,,,,,,,,,,,,,,,,,,,,,,,,,,,,,,,,,,,,,,,,,,,,,,,,,,,,,,,,,,,False,True,True,0.42,0.42,2.18,-8.06,2.225,-5.835000000000001,-1.8050000000000004,gamble,lose,-5.835000000000001,120.09916666666666,628.5933158943662,None,628.5933158943662,None,628.5933158943662,None,628.5933158943662,None,628.5933158943662,None,628.5933158943662,None,628.5933158943662,None,1,0.9507486780639738,628.5933158943662,None,629.5771340805804,None,629.5771340805804,None,629.5771340805804,None,629.5771340805804,None,629.5771340805804,None,629.5771340805804,None,629.5771340805804,None,633.5619435711997,None,633.5619435711997,None,633.5619435711997,None,633.5619435711997,None,633.5619435711997,None,633.5619435711997,None,633.5619435711997,None,634.5623246699106,None,,,,,,,,,,,,,,,,,,,,,,,,,,,,,,24071,2019_Aug_13_1528,Mmi_3levels,3.1.5,59.98151711687223,
,,,2,0,10.9,,,,,,,,,0,1,1,1,0,6,6,4,,,,,,,,,,,,,,,,,,,,,,,,,,,,,,,,,,,,,,,,,,,,,,,,,,,,,,,,,,,,,False,False,True,0.42,0.42,2.6,1.6866666666666665,2.725,1.0383333333333336,1.8816666666666668,gamble,win,2.725,122.82416666666666,636.5797736127861,None,636.5797736127861,None,636.5797736127861,None,636.5797736127861,None,636.5797736127861,None,636.5797736127861,None,636.5797736127861,None,1,1.2842442423570901,636.5797736127861,None,637.8968752149958,None,637.8968752149958,None,637.8968752149958,None,637.8968752149958,None,637.8968752149958,None,637.8968752149958,None,637.8968752149958,None,641.8817627812969,None,641.8817627812969,None,641.8817627812969,None,641.8817627812969,None,641.8817627812969,None,641.8817627812969,None,641.8817627812969,None,651.3853365011746,None,642.8820968426298,None,643.8824792212108,None,0.41,7.502705928403884,646.8836669947486,None,None,646.8836669947486,None,,,,,,,,,,,,,,,,,,,24071,2019_Aug_13_1528,Mmi_3levels,3.1.5,59.98151711687223,
,,,2,0,7.1,,,,,,,,,0,1,1,1,0,7,7,2,,,,,,,,,,,,,,,,,,,,,,,,,,,,,,,,,,,,,,,,,,,,,,,,,,,,,,,,,,,,,False,False,True,0.41,0.41,3.0100000000000002,1.685833333333333,1.775,0.08916666666666684,0.9320833333333334,gamble,win,1.775,124.59916666666666,653.4240597727476,None,653.4240597727476,None,653.4240597727476,None,653.4240597727476,None,653.4240597727476,None,653.4240597727476,None,653.4240597727476,None,1,0.9794296319596469,653.4240597727476,None,654.4365317142801,None,654.4365317142801,None,654.4365317142801,None,654.4365317142801,None,654.4365317142801,None,654.4365317142801,None,654.4365317142801,None,658.4213764029555,None,658.4213764029555,None,658.4213764029555,None,658.4213764029555,None,658.4213764029555,None,658.4213764029555,None,658.4213764029555,None,659.4217111042235,None,,,,,,,,,,,,,,,,,,,,,,,,,,,,,,24071,2019_Aug_13_1528,Mmi_3levels,3.1.5,59.98151711687223,
,,,2,0,13.3,,,,,,,,,0,1,1,1,0,8,8,22,,,,,,,,,,,,,,,,,,,,,,,,,,,,,,,,,,,,,,,,,,,,,,,,,,,,,,,,,,,,,False,True,False,0.41,0.41,3.4200000000000004,-9.16,3.325,-5.835,-1.255,gamble,lose,-5.835,118.76416666666667,661.439149807673,None,661.439149807673,None,661.439149807673,None,661.439149807673,None,661.439149807673,None,661.439149807673,None,661.439149807673,None,1,2.0677328469464555,661.439149807673,None,663.5399857608136,None,663.5399857608136,None,663.5399857608136,None,663.5399857608136,None,663.5399857608136,None,663.5399857608136,None,663.5399857608136,None,667.5414583183592,None,667.5414583183592,None,667.5414583183592,None,667.5414583183592,None,667.5414583183592,None,667.5414583183592,None,667.5414583183592,None,677.028470085701,None,668.5252134681214,None,669.5255968066631,None,0.36,7.502637132303789,672.5267260234104,None,None,672.5267260234104,None,,,,,,,,,,,,,,,,,,,24071,2019_Aug_13_1528,Mmi_3levels,3.1.5,59.98151711687223,
,,,2,0,6.7,,,,,,,,,0,1,1,1,0,9,9,17,,,,,,,,,,,,,,,,,,,,,,,,,,,,,,,,,,,,,,,,,,,,,,,,,,,,,,,,,,,,,False,False,True,0.36,0.36,3.7800000000000002,1.575,1.675,0.10000000000000009,0.8875000000000001,gamble,win,1.675,120.43916666666667,679.0458377531031,None,679.0458377531031,None,679.0458377531031,None,679.0458377531031,None,679.0458377531031,None,679.0458377531031,None,679.0458377531031,None,1,0.7672133560990915,679.0458377531031,None,679.8461394961923,None,679.8461394961923,None,679.8461394961923,None,679.8461394961923,None,679.8461394961923,None,679.8461394961923,None,679.8461394961923,None,683.8310325022321,None,683.8310325022321,None,683.8310325022321,None,683.8310325022321,None,683.8310325022321,None,683.8310325022321,None,683.8310325022321,None,684.8313515243353,None,,,,,,,,,,,,,,,,,,,,,,,,,,,,,,24071,2019_Aug_13_1528,Mmi_3levels,3.1.5,59.98151711687223,
,,,2,0,9.5,,,,,,,,,0,1,1,1,0,10,10,1,,,,,,,,,,,,,,,,,,,,,,,,,,,,,,,,,,,,,,,,,,,,,,,,,,,,,,,,,,,,,False,False,True,0.36,0.36,4.140000000000001,1.605,2.375,0.77,1.5725,gamble,win,2.375,122.81416666666667,686.8487953474978,None,686.8487953474978,None,686.8487953474978,None,686.8487953474978,None,686.8487953474978,None,686.8487953474978,None,686.8487953474978,None,1,1.051132176653482,686.8487953474978,None,687.9325784957036,None,687.9325784957036,None,687.9325784957036,None,687.9325784957036,None,687.9325784957036,None,687.9325784957036,None,687.9325784957036,None,691.9174164647702,None,691.9174164647702,None,691.9174164647702,None,691.9174164647702,None,691.9174164647702,None,691.9174164647702,None,691.9174164647702,None,692.9177684449824,None,,,,,,,,,,,,,,,,,,,,,,,,,,,,,,24071,2019_Aug_13_1528,Mmi_3levels,3.1.5,59.98151711687223,
,,,2,0,11.1,,,,,,,,,0,1,1,1,0,11,11,20,,,,,,,,,,,,,,,,,,,,,,,,,,,,,,,,,,,,,,,,,,,,,,,,,,,,,,,,,,,,,False,True,False,0.36,0.36,4.500000000000001,-9.540000000000001,2.775,-6.765000000000001,-1.9950000000000003,gamble,lose,-6.765000000000001,116.04916666666666,694.9352212277008,None,694.9352212277008,None,694.9352212277008,None,694.9352212277008,None,694.9352212277008,None,694.9352212277008,None,694.9352212277008,None,1,2.06770244857762,694.9352212277008,None,697.0360344621586,None,697.0360344621586,None,697.0360344621586,None,697.0360344621586,None,697.0360344621586,None,697.0360344621586,None,697.0360344621586,None,701.0208810707554,None,701.0208810707554,None,701.0208810707554,None,701.0208810707554,None,701.0208810707554,None,701.0208810707554,None,701.0208810707554,None,710.5244810291333,None,702.0212359308498,None,703.0215907909442,None,0.3,7.50281984207686,706.0227545658126,None,None,706.0227545658126,None,,,,,,,,,,,,,,,,,,,24071,2019_Aug_13_1528,Mmi_3levels,3.1.5,59.98151711687223,
,,,2,0,7.5,,,,,,,,,0,1,1,1,0,12,12,13,,,,,,,,,,,,,,,,,,,,,,,,,,,,,,,,,,,,,,,,,,,,,,,,,,,,,,,,,,,,,False,True,False,0.3,0.3,4.800000000000001,-9.0,1.875,-7.125,-2.625,gamble,lose,-7.125,108.92416666666666,712.5631851017242,None,712.5631851017242,None,712.5631851017242,None,712.5631851017242,None,712.5631851017242,None,712.5631851017242,None,712.5631851017242,None,1,1.2961187773616984,712.5631851017242,None,713.8924303440144,None,713.8924303440144,None,713.8924303440144,None,713.8924303440144,None,713.8924303440144,None,713.8924303440144,None,713.8924303440144,None,717.8772603134857,None,717.8772603134857,None,717.8772603134857,None,717.8772603134857,None,717.8772603134857,None,717.8772603134857,None,717.8772603134857,None,718.8776020543883,None,,,,,,,,,,,,,,,,,,,,,,,,,,,,,,24071,2019_Aug_13_1528,Mmi_3levels,3.1.5,59.98151711687223,
,,,2,0,3.1,,,,,,,,,0,1,1,1,0,13,13,8,,,,,,,,,,,,,,,,,,,,,,,,,,,,,,,,,,,,,,,,,,,,,,,,,,,,,,,,,,,,,False,False,False,0.3,0.3,5.1000000000000005,1.475,0.775,-0.7000000000000001,0.03749999999999998,certain,certain,0.03749999999999998,108.96166666666666,720.8950685962336,None,720.8950685962336,None,720.8950685962336,None,720.8950685962336,None,720.8950685962336,None,720.8950685962336,None,720.8950685962336,None,3,2.0843347972258925,720.8950685962336,None,722.9958360731835,None,722.9958360731835,None,722.9958360731835,None,722.9958360731835,None,722.9958360731835,None,722.9958360731835,None,722.9958360731835,None,726.997387986281,None,726.997387986281,None,726.997387986281,None,726.997387986281,None,726.997387986281,None,726.997387986281,None,726.997387986281,None,736.5009994640714,None,727.9977617254481,None,728.9981108258944,None,0.42,7.502811522572301,731.9992682010634,None,None,731.9992682010634,None,,,,,,,,,,,,,,,,,,,24071,2019_Aug_13_1528,Mmi_3levels,3.1.5,59.98151711687223,
,,,2,0,13.7,,,,,,,,,0,1,1,1,0,14,14,25,,,,,,,,,,,,,,,,,,,,,,,,,,,,,,,,,,,,,,,,,,,,,,,,,,,,,,,,,,,,,False,False,True,0.42,0.42,5.5200000000000005,1.93,3.425,1.4949999999999999,0.7474999999999999,gamble,win,3.425,112.38666666666666,738.5183664915385,None,738.5183664915385,None,738.5183664915385,None,738.5183664915385,None,738.5183664915385,None,738.5183664915385,None,738.5183664915385,None,1,0.9673394289566204,738.5183664915385,None,739.518770628958,None,739.518770628958,None,739.518770628958,None,739.518770628958,None,739.518770628958,None,739.518770628958,None,739.518770628958,None,743.5036172374384,None,743.5036172374384,None,743.5036172374384,None,743.5036172374384,None,743.5036172374384,None,743.5036172374384,None,743.5036172374384,None,744.5040277745575,None,,,,,,,,,,,,,,,,,,,,,,,,,,,,,,24071,2019_Aug_13_1528,Mmi_3levels,3.1.5,59.98151711687223,
,,,2,0,4.1,,,,,,,,,0,1,1,1,0,15,15,7,,,,,,,,,,,,,,,,,,,,,,,,,,,,,,,,,,,,,,,,,,,,,,,,,,,,,,,,,,,,,False,False,False,0.42,0.42,5.94,1.965,1.025,-0.9400000000000002,0.04249999999999987,certain,certain,0.04249999999999987,112.42916666666666,746.5214661579812,None,746.5214661579812,None,746.5214661579812,None,746.5214661579812,None,746.5214661579812,None,746.5214661579812,None,746.5214661579812,None,3,1.2340563328471035,746.5214661579812,None,747.7886047981447,None,747.7886047981447,None,747.7886047981447,None,747.7886047981447,None,747.7886047981447,None,747.7886047981447,None,747.7886047981447,None,751.7734178086976,None,751.7734178086976,None,751.7734178086976,None,751.7734178086976,None,751.7734178086976,None,751.7734178086976,None,751.7734178086976,None,761.2770251266193,None,752.7738014671486,None,753.7742280033417,None,0.29,7.502631692681462,756.7753645796329,None,None,756.7753645796329,None,,,,,,,,,,,,,,,,,,,24071,2019_Aug_13_1528,Mmi_3levels,3.1.5,59.98151711687223,
,,,2,0,1.5,,,,,,,,,0,1,1,1,0,16,16,18,,,,,,,,,,,,,,,,,,,,,,,,,,,,,,,,,,,,,,,,,,,,,,,,,,,,,,,,,,,,,False,True,True,0.29,0.29,6.23,-10.29,0.375,-9.915,-4.77,gamble,lose,-9.915,102.51416666666665,763.3157608774491,None,763.3157608774491,None,763.3157608774491,None,763.3157608774491,None,763.3157608774491,None,763.3157608774491,None,763.3157608774491,None,1,1.0628671994199976,763.3157608774491,None,764.4115475134458,None,764.4115475134458,None,764.4115475134458,None,764.4115475134458,None,764.4115475134458,None,764.4115475134458,None,764.4115475134458,None,768.3964417993557,None,768.3964417993557,None,768.3964417993557,None,768.3964417993557,None,768.3964417993557,None,768.3964417993557,None,768.3964417993557,None,769.3968020991888,None,,,,,,,,,,,,,,,,,,,,,,,,,,,,,,24071,2019_Aug_13_1528,Mmi_3levels,3.1.5,59.98151711687223,
,,,2,0,1.3,,,,,,,,,0,1,1,1,0,17,17,16,,,,,,,,,,,,,,,,,,,,,,,,,,,,,,,,,,,,,,,,,,,,,,,,,,,,,,,,,,,,,False,True,False,0.29,0.29,6.5200000000000005,-10.58,0.325,-10.255,-4.965000000000001,gamble,lose,-10.255,92.25916666666666,771.414233442978,None,771.414233442978,None,771.414233442978,None,771.414233442978,None,771.414233442978,None,771.414233442978,None,771.414233442978,None,1,1.8843143184203655,771.414233442978,None,773.3316537474748,None,773.3316537474748,None,773.3316537474748,None,773.3316537474748,None,773.3316537474748,None,773.3316537474748,None,773.3316537474748,None,777.3164449991891,None,777.3164449991891,None,777.3164449991891,None,777.3164449991891,None,777.3164449991891,None,777.3164449991891,None,777.3164449991891,None,778.3168283376144,None,,,,,,,,,,,,,,,,,,,,,,,,,,,,,,24071,2019_Aug_13_1528,Mmi_3levels,3.1.5,59.98151711687223,
,,,2,0,8.5,,,,,,,,,0,1,1,1,0,18,18,15,,,,,,,,,,,,,,,,,,,,,,,,,,,,,,,,,,,,,,,,,,,,,,,,,,,,,,,,,,,,,False,True,True,0.29,0.29,6.8100000000000005,-10.870000000000001,2.125,-8.745000000000001,-3.3100000000000005,gamble,lose,-8.745000000000001,83.51416666666665,780.33430223912,None,780.33430223912,None,780.33430223912,None,780.33430223912,None,780.33430223912,None,780.33430223912,None,780.33430223912,None,1,1.150681161787361,780.33430223912,None,781.5180906669702,None,781.5180906669702,None,781.5180906669702,None,781.5180906669702,None,781.5180906669702,None,781.5180906669702,None,781.5180906669702,None,785.5028870383976,None,785.5028870383976,None,785.5028870383976,None,785.5028870383976,None,785.5028870383976,None,785.5028870383976,None,785.5028870383976,None,795.0065154752228,None,786.5033106947085,None,787.5036453958601,None,0.2,7.502687689498998,790.5048341293586,None,None,790.5048341293586,None,,,,,,,,,,,,,,,,,,,24071,2019_Aug_13_1528,Mmi_3levels,3.1.5,59.98151711687223,
,,,2,0,1.7,,,,,,,,,0,1,1,1,0,19,19,9,,,,,,,,,,,,,,,,,,,,,,,,,,,,,,,,,,,,,,,,,,,,,,,,,,,,,,,,,,,,,False,True,False,0.2,0.2,7.010000000000001,-9.81,0.425,-9.385,-4.4799999999999995,certain,certain,-4.4799999999999995,79.03416666666665,797.023931459873,None,797.023931459873,None,797.023931459873,None,797.023931459873,None,797.023931459873,None,797.023931459873,None,797.023931459873,None,3,2.7180228306679055,797.023931459873,None,799.775045877439,None,799.775045877439,None,799.775045877439,None,799.775045877439,None,799.775045877439,None,799.775045877439,None,799.775045877439,None,803.7598572880961,None,803.7598572880961,None,803.7598572880961,None,803.7598572880961,None,803.7598572880961,None,803.7598572880961,None,803.7598572880961,None,804.7602662252029,None,,,,,,,,,,,,,,,,,,,,,,,,,,,,,,24071,2019_Aug_13_1528,Mmi_3levels,3.1.5,59.98151711687223,
,,,2,0,13.5,,,,,,,,,0,1,1,1,0,20,20,10,,,,,,,,,,,,,,,,,,,,,,,,,,,,,,,,,,,,,,,,,,,,,,,,,,,,,,,,,,,,,False,True,True,0.2,0.2,7.210000000000001,-10.010000000000002,3.375,-6.635000000000002,-1.6300000000000008,certain,certain,-1.6300000000000008,77.40416666666665,806.7776950091356,None,806.7776950091356,None,806.7776950091356,None,806.7776950091356,None,806.7776950091356,None,806.7776950091356,None,806.7776950091356,None,3,1.9509649858810008,806.7776950091356,None,808.7617135040928,None,808.7617135040928,None,808.7617135040928,None,808.7617135040928,None,808.7617135040928,None,808.7617135040928,None,808.7617135040928,None,812.7466097099241,None,812.7466097099241,None,812.7466097099241,None,812.7466097099241,None,812.7466097099241,None,812.7466097099241,None,812.7466097099241,None,822.2502115882235,None,813.7469376915833,None,814.7473520683125,None,0.36,7.502775044529699,817.7484550465597,None,None,817.7484550465597,None,,,,,,,,,,,,,,,,,,,24071,2019_Aug_13_1528,Mmi_3levels,3.1.5,59.98151711687223,
,,,2,0,6.9,,,,,,,,,0,1,1,1,0,21,21,6,,,,,,,,,,,,,,,,,,,,,,,,,,,,,,,,,,,,,,,,,,,,,,,,,,,,,,,,,,,,,False,False,True,0.36,0.36,7.570000000000001,1.8908333333333336,1.725,-0.1658333333333335,0.7795833333333333,certain,certain,0.7795833333333333,78.18374999999999,824.2889284600969,None,824.2889284600969,None,824.2889284600969,None,824.2889284600969,None,824.2889284600969,None,824.2889284600969,None,824.2889284600969,None,3,2.2469144926872104,824.2889284600969,None,826.5685579208657,None,826.5685579208657,None,826.5685579208657,None,826.5685579208657,None,826.5685579208657,None,826.5685579208657,None,826.5685579208657,None,830.5533123745117,None,830.5533123745117,None,830.5533123745117,None,830.5533123745117,None,830.5533123745117,None,830.5533123745117,None,830.5533123745117,None,831.5537437103922,None,,,,,,,,,,,,,,,,,,,,,,,,,,,,,,24071,2019_Aug_13_1528,Mmi_3levels,3.1.5,59.98151711687223,
,,,2,0,0.1,,,,,,,,,0,1,1,1,0,22,22,12,,,,,,,,,,,,,,,,,,,,,,,,,,,,,,,,,,,,,,,,,,,,,,,,,,,,,,,,,,,,,False,True,True,0.36,0.36,7.9300000000000015,-12.970000000000002,0.025,-12.945000000000002,-6.460000000000001,certain,certain,-6.460000000000001,71.72375,833.5711379363202,None,833.5711379363202,None,833.5711379363202,None,833.5711379363202,None,833.5711379363202,None,833.5711379363202,None,833.5711379363202,None,3,1.6008677913341671,833.5711379363202,None,835.2050825954648,None,835.2050825954648,None,835.2050825954648,None,835.2050825954648,None,835.2050825954648,None,835.2050825954648,None,835.2050825954648,None,839.1899692018051,None,839.1899692018051,None,839.1899692018051,None,839.1899692018051,None,839.1899692018051,None,839.1899692018051,None,839.1899692018051,None,848.6935426016571,None,840.1903461406473,None,841.190681801876,None,0.29,7.502741446485743,844.1919012535363,None,None,844.1919012535363,None,,,,,,,,,,,,,,,,,,,24071,2019_Aug_13_1528,Mmi_3levels,3.1.5,59.98151711687223,
,,,2,0,8.7,,,,,,,,,0,1,1,1,0,23,23,21,,,,,,,,,,,,,,,,,,,,,,,,,,,,,,,,,,,,,,,,,,,,,,,,,,,,,,,,,,,,,False,True,False,0.29,0.29,8.22,-12.280000000000001,2.175,-10.105,-3.9650000000000003,gamble,lose,-10.105,61.61874999999999,850.7109755454585,None,850.7109755454585,None,850.7109755454585,None,850.7109755454585,None,850.7109755454585,None,850.7109755454585,None,850.7109755454585,None,1,1.7673890262376517,850.7109755454585,None,852.5116475077812,None,852.5116475077812,None,852.5116475077812,None,852.5116475077812,None,852.5116475077812,None,852.5116475077812,None,852.5116475077812,None,856.5132151000435,None,856.5132151000435,None,856.5132151000435,None,856.5132151000435,None,856.5132151000435,None,856.5132151000435,None,856.5132151000435,None,857.4969193725847,None,,,,,,,,,,,,,,,,,,,,,,,,,,,,,,24071,2019_Aug_13_1528,Mmi_3levels,3.1.5,59.98151711687223,
,,,2,0,7.7,,,,,,,,,0,1,1,1,0,24,24,11,,,,,,,,,,,,,,,,,,,,,,,,,,,,,,,,,,,,,,,,,,,,,,,,,,,,,,,,,,,,,False,False,True,0.29,0.29,8.51,1.7241666666666666,1.925,0.20083333333333342,1.0629166666666667,gamble,win,1.925,63.54374999999999,859.514338237117,None,859.514338237117,None,859.514338237117,None,859.514338237117,None,859.514338237117,None,859.514338237117,None,859.514338237117,None,1,1.5341688065091148,859.514338237117,None,861.081619429402,None,861.081619429402,None,861.081619429402,None,861.081619429402,None,861.081619429402,None,861.081619429402,None,861.081619429402,None,865.0831351844827,None,865.0831351844827,None,865.0831351844827,None,865.0831351844827,None,865.0831351844827,None,865.0831351844827,None,865.0831351844827,None,866.0668256977806,None,,,,,,,,,,,,,,,,,,,,,,,,,,,,,,24071,2019_Aug_13_1528,Mmi_3levels,3.1.5,59.98151711687223,
,,,2,0,9.3,,,,,,,,,0,1,1,1,0,25,25,3,,,,,,,,,,,,,,,,,,,,,,,,,,,,,,,,,,,,,,,,,,,,,,,,,,,,,,,,,,,,,False,True,False,0.29,0.29,8.799999999999999,-12.86,2.325,-10.535,-4.105,certain,certain,-4.105,59.438749999999985,868.0842816802906,None,868.0842816802906,None,868.0842816802906,None,868.0842816802906,None,868.0842816802906,None,868.0842816802906,None,868.0842816802906,None,3,2.1175204587634653,868.0842816802906,None,870.235086355242,None,870.235086355242,None,870.235086355242,None,870.235086355242,None,870.235086355242,None,870.235086355242,None,870.235086355242,None,874.2199096051045,None,874.2199096051045,None,874.2199096051045,None,874.2199096051045,None,874.2199096051045,None,874.2199096051045,None,874.2199096051045,None,883.7234926044475,None,875.2202871839982,None,876.2206436439883,None,0.35,7.50276288529858,879.2218099787133,None,None,879.2218099787133,None,,,,,,,,,,,,,,,,,,,24071,2019_Aug_13_1528,Mmi_3levels,3.1.5,59.98151711687223,
,,,2,0,2.1,,,,,,,,,0,1,1,1,0,26,26,0,,,,,,,,,,,,,,,,,,,,,,,,,,,,,,,,,,,,,,,,,,,,,,,,,,,,,,,,,,,,,False,True,True,0.35,0.35,9.149999999999999,-14.049999999999997,0.525,-13.524999999999997,-6.499999999999998,certain,certain,-6.499999999999998,52.938749999999985,885.740931947832,None,885.740931947832,None,885.740931947832,None,885.740931947832,None,885.740931947832,None,885.740931947832,None,885.740931947832,None,3,2.8013192862272263,885.740931947832,None,888.5753565800842,None,888.5753565800842,None,888.5753565800842,None,888.5753565800842,None,888.5753565800842,None,888.5753565800842,None,888.5753565800842,None,892.5602156679379,None,892.5602156679379,None,892.5602156679379,None,892.5602156679379,None,892.5602156679379,None,892.5602156679379,None,892.5602156679379,None,893.5605826873798,None,,,,,,,,,,,,,,,,,,,,,,,,,,,,,,24071,2019_Aug_13_1528,Mmi_3levels,3.1.5,59.98151711687223,
,,,3,1,5.1,,,,,,,,,0,2,2,2,0,0,0,0,,,,,,,,,,,,,,,,,,,,,,,,,,,,,,,,,,,,,,,,,,,,,,,,,903.3310016239993,None,0.39,7.501770300907083,906.3487849481171,None,None,,906.3487849481171,None,910.83378498815,None,True,False,True,0.39,-0.61,-0.61,-2.185833333333333,5.1,2.9141666666666666,1.4570833333333333,gamble,lose,2.9141666666666666,55.85291666666665,913.8682716968469,None,913.8682716968469,None,913.8682716968469,None,913.8682716968469,None,913.8682716968469,None,913.8682716968469,None,913.8682716968469,None,1,0.8506019663764164,913.8682716968469,None,914.7520254066912,None,914.7520254066912,None,914.7520254066912,None,914.7520254066912,None,914.7520254066912,None,914.7520254066912,None,914.7520254066912,None,918.7368137785234,None,918.7368137785234,None,918.7368137785234,None,918.7368137785234,None,918.7368137785234,None,918.7368137785234,None,918.7368137785234,None,928.2404310159618,None,919.7371548793744,None,920.7376070140162,None,0.49,7.502768005011603,923.7387183118844,None,None,923.7387183118844,None,895.5613132065628,None,4,7.7533683713991195,895.5613132065628,None,,,,,,,,,,,,,24071,2019_Aug_13_1528,Mmi_3levels,3.1.5,59.98151711687223,
,,,3,1,4.7,,,,,,,,,0,2,2,2,0,1,1,25,,,,,,,,,,,,,,,,,,,,,,,,,,,,,,,,,,,,,,,,,,,,,,,,,,,,,,,,,,,,,True,False,False,0.49,-0.51,-1.12,-1.8783333333333334,4.7,2.8216666666666668,1.4108333333333334,gamble,lose,2.8216666666666668,58.67458333333332,930.2791091699619,None,930.2791091699619,None,930.2791091699619,None,930.2791091699619,None,930.2791091699619,None,930.2791091699619,None,930.2791091699619,None,1,0.8626678505679592,930.2791091699619,None,931.1748746871017,None,931.1748746871017,None,931.1748746871017,None,931.1748746871017,None,931.1748746871017,None,931.1748746871017,None,931.1748746871017,None,935.1596979369642,None,935.1596979369642,None,935.1596979369642,None,935.1596979369642,None,935.1596979369642,None,935.1596979369642,None,935.1596979369642,None,936.1600531170843,None,,,,,,,,,,,,,,,,,,,,,,,,,,,,,,24071,2019_Aug_13_1528,Mmi_3levels,3.1.5,59.98151711687223,
,,,3,1,0.9,,,,,,,,,0,2,2,2,0,2,2,24,,,,,,,,,,,,,,,,,,,,,,,,,,,,,,,,,,,,,,,,,,,,,,,,,,,,,,,,,,,,,True,False,False,0.49,-0.51,-1.6300000000000001,-1.9208333333333334,0.9,-1.0208333333333335,-0.06041666666666673,gamble,lose,-1.0208333333333335,57.65374999999998,938.1775273384992,None,938.1775273384992,None,938.1775273384992,None,938.1775273384992,None,938.1775273384992,None,938.1775273384992,None,938.1775273384992,None,1,1.3509608261520043,938.1775273384992,None,939.5614373595454,None,939.5614373595454,None,939.5614373595454,None,939.5614373595454,None,939.5614373595454,None,939.5614373595454,None,939.5614373595454,None,943.5462359708035,None,943.5462359708035,None,943.5462359708035,None,943.5462359708035,None,943.5462359708035,None,943.5462359708035,None,943.5462359708035,None,944.5466225092532,None,,,,,,,,,,,,,,,,,,,,,,,,,,,,,,24071,2019_Aug_13_1528,Mmi_3levels,3.1.5,59.98151711687223,
,,,3,1,8.1,,,,,,,,,0,2,2,2,0,3,3,21,,,,,,,,,,,,,,,,,,,,,,,,,,,,,,,,,,,,,,,,,,,,,,,,,,,,,,,,,,,,,True,True,False,0.49,-0.51,-2.14,9.280000000000001,8.1,-1.1800000000000015,-0.5900000000000007,gamble,win,8.1,65.75374999999998,946.5640077756252,None,946.5640077756252,None,946.5640077756252,None,946.5640077756252,None,946.5640077756252,None,946.5640077756252,None,946.5640077756252,None,1,1.5844469510484487,946.5640077756252,None,948.1813501644647,None,948.1813501644647,None,948.1813501644647,None,948.1813501644647,None,948.1813501644647,None,948.1813501644647,None,948.1813501644647,None,952.1828086427413,None,952.1828086427413,None,952.1828086427413,None,952.1828086427413,None,952.1828086427413,None,952.1828086427413,None,952.1828086427413,None,961.6697324150009,None,953.1666207492817,None,954.1669349716976,None,0.58,7.502836161176674,957.1680702681188,None,None,957.1680702681188,None,,,,,,,,,,,,,,,,,,,24071,2019_Aug_13_1528,Mmi_3levels,3.1.5,59.98151711687223,
,,,3,1,2.1,,,,,,,,,0,2,2,2,0,4,4,11,,,,,,,,,,,,,,,,,,,,,,,,,,,,,,,,,,,,,,,,,,,,,,,,,,,,,,,,,,,,,True,False,False,0.58,-0.42000000000000004,-2.56,-1.6833333333333336,2.1,0.4166666666666665,1.2583333333333333,gamble,lose,0.4166666666666665,66.17041666666665,963.6871912773931,None,963.6871912773931,None,963.6871912773931,None,963.6871912773931,None,963.6871912773931,None,963.6871912773931,None,963.6871912773931,None,1,0.8840900108916685,963.6871912773931,None,964.6042708009481,None,964.6042708009481,None,964.6042708009481,None,964.6042708009481,None,964.6042708009481,None,964.6042708009481,None,964.6042708009481,None,968.5890242947498,None,968.5890242947498,None,968.5890242947498,None,968.5890242947498,None,968.5890242947498,None,968.5890242947498,None,968.5890242947498,None,969.5894370715832,None,,,,,,,,,,,,,,,,,,,,,,,,,,,,,,24071,2019_Aug_13_1528,Mmi_3levels,3.1.5,59.98151711687223,
,,,3,1,8.3,,,,,,,,,0,2,2,2,0,5,5,7,,,,,,,,,,,,,,,,,,,,,,,,,,,,,,,,,,,,,,,,,,,,,,,,,,,,,,,,,,,,,True,True,False,0.58,-0.42000000000000004,-2.98,8.860000000000001,8.3,-0.5600000000000005,-0.28000000000000025,gamble,win,8.3,74.47041666666665,971.6068757750327,None,971.6068757750327,None,971.6068757750327,None,971.6068757750327,None,971.6068757750327,None,971.6068757750327,None,971.6068757750327,None,1,1.0839508187491447,971.6068757750327,None,972.7239287400153,None,972.7239287400153,None,972.7239287400153,None,972.7239287400153,None,972.7239287400153,None,972.7239287400153,None,972.7239287400153,None,976.725498252199,None,976.725498252199,None,976.725498252199,None,976.725498252199,None,976.725498252199,None,976.725498252199,None,976.725498252199,None,986.21237402712,None,977.7091458878713,None,978.7095788236475,None,0.58,7.5025856151478365,981.7106738022994,None,None,981.7106738022994,None,,,,,,,,,,,,,,,,,,,24071,2019_Aug_13_1528,Mmi_3levels,3.1.5,59.98151711687223,
,,,3,1,12.5,,,,,,,,,0,2,2,2,0,6,6,9,,,,,,,,,,,,,,,,,,,,,,,,,,,,,,,,,,,,,,,,,,,,,,,,,,,,,,,,,,,,,True,False,True,0.58,-0.42000000000000004,-3.4,-1.7533333333333334,12.5,10.746666666666666,5.373333333333333,gamble,lose,10.746666666666666,85.21708333333332,988.2511116977548,None,988.2511116977548,None,988.2511116977548,None,988.2511116977548,None,988.2511116977548,None,988.2511116977548,None,988.2511116977548,None,1,1.2627718447474763,988.2511116977548,None,989.5469895286951,None,989.5469895286951,None,989.5469895286951,None,989.5469895286951,None,989.5469895286951,None,989.5469895286951,None,989.5469895286951,None,993.5318198181922,None,993.5318198181922,None,993.5318198181922,None,993.5318198181922,None,993.5318198181922,None,993.5318198181922,None,993.5318198181922,None,994.5322498740861,None,,,,,,,,,,,,,,,,,,,,,,,,,,,,,,24071,2019_Aug_13_1528,Mmi_3levels,3.1.5,59.98151711687223,
,,,3,1,10.5,,,,,,,,,0,2,2,2,0,7,7,1,,,,,,,,,,,,,,,,,,,,,,,,,,,,,,,,,,,,,,,,,,,,,,,,,,,,,,,,,,,,,True,False,True,0.58,-0.42000000000000004,-3.82,-1.7883333333333336,10.5,8.711666666666666,4.355833333333333,gamble,lose,8.711666666666666,93.92874999999998,996.5496415401576,None,996.5496415401576,None,996.5496415401576,None,996.5496415401576,None,996.5496415401576,None,996.5496415401576,None,996.5496415401576,None,1,1.0006553233833984,996.5496415401576,None,997.5833692513406,None,997.5833692513406,None,997.5833692513406,None,997.5833692513406,None,997.5833692513406,None,997.5833692513406,None,997.5833692513406,None,1001.5682468982413,None,1001.5682468982413,None,1001.5682468982413,None,1001.5682468982413,None,1001.5682468982413,None,1001.5682468982413,None,1001.5682468982413,None,1011.071847176645,None,1002.5686308767181,None,1003.5689857368125,None,0.59,7.50270496844314,1006.5701498317067,None,None,1006.5701498317067,None,,,,,,,,,,,,,,,,,,,24071,2019_Aug_13_1528,Mmi_3levels,3.1.5,59.98151711687223,
,,,3,1,9.7,,,,,,,,,0,2,2,2,0,8,8,20,,,,,,,,,,,,,,,,,,,,,,,,,,,,,,,,,,,,,,,,,,,,,,,,,,,,,,,,,,,,,True,True,True,0.59,-0.41000000000000003,-4.2299999999999995,9.969999999999999,9.7,-0.2699999999999996,-0.1349999999999998,gamble,win,9.7,103.62874999999998,1013.0892714807997,None,1013.0892714807997,None,1013.0892714807997,None,1013.0892714807997,None,1013.0892714807997,None,1013.0892714807997,None,1013.0892714807997,None,1,0.8339046612381935,1013.0892714807997,None,1013.9562414905522,None,1013.9562414905522,None,1013.9562414905522,None,1013.9562414905522,None,1013.9562414905522,None,1013.9562414905522,None,1013.9562414905522,None,1017.941125537036,None,1017.941125537036,None,1017.941125537036,None,1017.941125537036,None,1017.941125537036,None,1017.941125537036,None,1017.941125537036,None,1018.9415056757862,None,,,,,,,,,,,,,,,,,,,,,,,,,,,,,,24071,2019_Aug_13_1528,Mmi_3levels,3.1.5,59.98151711687223,
,,,3,1,5.7,,,,,,,,,0,2,2,2,0,9,9,26,,,,,,,,,,,,,,,,,,,,,,,,,,,,,,,,,,,,,,,,,,,,,,,,,,,,,,,,,,,,,True,True,True,0.59,-0.41000000000000003,-4.64,10.379999999999999,5.7,-4.679999999999999,0.5100000000000007,gamble,win,5.7,109.32874999999999,1020.9589405393926,None,1020.9589405393926,None,1020.9589405393926,None,1020.9589405393926,None,1020.9589405393926,None,1020.9589405393926,None,1020.9589405393926,None,1,0.9839263401227072,1020.9589405393926,None,1021.9759552665055,None,1021.9759552665055,None,1021.9759552665055,None,1021.9759552665055,None,1021.9759552665055,None,1021.9759552665055,None,1021.9759552665055,None,1025.9607858760282,None,1025.9607858760282,None,1025.9607858760282,None,1025.9607858760282,None,1025.9607858760282,None,1025.9607858760282,None,1025.9607858760282,None,1026.9611720944522,None,,,,,,,,,,,,,,,,,,,,,,,,,,,,,,24071,2019_Aug_13_1528,Mmi_3levels,3.1.5,59.98151711687223,
,,,3,1,9.9,,,,,,,,,0,2,2,2,0,10,10,10,,,,,,,,,,,,,,,,,,,,,,,,,,,,,,,,,,,,,,,,,,,,,,,,,,,,,,,,,,,,,True,True,False,0.59,-0.41000000000000003,-5.05,10.79,9.9,-0.8899999999999988,-0.4449999999999994,gamble,win,9.9,119.22874999999999,1028.9786523955408,None,1028.9786523955408,None,1028.9786523955408,None,1028.9786523955408,None,1028.9786523955408,None,1028.9786523955408,None,1028.9786523955408,None,1,1.1006071659503505,1028.9786523955408,None,1030.1123725872021,None,1030.1123725872021,None,1030.1123725872021,None,1030.1123725872021,None,1030.1123725872021,None,1030.1123725872021,None,1030.1123725872021,None,1034.1138838625047,None,1034.1138838625047,None,1034.1138838625047,None,1034.1138838625047,None,1034.1138838625047,None,1034.1138838625047,None,1034.1138838625047,None,1043.600813074503,None,1035.0975900549674,None,1036.0980213908479,None,0.57,7.50264385191258,1039.099110289826,None,None,1039.099110289826,None,,,,,,,,,,,,,,,,,,,24071,2019_Aug_13_1528,Mmi_3levels,3.1.5,59.98151711687223,
,,,3,1,4.1,,,,,,,,,0,2,2,2,0,11,11,17,,,,,,,,,,,,,,,,,,,,,,,,,,,,,,,,,,,,,,,,,,,,,,,,,,,,,,,,,,,,,True,True,True,0.57,-0.43000000000000005,-5.4799999999999995,11.5,4.1,-7.4,-1.6500000000000004,gamble,win,4.1,123.32874999999999,1045.6182613774436,None,1045.6182613774436,None,1045.6182613774436,None,1045.6182613774436,None,1045.6182613774436,None,1045.6182613774436,None,1045.6182613774436,None,1,0.9340449734590948,1045.6182613774436,None,1046.5853323414922,None,1046.5853323414922,None,1046.5853323414922,None,1046.5853323414922,None,1046.5853323414922,None,1046.5853323414922,None,1046.5853323414922,None,1050.5868778548902,None,1050.5868778548902,None,1050.5868778548902,None,1050.5868778548902,None,1050.5868778548902,None,1050.5868778548902,None,1050.5868778548902,None,1051.570537009975,None,,,,,,,,,,,,,,,,,,,,,,,,,,,,,,24071,2019_Aug_13_1528,Mmi_3levels,3.1.5,59.98151711687223,
,,,3,1,9.1,,,,,,,,,0,2,2,2,0,12,12,4,,,,,,,,,,,,,,,,,,,,,,,,,,,,,,,,,,,,,,,,,,,,,,,,,,,,,,,,,,,,,True,True,False,0.57,-0.43000000000000005,-5.909999999999999,11.93,9.1,-2.83,-1.415,gamble,win,9.1,132.42874999999998,1053.587979553151,None,1053.587979553151,None,1053.587979553151,None,1053.587979553151,None,1053.587979553151,None,1053.587979553151,None,1053.587979553151,None,1,1.200707480427809,1053.587979553151,None,1054.8217869399814,None,1054.8217869399814,None,1054.8217869399814,None,1054.8217869399814,None,1054.8217869399814,None,1054.8217869399814,None,1054.8217869399814,None,1058.8233084548265,None,1058.8233084548265,None,1058.8233084548265,None,1058.8233084548265,None,1058.8233084548265,None,1058.8233084548265,None,1058.8233084548265,None,1068.3102203877643,None,1059.806965369964,None,1060.8073775068624,None,0.49,7.502610573777929,1063.8084888047306,None,None,1063.8084888047306,None,,,,,,,,,,,,,,,,,,,24071,2019_Aug_13_1528,Mmi_3levels,3.1.5,59.98151711687223,
,,,3,1,9.5,,,,,,,,,0,2,2,2,0,13,13,23,,,,,,,,,,,,,,,,,,,,,,,,,,,,,,,,,,,,,,,,,,,,,,,,,,,,,,,,,,,,,True,True,True,0.49,-0.51,-6.419999999999999,13.559999999999999,9.5,-4.059999999999999,-2.0299999999999994,gamble,win,9.5,141.92874999999998,1070.3276904494269,None,1070.3276904494269,None,1070.3276904494269,None,1070.3276904494269,None,1070.3276904494269,None,1070.3276904494269,None,1070.3276904494269,None,1,0.9840005759615451,1070.3276904494269,None,1071.344723415561,None,1071.344723415561,None,1071.344723415561,None,1071.344723415561,None,1071.344723415561,None,1071.344723415561,None,1071.344723415561,None,1075.3295703440672,None,1075.3295703440672,None,1075.3295703440672,None,1075.3295703440672,None,1075.3295703440672,None,1075.3295703440672,None,1075.3295703440672,None,1076.3298976857914,None,,,,,,,,,,,,,,,,,,,,,,,,,,,,,,24071,2019_Aug_13_1528,Mmi_3levels,3.1.5,59.98151711687223,
,,,3,1,8.9,,,,,,,,,0,2,2,2,0,14,14,19,,,,,,,,,,,,,,,,,,,,,,,,,,,,,,,,,,,,,,,,,,,,,,,,,,,,,,,,,,,,,True,True,True,0.49,-0.51,-6.929999999999999,14.07,8.9,-5.17,1.8650000000000002,gamble,win,8.9,150.82874999999999,1078.3473290295806,None,1078.3473290295806,None,1078.3473290295806,None,1078.3473290295806,None,1078.3473290295806,None,1078.3473290295806,None,1078.3473290295806,None,1,1.0674266240093857,1078.3473290295806,None,1079.4478069228353,None,1079.4478069228353,None,1079.4478069228353,None,1079.4478069228353,None,1079.4478069228353,None,1079.4478069228353,None,1079.4478069228353,None,1083.4493159583071,None,1083.4493159583071,None,1083.4493159583071,None,1083.4493159583071,None,1083.4493159583071,None,1083.4493159583071,None,1083.4493159583071,None,1084.4329738335218,None,,,,,,,,,,,,,,,,,,,,,,,,,,,,,,24071,2019_Aug_13_1528,Mmi_3levels,3.1.5,59.98151711687223,
,,,3,1,10.7,,,,,,,,,0,2,2,2,0,15,15,13,,,,,,,,,,,,,,,,,,,,,,,,,,,,,,,,,,,,,,,,,,,,,,,,,,,,,,,,,,,,,True,False,False,0.49,-0.51,-7.439999999999999,-2.4050000000000002,10.7,8.294999999999998,4.147499999999999,gamble,lose,8.294999999999998,159.12374999999997,1086.4504173366586,None,1086.4504173366586,None,1086.4504173366586,None,1086.4504173366586,None,1086.4504173366586,None,1086.4504173366586,None,1086.4504173366586,None,1,1.3007777164457366,1086.4504173366586,None,1087.7843071188545,None,1087.7843071188545,None,1087.7843071188545,None,1087.7843071188545,None,1087.7843071188545,None,1087.7843071188545,None,1087.7843071188545,None,1091.7690897310385,None,1091.7690897310385,None,1091.7690897310385,None,1091.7690897310385,None,1091.7690897310385,None,1091.7690897310385,None,1091.7690897310385,None,1101.272750166012,None,1092.7694733894896,None,1093.7698752870783,None,0.5,7.502803843002766,1096.7710016239434,None,None,1096.7710016239434,None,,,,,,,,,,,,,,,,,,,24071,2019_Aug_13_1528,Mmi_3levels,3.1.5,59.98151711687223,
,,,3,1,12.9,,,,,,,,,0,2,2,2,0,16,16,16,,,,,,,,,,,,,,,,,,,,,,,,,,,,,,,,,,,,,,,,,,,,,,,,,,,,,,,,,,,,,True,True,False,0.5,-0.5,-7.939999999999999,14.939999999999998,12.9,-2.0399999999999974,-1.0199999999999987,gamble,win,12.9,172.02374999999998,1103.3114407993853,None,1103.3114407993853,None,1103.3114407993853,None,1103.3114407993853,None,1103.3114407993853,None,1103.3114407993853,None,1103.3114407993853,None,1,1.1794382714433596,1103.3114407993853,None,1104.5239952963311,None,1104.5239952963311,None,1104.5239952963311,None,1104.5239952963311,None,1104.5239952963311,None,1104.5239952963311,None,1104.5239952963311,None,1108.5254960122984,None,1108.5254960122984,None,1108.5254960122984,None,1108.5254960122984,None,1108.5254960122984,None,1108.5254960122984,None,1108.5254960122984,None,1109.5091545274481,None,,,,,,,,,,,,,,,,,,,,,,,,,,,,,,24071,2019_Aug_13_1528,Mmi_3levels,3.1.5,59.98151711687223,
,,,3,1,3.3,,,,,,,,,0,2,2,2,0,17,17,6,,,,,,,,,,,,,,,,,,,,,,,,,,,,,,,,,,,,,,,,,,,,,,,,,,,,,,,,,,,,,True,False,True,0.5,-0.5,-8.439999999999998,-2.453333333333333,3.3,0.8466666666666667,0.42333333333333334,gamble,lose,0.8466666666666667,172.87041666666664,1111.5266290687723,None,1111.5266290687723,None,1111.5266290687723,None,1111.5266290687723,None,1111.5266290687723,None,1111.5266290687723,None,1111.5266290687723,None,1,0.8840381738264114,1111.5266290687723,None,1112.4436529155355,None,1112.4436529155355,None,1112.4436529155355,None,1112.4436529155355,None,1112.4436529155355,None,1112.4436529155355,None,1112.4436529155355,None,1116.4284438472241,None,1116.4284438472241,None,1116.4284438472241,None,1116.4284438472241,None,1116.4284438472241,None,1116.4284438472241,None,1116.4284438472241,None,1125.9320828433847,None,1117.4288582239533,None,1118.4292127641384,None,0.45,7.5027622452471405,1121.4303928581066,None,None,1121.4303928581066,None,,,,,,,,,,,,,,,,,,,24071,2019_Aug_13_1528,Mmi_3levels,3.1.5,59.98151711687223,
,,,3,1,3.7,,,,,,,,,0,2,2,2,0,18,18,14,,,,,,,,,,,,,,,,,,,,,,,,,,,,,,,,,,,,,,,,,,,,,,,,,,,,,,,,,,,,,True,False,True,0.45,-0.55,-8.989999999999998,-2.674166666666667,3.7,1.0258333333333334,0.5129166666666667,gamble,lose,1.0258333333333334,173.89624999999998,1127.9495167471468,None,1127.9495167471468,None,1127.9495167471468,None,1127.9495167471468,None,1127.9495167471468,None,1127.9495167471468,None,1127.9495167471468,None,1,1.2840772117488086,1127.9495167471468,None,1129.2666529074777,None,1129.2666529074777,None,1129.2666529074777,None,1129.2666529074777,None,1129.2666529074777,None,1129.2666529074777,None,1129.2666529074777,None,1133.251519674901,None,1133.251519674901,None,1133.251519674901,None,1133.251519674901,None,1133.251519674901,None,1133.251519674901,None,1133.251519674901,None,1134.2519084531814,None,,,,,,,,,,,,,,,,,,,,,,,,,,,,,,24071,2019_Aug_13_1528,Mmi_3levels,3.1.5,59.98151711687223,
,,,3,1,-0.9,,,,,,,,,0,2,2,2,0,19,19,3,,,,,,,,,,,,,,,,,,,,,,,,,,,,,,,,,,,,,,,,,,,,,,,,,,,,,,,,,,,,,True,True,False,0.45,-0.55,-9.54,17.240000000000002,-0.9,-18.14,-9.52,gamble,win,-0.9,172.99624999999997,1136.2693209181307,None,1136.2693209181307,None,1136.2693209181307,None,1136.2693209181307,None,1136.2693209181307,None,1136.2693209181307,None,1136.2693209181307,None,1,2.067805162863806,1136.2693209181307,None,1138.3701402322622,None,1138.3701402322622,None,1138.3701402322622,None,1138.3701402322622,None,1138.3701402322622,None,1138.3701402322622,None,1138.3701402322622,None,1142.3716723064426,None,1142.3716723064426,None,1142.3716723064426,None,1142.3716723064426,None,1142.3716723064426,None,1142.3716723064426,None,1142.3716723064426,None,1151.8585589607246,None,1143.3553746590624,None,1144.3557141600177,None,0.49,7.50268992932979,1147.3568513763603,None,None,1147.3568513763603,None,,,,,,,,,,,,,,,,,,,24071,2019_Aug_13_1528,Mmi_3levels,3.1.5,59.98151711687223,
,,,3,1,4.5,,,,,,,,,0,2,2,2,0,20,20,2,,,,,,,,,,,,,,,,,,,,,,,,,,,,,,,,,,,,,,,,,,,,,,,,,,,,,,,,,,,,,True,True,False,0.49,-0.51,-10.049999999999999,17.189999999999998,4.5,-12.689999999999998,-4.094999999999999,gamble,win,4.5,177.49624999999997,1153.8973327893764,None,1153.8973327893764,None,1153.8973327893764,None,1153.8973327893764,None,1153.8973327893764,None,1153.8973327893764,None,1153.8973327893764,None,1,1.7129354355856776,1153.8973327893764,None,1155.6433726111427,None,1155.6433726111427,None,1155.6433726111427,None,1155.6433726111427,None,1155.6433726111427,None,1155.6433726111427,None,1155.6433726111427,None,1159.6281709024915,None,1159.6281709024915,None,1159.6281709024915,None,1159.6281709024915,None,1159.6281709024915,None,1159.6281709024915,None,1159.6281709024915,None,1160.628564800485,None,,,,,,,,,,,,,,,,,,,,,,,,,,,,,,24071,2019_Aug_13_1528,Mmi_3levels,3.1.5,59.98151711687223,
,,,3,1,1.5,,,,,,,,,0,2,2,2,0,21,21,8,,,,,,,,,,,,,,,,,,,,,,,,,,,,,,,,,,,,,,,,,,,,,,,,,,,,,,,,,,,,,True,True,True,0.49,-0.51,-10.559999999999999,17.7,1.5,-16.2,-7.35,gamble,win,1.5,178.99624999999997,1162.6459907045355,None,1162.6459907045355,None,1162.6459907045355,None,1162.6459907045355,None,1162.6459907045355,None,1162.6459907045355,None,1162.6459907045355,None,1,2.5847864520037547,1162.6459907045355,None,1165.2636777141597,None,1165.2636777141597,None,1165.2636777141597,None,1165.2636777141597,None,1165.2636777141597,None,1165.2636777141597,None,1165.2636777141597,None,1169.2651931492146,None,1169.2651931492146,None,1169.2651931492146,None,1169.2651931492146,None,1169.2651931492146,None,1169.2651931492146,None,1169.2651931492146,None,1170.2489386994857,None,,,,,,,,,,,,,,,,,,,,,,,,,,,,,,24071,2019_Aug_13_1528,Mmi_3levels,3.1.5,59.98151711687223,
,,,3,1,-1.1,,,,,,,,,0,2,2,2,0,22,22,22,,,,,,,,,,,,,,,,,,,,,,,,,,,,,,,,,,,,,,,,,,,,,,,,,,,,,,,,,,,,,True,True,False,0.49,-0.51,-11.069999999999999,18.21,-1.1,-19.310000000000002,-10.205000000000002,gamble,win,-1.1,177.89624999999998,1172.2663402849576,None,1172.2663402849576,None,1172.2663402849576,None,1172.2663402849576,None,1172.2663402849576,None,1172.2663402849576,None,1172.2663402849576,None,1,2.3011344964616,1172.2663402849576,None,1174.600567968213,None,1174.600567968213,None,1174.600567968213,None,1174.600567968213,None,1174.600567968213,None,1174.600567968213,None,1174.600567968213,None,1178.602064524428,None,1178.602064524428,None,1178.602064524428,None,1178.602064524428,None,1178.602064524428,None,1178.602064524428,None,1178.602064524428,None,1188.0889738975093,None,1179.585763997282,None,1180.586144775967,None,0.5,7.502664010855369,1183.5872653531842,None,None,1183.5872653531842,None,,,,,,,,,,,,,,,,,,,24071,2019_Aug_13_1528,Mmi_3levels,3.1.5,59.98151711687223,
,,,3,1,5.3,,,,,,,,,0,2,2,2,0,23,23,5,,,,,,,,,,,,,,,,,,,,,,,,,,,,,,,,,,,,,,,,,,,,,,,,,,,,,,,,,,,,,True,True,False,0.5,-0.5,-11.569999999999999,18.57,5.3,-13.27,-3.985,gamble,win,5.3,183.19625,1190.1064119610237,None,1190.1064119610237,None,1190.1064119610237,None,1190.1064119610237,None,1190.1064119610237,None,1190.1064119610237,None,1190.1064119610237,None,1,1.3174599822377786,1190.1064119610237,None,1191.4569193725474,None,1191.4569193725474,None,1191.4569193725474,None,1191.4569193725474,None,1191.4569193725474,None,1191.4569193725474,None,1191.4569193725474,None,1195.4584335277323,None,1195.4584335277323,None,1195.4584335277323,None,1195.4584335277323,None,1195.4584335277323,None,1195.4584335277323,None,1195.4584335277323,None,1196.4421419601422,None,,,,,,,,,,,,,,,,,,,,,,,,,,,,,,24071,2019_Aug_13_1528,Mmi_3levels,3.1.5,59.98151711687223,
,,,3,1,7.5,,,,,,,,,0,2,2,2,0,24,24,15,,,,,,,,,,,,,,,,,,,,,,,,,,,,,,,,,,,,,,,,,,,,,,,,,,,,,,,,,,,,,True,True,True,0.5,-0.5,-12.069999999999999,19.07,7.5,-11.57,-2.035,gamble,win,7.5,190.69625,1198.4595835433574,None,1198.4595835433574,None,1198.4595835433574,None,1198.4595835433574,None,1198.4595835433574,None,1198.4595835433574,None,1198.4595835433574,None,1,1.3674715815577656,1198.4595835433574,None,1199.8601563113043,None,1199.8601563113043,None,1199.8601563113043,None,1199.8601563113043,None,1199.8601563113043,None,1199.8601563113043,None,1199.8601563113043,None,1203.8449450031621,None,1203.8449450031621,None,1203.8449450031621,None,1203.8449450031621,None,1203.8449450031621,None,1203.8449450031621,None,1203.8449450031621,None,1213.348577919649,None,1204.8453280216781,None,1205.8457059204811,None,0.41,7.5027411265764385,1208.846846656641,None,None,1208.846846656641,None,,,,,,,,,,,,,,,,,,,24071,2019_Aug_13_1528,Mmi_3levels,3.1.5,59.98151711687223,
,,,3,1,-0.7,,,,,,,,,0,2,2,2,0,25,25,12,,,,,,,,,,,,,,,,,,,,,,,,,,,,,,,,,,,,,,,,,,,,,,,,,,,,,,,,,,,,,True,False,False,0.41,-0.5900000000000001,-12.659999999999998,-3.12,-0.7,-3.8200000000000003,-2.2600000000000002,gamble,lose,-3.8200000000000003,186.87625,1215.3872890318744,None,1215.3872890318744,None,1215.3872890318744,None,1215.3872890318744,None,1215.3872890318744,None,1215.3872890318744,None,1215.3872890318744,None,1,2.3634055693401024,1215.3872890318744,None,1217.7835746798664,None,1217.7835746798664,None,1217.7835746798664,None,1217.7835746798664,None,1217.7835746798664,None,1217.7835746798664,None,1217.7835746798664,None,1221.768427368137,None,1221.768427368137,None,1221.768427368137,None,1221.768427368137,None,1221.768427368137,None,1221.768427368137,None,1221.768427368137,None,1222.768832465401,None,,,,,,,,,,,,,,,,,,,,,,,,,,,,,,24071,2019_Aug_13_1528,Mmi_3levels,3.1.5,59.98151711687223,
,,,3,1,-0.1,,,,,,,,,0,2,2,2,0,26,26,18,,,,,,,,,,,,,,,,,,,,,,,,,,,,,,,,,,,,,,,,,,,,,,,,,,,,,,,,,,,,,True,True,False,0.41,-0.5900000000000001,-13.249999999999998,21.509999999999998,-0.1,-21.61,-10.855,gamble,win,-0.1,186.77625,1224.7862545298412,None,1224.7862545298412,None,1224.7862545298412,None,1224.7862545298412,None,1224.7862545298412,None,1224.7862545298412,None,1224.7862545298412,None,1,1.5676107738399878,1224.7862545298412,None,1226.3868372171419,None,1226.3868372171419,None,1226.3868372171419,None,1226.3868372171419,None,1226.3868372171419,None,1226.3868372171419,None,1226.3868372171419,None,1230.3883987297304,None,1230.3883987297304,None,1230.3883987297304,None,1230.3883987297304,None,1230.3883987297304,None,1230.3883987297304,None,1230.3883987297304,None,1239.8752882638946,None,1231.3721145216841,None,1232.3724386635004,None,0.48,7.502772804698907,1235.3735806795303,None,None,1235.3735806795303,None,,,,,,,,,,,,,,,,,,,24071,2019_Aug_13_1528,Mmi_3levels,3.1.5,59.98151711687223,
,,,,,,,,,,,,,,,,,,,,,,,,,,,,,,0,0,0,0,,,,,,,,,,,,,,,,,,,,,,,,,,,,,,,,,,,,,,,,,,,,,,,,,,,,,,,,,,,,,,,,,,,,,,,,,,,,,,,,,,,,,,,,,,,,,,,,,,,,,,,,,,,,,,,,,,,,,,,,,,1241.8760421416955,None,4,2.601036421954632,1241.8760421416955,None,186.77625,4,1244.5103755790042,None,1244.5103755790042,None,1244.5103755790042,None,space,29.89494604303036,1244.5103755790042,None,24071,2019_Aug_13_1528,Mmi_3levels,3.1.5,59.98151711687223,
