currSlide,currImage,currText,blockNum,targetHappiness,highAmount,instructionLoop1.thisRepN,instructionLoop1.thisTrialN,instructionLoop1.thisN,instructionLoop1.thisIndex,instructionLoop2.thisRepN,instructionLoop2.thisTrialN,instructionLoop2.thisN,instructionLoop2.thisIndex,blockLoop.thisRepN,blockLoop.thisTrialN,blockLoop.thisN,blockLoop.thisIndex,trialLoop.thisRepN,trialLoop.thisTrialN,trialLoop.thisN,trialLoop.thisIndex,doRatingLoop.thisRepN,doRatingLoop.thisTrialN,doRatingLoop.thisN,doRatingLoop.thisIndex,trialHappyLoop.thisRepN,trialHappyLoop.thisTrialN,trialHappyLoop.thisN,trialHappyLoop.thisIndex,logWinningsLoop.thisRepN,logWinningsLoop.thisTrialN,logWinningsLoop.thisN,logWinningsLoop.thisIndex,instrImage.started,instrImage.stopped,instrText.started,instrText.stopped,instrContinueText.started,instrContinueText.stopped,instrKeyResp.keys,instrKeyResp.rt,instrKeyResp.started,instrKeyResp.stopped,lifeHappyText.started,lifeHappyText.stopped,lifeHappySlider.response,lifeHappySlider.rt,lifeHappySlider.started,lifeHappySlider.stopped,lifeHappyResp.keys,lifeHappyResp.started,lifeHappyResp.stopped,instrImage_2.started,instrImage_2.stopped,instrText_2.started,instrText_2.stopped,instrContinueText_2.started,instrContinueText_2.stopped,instrKeyResp_2.keys,instrKeyResp_2.rt,instrKeyResp_2.started,instrKeyResp_2.stopped,localizing.started,localizing.stopped,start_exp.keys,start_exp.rt,start_exp.started,start_exp.stopped,blockHappyText.started,blockHappyText.stopped,blockHappySlider.response,blockHappySlider.rt,blockHappySlider.started,blockHappySlider.stopped,blockHappyResp.keys,blockHappyResp.rt,blockHappyResp.started,blockHappyResp.stopped,blankText.started,blankText.stopped,isHappyBlock,isCongruent,isWinOnTop,lastHappyRating,diff,sumDiff,RPE,winAmount,loseAmount,certainAmount,choice,outcome,outcomeAmount,currentWinnings,fixCross.started,fixCross.stopped,certainBox.started,certainBox.stopped,outcome1Box.started,outcome1Box.stopped,outcome2Box.started,outcome2Box.stopped,certainText.started,certainText.stopped,outcome1Text.started,outcome1Text.stopped,outcome2Text.started,outcome2Text.stopped,choiceKey.keys,choiceKey.started,choiceKey.stopped,fixCross_2.started,fixCross_2.stopped,certainBox_2.started,certainBox_2.stopped,outcome1Box_2.started,outcome1Box_2.stopped,outcome2Box_2.started,outcome2Box_2.stopped,certainText_2.started,certainText_2.stopped,outcome1Text_2.started,outcome1Text_2.stopped,outcome2Text_2.started,outcome2Text_2.stopped,fixCross_3.started,fixCross_3.stopped,certainBox_3.started,certainBox_3.stopped,outcome1Box_3.started,outcome1Box_3.stopped,outcome2Box_3.started,outcome2Box_3.stopped,certainText_3.started,certainText_3.stopped,outcome1Text_3.started,outcome1Text_3.stopped,outcome2Text_3.started,outcome2Text_3.stopped,fixCross_ITI.started,fixCross_ITI.stopped,fixCross_ISI.started,fixCross_ISI.stopped,happyText.started,happyText.stopped,happySlider.response,happySlider.rt,happySlider.started,happySlider.stopped,happyResp.keys,happyResp.started,happyResp.stopped,choiceKey.rt,endOfBlockText.started,endOfBlockText.stopped,restKeyResp.keys,restKeyResp.rt,restKeyResp.started,restKeyResp.stopped,finalWinnings,cashBonus,goodbyeText.started,goodbyeText.stopped,finalWinningsText.started,finalWinningsText.stopped,spaceToContinue.started,spaceToContinue.stopped,goodbyeKeyResp_2.keys,goodbyeKeyResp_2.rt,goodbyeKeyResp_2.started,goodbyeKeyResp_2.stopped,participant,date,expName,psychopyVersion,frameRate,
1,black.png,"Welcome! You are about to play our gambling task.
This task has 3 blocks and takes about 15 minutes.",,,,0,0,0,0,,,,,,,,,,,,,,,,,,,,,,,,,1518.6745247277431,None,1518.6745247277431,None,1518.6745247277431,None,4,11.154609881865326,1518.6745247277431,None,,,,,,,,,,,,,,,,,,,,,,,,,,,,,,,,,,,,,,,,,,,,,,,,,,,,,,,,,,,,,,,,,,,,,,,,,,,,,,,,,,,,,,,,,,,,,,,,,,,,,,,,,,,,,,,,,,,,,,,,,,,,,,,,,24227,2019_Nov_04_1123,Mmi_3levels,3.1.5,59.95790683475802,
2,black.png,"In this game, you may win or lose points. Your goal is to get as many points as possible. These points will be converted to a cash bonus at the end.
Sometimes we will ask you to rate your mood.",,,,0,1,1,1,,,,,,,,,,,,,,,,,,,,,,,,,1529.878827488923,None,1529.878827488923,None,1529.878827488923,None,4,2.384575042000506,1529.878827488923,None,,,,,,,,,,,,,,,,,,,,,,,,,,,,,,,,,,,,,,,,,,,,,,,,,,,,,,,,,,,,,,,,,,,,,,,,,,,,,,,,,,,,,,,,,,,,,,,,,,,,,,,,,,,,,,,,,,,,,,,,,,,,,,,,,24227,2019_Nov_04_1123,Mmi_3levels,3.1.5,59.95790683475802,
3,black.png,"On the next screen, please rate how you feel about your life these days. Use the LEFT (green) and RIGHT (blue) buttons to move the slider (you can press and hold them to slide gradually) and the TOP (red) button to lock in your response.
Make your rating as accurately and quickly as you can!",,,,0,2,2,2,,,,,,,,,,,,,,,,,,,,,,,,,1532.3131520474562,None,1532.3131520474562,None,1532.3131520474562,None,4,4.818775766703766,1532.3131520474562,None,,,,,,,,,,,,,,,,,,,,,,,,,,,,,,,,,,,,,,,,,,,,,,,,,,,,,,,,,,,,,,,,,,,,,,,,,,,,,,,,,,,,,,,,,,,,,,,,,,,,,,,,,,,,,,,,,,,,,,,,,,,,,,,,,24227,2019_Nov_04_1123,Mmi_3levels,3.1.5,59.95790683475802,
,,,,,,,,,,,,,,,,,,,,,,,,,,,,,,,,,,,,,,,,,,,,1537.1483551540878,None,0.38,10.502950572699774,1541.1498859577114,None,None,1541.1498859577114,None,,,,,,,,,,,,,,,,,,,,,,,,,,,,,,,,,,,,,,,,,,,,,,,,,,,,,,,,,,,,,,,,,,,,,,,,,,,,,,,,,,,,,,,,,,,,,,,,,,,,,,,,,,,,,,,,,,,,,,,,24227,2019_Nov_04_1123,Mmi_3levels,3.1.5,59.95790683475802,
4,black.png,"In this game you can win money by earning points according to your choices. You will decide whether to gamble a number of points or stick with a guaranteed number of points. 
Make your choice by pressing the left or right arrow key once. An example of one trial is shown on the next screen.",,,,,,,,0,0,0,0,,,,,,,,,,,,,,,,,,,,,,,,,,,,,,,,,,,,,,,,1547.685763526708,None,1547.685763526708,None,1547.685763526708,None,4,2.251091785496101,1547.685763526708,None,,,,,,,,,,,,,,,,,,,,,,,,,,,,,,,,,,,,,,,,,,,,,,,,,,,,,,,,,,,,,,,,,,,,,,,,,,,,,,,,,,,,,,,,,,,,,,,,,,,,,,,,,,,,,,24227,2019_Nov_04_1123,Mmi_3levels,3.1.5,59.95790683475802,
5,example_start.png,"The GAMBLING OPTION will be shown on the RIGHT SIDE. 
Select this option using the RIGHT (blue) button on your keypad.",,,,,,,,0,1,1,1,,,,,,,,,,,,,,,,,,,,,,,,,,,,,,,,,,,,,,,,1550.0033003152348,None,1550.0033003152348,None,1550.0033003152348,None,4,1.1673778844997287,1550.0033003152348,None,,,,,,,,,,,,,,,,,,,,,,,,,,,,,,,,,,,,,,,,,,,,,,,,,,,,,,,,,,,,,,,,,,,,,,,,,,,,,,,,,,,,,,,,,,,,,,,,,,,,,,,,,,,,,,24227,2019_Nov_04_1123,Mmi_3levels,3.1.5,59.95790683475802,
6,example_gamble.png,"Once you select the gambling choice, the choice you made will remain on the screen.",,,,,,,,0,2,2,2,,,,,,,,,,,,,,,,,,,,,,,,,,,,,,,,,,,,,,,,1551.2037607082748,None,1551.2037607082748,None,1551.2037607082748,None,4,1.184052252152469,1551.2037607082748,None,,,,,,,,,,,,,,,,,,,,,,,,,,,,,,,,,,,,,,,,,,,,,,,,,,,,,,,,,,,,,,,,,,,,,,,,,,,,,,,,,,,,,,,,,,,,,,,,,,,,,,,,,,,,,,24227,2019_Nov_04_1123,Mmi_3levels,3.1.5,59.95790683475802,
7,example_win.png,"The outcome you received will then be shown on the screen. In this example , you WON 10 points.",,,,,,,,0,3,3,3,,,,,,,,,,,,,,,,,,,,,,,,,,,,,,,,,,,,,,,,1552.420858990692,None,1552.420858990692,None,1552.420858990692,None,4,1.8509316014824435,1552.420858990692,None,,,,,,,,,,,,,,,,,,,,,,,,,,,,,,,,,,,,,,,,,,,,,,,,,,,,,,,,,,,,,,,,,,,,,,,,,,,,,,,,,,,,,,,,,,,,,,,,,,,,,,,,,,,,,,24227,2019_Nov_04_1123,Mmi_3levels,3.1.5,59.95790683475802,
8,example_start.png,"The GUARANTEED OPTION will be shown on the LEFT SIDE. You are 100% guaranteed to gain or lose this amount. In this example, you have a 100% chance of winning 1 point. Select this option using the LEFT (green) button on your keyboard.",,,,,,,,0,4,4,4,,,,,,,,,,,,,,,,,,,,,,,,,,,,,,,,,,,,,,,,1554.3216217046138,None,1554.3216217046138,None,1554.3216217046138,None,4,1.0340431006043218,1554.3216217046138,None,,,,,,,,,,,,,,,,,,,,,,,,,,,,,,,,,,,,,,,,,,,,,,,,,,,,,,,,,,,,,,,,,,,,,,,,,,,,,,,,,,,,,,,,,,,,,,,,,,,,,,,,,,,,,,24227,2019_Nov_04_1123,Mmi_3levels,3.1.5,59.95790683475802,
9,example_certain.png,"Once you select the guaranteed choice, your selection will remain on the screen.",,,,,,,,0,5,5,5,,,,,,,,,,,,,,,,,,,,,,,,,,,,,,,,,,,,,,,,1555.3887044358999,None,1555.3887044358999,None,1555.3887044358999,None,4,2.167825862125028,1555.3887044358999,None,,,,,,,,,,,,,,,,,,,,,,,,,,,,,,,,,,,,,,,,,,,,,,,,,,,,,,,,,,,,,,,,,,,,,,,,,,,,,,,,,,,,,,,,,,,,,,,,,,,,,,,,,,,,,,24227,2019_Nov_04_1123,Mmi_3levels,3.1.5,59.95790683475802,
10,black.png,"Please make your choices as fast as possible.
You will be given a break at the end of each block.
Let's play!",,,,,,,,0,6,6,6,,,,,,,,,,,,,,,,,,,,,,,,,,,,,,,,,,,,,,,,1557.589450254629,None,1557.589450254629,None,1557.589450254629,None,4,0.9340477723744698,1557.589450254629,None,,,,,,,,,,,,,,,,,,,,,,,,,,,,,,,,,,,,,,,,,,,,,,,,,,,,,,,,,,,,,,,,,,,,,,,,,,,,,,,,,,,,,,,,,,,,,,,,,,,,,,,,,,,,,,24227,2019_Nov_04_1123,Mmi_3levels,3.1.5,59.95790683475802,
,,,,,,,,,,,,,,,,,,,,,,,,,,,,,,,,,,,,,,,,,,,,,,,,,,,,,,,,,,,,,,,1558.539888888714,None,space,254.83164072450018,1558.539888888714,None,,,,,,,,,,,,,,,,,,,,,,,,,,,,,,,,,,,,,,,,,,,,,,,,,,,,,,,,,,,,,,,,,,,,,,,,,,,,,,,,,,,,,,,,,,,,,,,,,,,,,,,,24227,2019_Nov_04_1123,Mmi_3levels,3.1.5,59.95790683475802,
,,,1,1,6.3,,,,,,,,,0,0,0,0,0,0,0,14,,,,,,,,,,,,,,,,,,,,,,,,,,,,,,,,,,,,,,,,,,,,,,,,1813.3880196700338,None,0.42,7.012547853635624,1816.40586837905,None,4,3.9850986638921313,1816.40586837905,None,1820.4073963027913,None,True,True,True,0.42,-0.5800000000000001,-0.5800000000000001,8.700000000000001,6.3,-2.4000000000000012,1.9499999999999993,gamble,win,6.3,6.3,1823.4419225791935,None,1823.4419225791935,None,1823.4419225791935,None,1823.4419225791935,None,1823.4419225791935,None,1823.4419225791935,None,1823.4419225791935,None,None,1823.4419225791935,None,1826.4430495629786,None,1826.4430495629786,None,1826.4430495629786,None,1826.4430495629786,None,1826.4430495629786,None,1826.4430495629786,None,1826.4430495629786,None,1830.4279117586557,None,1830.4279117586557,None,1830.4279117586557,None,1830.4279117586557,None,1830.4279117586557,None,1830.4279117586557,None,1830.4279117586557,None,1831.4283270979067,None,,,,,,,,,,,,,,,,,,,,,,,,,,,,,,,24227,2019_Nov_04_1123,Mmi_3levels,3.1.5,59.95790683475802,
,,,1,1,8.5,,,,,,,,,0,0,0,0,0,1,1,13,,,,,,,,,,,,,,,,,,,,,,,,,,,,,,,,,,,,,,,,,,,,,,,,,,,,,,,,,,,,True,False,True,0.42,-0.5800000000000001,-1.1600000000000001,-2.126666666666667,8.5,6.373333333333333,3.1866666666666665,gamble,lose,6.373333333333333,12.673333333333332,1833.4457537479466,None,1833.4457537479466,None,1833.4457537479466,None,1833.4457537479466,None,1833.4457537479466,None,1833.4457537479466,None,1833.4457537479466,None,None,1833.4457537479466,None,1836.4469300092314,None,1836.4469300092314,None,1836.4469300092314,None,1836.4469300092314,None,1836.4469300092314,None,1836.4469300092314,None,1836.4469300092314,None,1840.4317618064233,None,1840.4317618064233,None,1840.4317618064233,None,1840.4317618064233,None,1840.4317618064233,None,1840.4317618064233,None,1840.4317618064233,None,1841.4321745858178,None,,,,,,,,,,,,,,,,,,,,,,,,,,,,,,,24227,2019_Nov_04_1123,Mmi_3levels,3.1.5,59.95790683475802,
,,,1,1,-1.3,,,,,,,,,0,0,0,0,0,2,2,6,,,,,,,,,,,,,,,,,,,,,,,,,,,,,,,,,,,,,,,,,,,,,,,,,,,,,,,,,,,,True,True,True,0.42,-0.5800000000000001,-1.7400000000000002,9.860000000000001,-1.3,-11.160000000000002,-6.230000000000001,gamble,win,-1.3,11.373333333333331,1843.4495957961772,None,1843.4495957961772,None,1843.4495957961772,None,1843.4495957961772,None,1843.4495957961772,None,1843.4495957961772,None,1843.4495957961772,None,None,1843.4495957961772,None,1846.4507483786438,None,1846.4507483786438,None,1846.4507483786438,None,1846.4507483786438,None,1846.4507483786438,None,1846.4507483786438,None,1846.4507483786438,None,1850.4522948614322,None,1850.4522948614322,None,1850.4522948614322,None,1850.4522948614322,None,1850.4522948614322,None,1850.4522948614322,None,1850.4522948614322,None,1859.9392727914965,None,1851.4360294333892,None,1852.436384615663,None,0.5,7.502815859450493,1855.4375250387238,None,None,1855.4375250387238,None,,,,,,,,,,,,,,,,,,,,24227,2019_Nov_04_1123,Mmi_3levels,3.1.5,59.95790683475802,
,,,1,1,0.7,,,,,,,,,0,0,0,0,0,3,3,21,,,,,,,,,,,,,,,,,,,,,,,,,,,,,,,,,,,,,,,,,,,,,,,,,,,,,,,,,,,,True,True,True,0.5,-0.5,-2.24,9.24,0.7,-8.540000000000001,-3.9200000000000004,gamble,win,0.7,12.07333333333333,1861.9567144808243,None,1861.9567144808243,None,1861.9567144808243,None,1861.9567144808243,None,1861.9567144808243,None,1861.9567144808243,None,1861.9567144808243,None,None,1861.9567144808243,None,1864.9578705831082,None,1864.9578705831082,None,1864.9578705831082,None,1864.9578705831082,None,1864.9578705831082,None,1864.9578705831082,None,1864.9578705831082,None,1868.9427356586093,None,1868.9427356586093,None,1868.9427356586093,None,1868.9427356586093,None,1868.9427356586093,None,1868.9427356586093,None,1868.9427356586093,None,1869.943128279061,None,,,,,,,,,,,,,,,,,,,,,,,,,,,,,,,24227,2019_Nov_04_1123,Mmi_3levels,3.1.5,59.95790683475802,
,,,1,1,5.7,,,,,,,,,0,0,0,0,0,4,4,8,,,,,,,,,,,,,,,,,,,,,,,,,,,,,,,,,,,,,,,,,,,,,,,,,,,,,,,,,,,,True,False,True,0.5,-0.5,-2.74,-1.9783333333333333,5.7,3.7216666666666667,1.8608333333333333,gamble,lose,3.7216666666666667,15.794999999999998,1871.960568368435,None,1871.960568368435,None,1871.960568368435,None,1871.960568368435,None,1871.960568368435,None,1871.960568368435,None,1871.960568368435,None,None,1871.960568368435,None,1874.9617535892758,None,1874.9617535892758,None,1874.9617535892758,None,1874.9617535892758,None,1874.9617535892758,None,1874.9617535892758,None,1874.9617535892758,None,1878.9465764269116,None,1878.9465764269116,None,1878.9465764269116,None,1878.9465764269116,None,1878.9465764269116,None,1878.9465764269116,None,1878.9465764269116,None,1888.4502482435782,None,1879.9469709672267,None,1880.9473549480317,None,0.5,7.502811059704982,1883.9485008108313,None,None,1883.9485008108313,None,,,,,,,,,,,,,,,,,,,,24227,2019_Nov_04_1123,Mmi_3levels,3.1.5,59.95790683475802,
,,,1,1,4.3,,,,,,,,,0,0,0,0,0,5,5,10,,,,,,,,,,,,,,,,,,,,,,,,,,,,,,,,,,,,,,,,,,,,,,,,,,,,,,,,,,,,True,True,True,0.5,-0.5,-3.24,10.24,4.3,-5.94,-0.8200000000000003,gamble,win,4.3,20.095,1890.467693772749,None,1890.467693772749,None,1890.467693772749,None,1890.467693772749,None,1890.467693772749,None,1890.467693772749,None,1890.467693772749,None,None,1890.467693772749,None,1893.4688492350397,None,1893.4688492350397,None,1893.4688492350397,None,1893.4688492350397,None,1893.4688492350397,None,1893.4688492350397,None,1893.4688492350397,None,1897.453714950534,None,1897.453714950534,None,1897.453714950534,None,1897.453714950534,None,1897.453714950534,None,1897.453714950534,None,1897.453714950534,None,1898.4541283699218,None,,,,,,,,,,,,,,,,,,,,,,,,,,,,,,,24227,2019_Nov_04_1123,Mmi_3levels,3.1.5,59.95790683475802,
,,,1,1,11.9,,,,,,,,,0,0,0,0,0,6,6,23,,,,,,,,,,,,,,,,,,,,,,,,,,,,,,,,,,,,,,,,,,,,,,,,,,,,,,,,,,,,True,False,False,0.5,-0.5,-3.74,-2.0616666666666665,11.9,9.838333333333335,4.919166666666667,gamble,lose,9.838333333333335,29.933333333333334,1900.4715441404842,None,1900.4715441404842,None,1900.4715441404842,None,1900.4715441404842,None,1900.4715441404842,None,1900.4715441404842,None,1900.4715441404842,None,None,1900.4715441404842,None,1903.4726964029833,None,1903.4726964029833,None,1903.4726964029833,None,1903.4726964029833,None,1903.4726964029833,None,1903.4726964029833,None,1903.4726964029833,None,1907.4575685181771,None,1907.4575685181771,None,1907.4575685181771,None,1907.4575685181771,None,1907.4575685181771,None,1907.4575685181771,None,1907.4575685181771,None,1908.4579531389754,None,,,,,,,,,,,,,,,,,,,,,,,,,,,,,,,24227,2019_Nov_04_1123,Mmi_3levels,3.1.5,59.95790683475802,
,,,1,1,-0.9,,,,,,,,,0,0,0,0,0,7,7,9,,,,,,,,,,,,,,,,,,,,,,,,,,,,,,,,,,,,,,,,,,,,,,,,,,,,,,,,,,,,True,True,True,0.5,-0.5,-4.24,11.24,-0.9,-12.14,-6.5200000000000005,certain,certain,-6.5200000000000005,23.413333333333334,1910.4753817089368,None,1910.4753817089368,None,1910.4753817089368,None,1910.4753817089368,None,1910.4753817089368,None,1910.4753817089368,None,1910.4753817089368,None,3,1910.4753817089368,None,1912.8429646391887,None,1912.8429646391887,None,1912.8429646391887,None,1912.8429646391887,None,1912.8429646391887,None,1912.8429646391887,None,1912.8429646391887,None,1916.8445136818918,None,1916.8445136818918,None,1916.8445136818918,None,1916.8445136818918,None,1916.8445136818918,None,1916.8445136818918,None,1916.8445136818918,None,1926.3314957717084,None,1917.8282818521839,None,1918.8285720776767,None,0.46,7.50278706086101,1921.8298094558995,None,None,1921.8298094558995,None,2.3345295402687043,,,,,,,,,,,,,,,,,,,24227,2019_Nov_04_1123,Mmi_3levels,3.1.5,59.95790683475802,
,,,1,1,2.9,,,,,,,,,0,0,0,0,0,8,8,20,,,,,,,,,,,,,,,,,,,,,,,,,,,,,,,,,,,,,,,,,,,,,,,,,,,,,,,,,,,,True,True,True,0.46,-0.54,-4.78,12.34,2.9,-9.44,-3.2699999999999996,gamble,win,2.9,26.313333333333333,1928.3489710593713,None,1928.3489710593713,None,1928.3489710593713,None,1928.3489710593713,None,1928.3489710593713,None,1928.3489710593713,None,1928.3489710593713,None,1,1928.3489710593713,None,1930.1829755058861,None,1930.1829755058861,None,1930.1829755058861,None,1930.1829755058861,None,1930.1829755058861,None,1930.1829755058861,None,1930.1829755058861,None,1934.1845187888248,None,1934.1845187888248,None,1934.1845187888248,None,1934.1845187888248,None,1934.1845187888248,None,1934.1845187888248,None,1934.1845187888248,None,1935.1682236022898,None,,,,,,,,,,,,1.8009049788233824,,,,,,,,,,,,,,,,,,,24227,2019_Nov_04_1123,Mmi_3levels,3.1.5,59.95790683475802,
,,,1,1,-0.1,,,,,,,,,0,0,0,0,0,9,9,15,,,,,,,,,,,,,,,,,,,,,,,,,,,,,,,,,,,,,,,,,,,,,,,,,,,,,,,,,,,,True,True,False,0.46,-0.54,-5.32,12.88,-0.1,-12.98,-6.54,gamble,win,-0.1,26.21333333333333,1937.185671691259,None,1937.185671691259,None,1937.185671691259,None,1937.185671691259,None,1937.185671691259,None,1937.185671691259,None,1937.185671691259,None,None,1937.185671691259,None,1940.18683131336,None,1940.18683131336,None,1940.18683131336,None,1940.18683131336,None,1940.18683131336,None,1940.18683131336,None,1940.18683131336,None,1944.188375236292,None,1944.188375236292,None,1944.188375236292,None,1944.188375236292,None,1944.188375236292,None,1944.188375236292,None,1944.188375236292,None,1953.6753470866825,None,1945.1720746100182,None,1946.1724627506337,None,0.48,7.502721784170717,1949.1736079734983,None,None,1949.1736079734983,None,,,,,,,,,,,,,,,,,,,,24227,2019_Nov_04_1123,Mmi_3levels,3.1.5,59.95790683475802,
,,,1,1,8.7,,,,,,,,,0,0,0,0,0,10,10,25,,,,,,,,,,,,,,,,,,,,,,,,,,,,,,,,,,,,,,,,,,,,,,,,,,,,,,,,,,,,True,False,True,0.48,-0.52,-5.84,-2.3066666666666666,8.7,6.393333333333333,3.1966666666666663,gamble,lose,6.393333333333333,32.60666666666666,1955.692797735508,None,1955.692797735508,None,1955.692797735508,None,1955.692797735508,None,1955.692797735508,None,1955.692797735508,None,1955.692797735508,None,1,1955.692797735508,None,1956.7765455548652,None,1956.7765455548652,None,1956.7765455548652,None,1956.7765455548652,None,1956.7765455548652,None,1956.7765455548652,None,1956.7765455548652,None,1960.7614154301118,None,1960.7614154301118,None,1960.7614154301118,None,1960.7614154301118,None,1960.7614154301118,None,1960.7614154301118,None,1960.7614154301118,None,1961.7617958911578,None,,,,,,,,,,,,1.0504797200555913,,,,,,,,,,,,,,,,,,,24227,2019_Nov_04_1123,Mmi_3levels,3.1.5,59.95790683475802,
,,,1,1,13.7,,,,,,,,,0,0,0,0,0,11,11,2,,,,,,,,,,,,,,,,,,,,,,,,,,,,,,,,,,,,,,,,,,,,,,,,,,,,,,,,,,,,True,True,True,0.48,-0.52,-6.359999999999999,13.64,13.7,0.05999999999999872,0.02999999999999936,gamble,win,13.7,46.30666666666666,1963.7792401403422,None,1963.7792401403422,None,1963.7792401403422,None,1963.7792401403422,None,1963.7792401403422,None,1963.7792401403422,None,1963.7792401403422,None,1,1963.7792401403422,None,1964.646240699687,None,1964.646240699687,None,1964.646240699687,None,1964.646240699687,None,1964.646240699687,None,1964.646240699687,None,1964.646240699687,None,1968.6478015817702,None,1968.6478015817702,None,1968.6478015817702,None,1968.6478015817702,None,1968.6478015817702,None,1968.6478015817702,None,1968.6478015817702,None,1978.1348303892883,None,1969.6315486331005,None,1970.6318708569743,None,0.5,7.502801460155752,1973.6330618375214,None,None,1973.6330618375214,None,0.8339410896296613,,,,,,,,,,,,,,,,,,,24227,2019_Nov_04_1123,Mmi_3levels,3.1.5,59.95790683475802,
,,,1,1,9.1,,,,,,,,,0,0,0,0,0,12,12,17,,,,,,,,,,,,,,,,,,,,,,,,,,,,,,,,,,,,,,,,,,,,,,,,,,,,,,,,,,,,True,True,True,0.5,-0.5,-6.859999999999999,13.86,9.1,-4.76,-2.38,gamble,win,9.1,55.40666666666666,1980.152212241548,None,1980.152212241548,None,1980.152212241548,None,1980.152212241548,None,1980.152212241548,None,1980.152212241548,None,1980.152212241548,None,1,1980.152212241548,None,1981.4860554161132,None,1981.4860554161132,None,1981.4860554161132,None,1981.4860554161132,None,1981.4860554161132,None,1981.4860554161132,None,1981.4860554161132,None,1985.4709121720516,None,1985.4709121720516,None,1985.4709121720516,None,1985.4709121720516,None,1985.4709121720516,None,1985.4709121720516,None,1985.4709121720516,None,1986.4713054324384,None,,,,,,,,,,,,1.3007718654698692,,,,,,,,,,,,,,,,,,,24227,2019_Nov_04_1123,Mmi_3levels,3.1.5,59.95790683475802,
,,,1,1,10.1,,,,,,,,,0,0,0,0,0,13,13,11,,,,,,,,,,,,,,,,,,,,,,,,,,,,,,,,,,,,,,,,,,,,,,,,,,,,,,,,,,,,True,True,True,0.5,-0.5,-7.359999999999999,14.36,10.1,-4.26,-2.13,certain,certain,-2.13,53.27666666666666,1988.48875320144,None,1988.48875320144,None,1988.48875320144,None,1988.48875320144,None,1988.48875320144,None,1988.48875320144,None,1988.48875320144,None,3,1988.48875320144,None,1989.9393063898315,None,1989.9393063898315,None,1989.9393063898315,None,1989.9393063898315,None,1989.9393063898315,None,1989.9393063898315,None,1989.9393063898315,None,1993.9408519126591,None,1993.9408519126591,None,1993.9408519126591,None,1993.9408519126591,None,1993.9408519126591,None,1993.9408519126591,None,1993.9408519126591,None,1994.9245637657586,None,,,,,,,,,,,,1.4174441211507656,,,,,,,,,,,,,,,,,,,24227,2019_Nov_04_1123,Mmi_3levels,3.1.5,59.95790683475802,
,,,1,1,3.3,,,,,,,,,0,0,0,0,0,14,14,22,,,,,,,,,,,,,,,,,,,,,,,,,,,,,,,,,,,,,,,,,,,,,,,,,,,,,,,,,,,,True,True,True,0.5,-0.5,-7.859999999999999,14.86,3.3,-11.559999999999999,-4.129999999999999,gamble,win,3.3,56.576666666666654,1996.942005775054,None,1996.942005775054,None,1996.942005775054,None,1996.942005775054,None,1996.942005775054,None,1996.942005775054,None,1996.942005775054,None,1,1996.942005775054,None,1998.1758145833155,None,1998.1758145833155,None,1998.1758145833155,None,1998.1758145833155,None,1998.1758145833155,None,1998.1758145833155,None,1998.1758145833155,None,2002.1773505066521,None,2002.1773505066521,None,2002.1773505066521,None,2002.1773505066521,None,2002.1773505066521,None,2002.1773505066521,None,2002.1773505066521,None,2011.6643783542095,None,2003.1610677994904,None,2004.161449220439,None,0.5,7.502787380828522,2007.1626011629705,None,None,2007.1626011629705,None,1.2006987811182626,,,,,,,,,,,,,,,,,,,24227,2019_Nov_04_1123,Mmi_3levels,3.1.5,59.95790683475802,
,,,1,1,3.9,,,,,,,,,0,0,0,0,0,15,15,16,,,,,,,,,,,,,,,,,,,,,,,,,,,,,,,,,,,,,,,,,,,,,,,,,,,,,,,,,,,,True,False,False,0.5,-0.5,-8.36,-2.4466666666666668,3.9,1.4533333333333331,0.7266666666666666,gamble,lose,1.4533333333333331,58.02999999999999,2013.6817810054636,None,2013.6817810054636,None,2013.6817810054636,None,2013.6817810054636,None,2013.6817810054636,None,2013.6817810054636,None,2013.6817810054636,None,1,2013.6817810054636,None,2014.5987931482377,None,2014.5987931482377,None,2014.5987931482377,None,2014.5987931482377,None,2014.5987931482377,None,2014.5987931482377,None,2014.5987931482377,None,2018.5836636634776,None,2018.5836636634776,None,2018.5836636634776,None,2018.5836636634776,None,2018.5836636634776,None,2018.5836636634776,None,2018.5836636634776,None,2019.5839724480757,None,,,,,,,,,,,,0.8837542829569429,,,,,,,,,,,,,,,,,,,24227,2019_Nov_04_1123,Mmi_3levels,3.1.5,59.95790683475802,
,,,1,1,13.3,,,,,,,,,0,0,0,0,0,16,16,19,,,,,,,,,,,,,,,,,,,,,,,,,,,,,,,,,,,,,,,,,,,,,,,,,,,,,,,,,,,,True,True,True,0.5,-0.5,-8.86,15.86,13.3,-2.5599999999999987,-1.2799999999999994,gamble,win,13.3,71.32999999999998,2021.6014573352295,None,2021.6014573352295,None,2021.6014573352295,None,2021.6014573352295,None,2021.6014573352295,None,2021.6014573352295,None,2021.6014573352295,None,1,2021.6014573352295,None,2023.018709466036,None,2023.018709466036,None,2023.018709466036,None,2023.018709466036,None,2023.018709466036,None,2023.018709466036,None,2023.018709466036,None,2027.0202466693008,None,2027.0202466693008,None,2027.0202466693008,None,2027.0202466693008,None,2027.0202466693008,None,2027.0202466693008,None,2027.0202466693008,None,2036.507232918928,None,2028.0039582023746,None,2029.0043396233814,None,0.5,7.502804340037983,2032.0054822863312,None,None,2032.0054822863312,None,1.3841961809666827,,,,,,,,,,,,,,,,,,,24227,2019_Nov_04_1123,Mmi_3levels,3.1.5,59.95790683475802,
,,,1,1,10.5,,,,,,,,,0,0,0,0,0,17,17,12,,,,,,,,,,,,,,,,,,,,,,,,,,,,,,,,,,,,,,,,,,,,,,,,,,,,,,,,,,,,True,True,False,0.5,-0.5,-9.36,16.36,10.5,-5.859999999999999,-2.9299999999999997,certain,certain,-2.9299999999999997,68.39999999999998,2038.5246710884385,None,2038.5246710884385,None,2038.5246710884385,None,2038.5246710884385,None,2038.5246710884385,None,2038.5246710884385,None,2038.5246710884385,None,3,2038.5246710884385,None,2039.8585209826124,None,2039.8585209826124,None,2039.8585209826124,None,2039.8585209826124,None,2039.8585209826124,None,2039.8585209826124,None,2039.8585209826124,None,2043.8600597858313,None,2043.8600597858313,None,2043.8600597858313,None,2043.8600597858313,None,2043.8600597858313,None,2043.8600597858313,None,2043.8600597858313,None,2044.8437770786695,None,,,,,,,,,,,,1.3008000240661204,,,,,,,,,,,,,,,,,,,24227,2019_Nov_04_1123,Mmi_3levels,3.1.5,59.95790683475802,
,,,1,1,4.5,,,,,,,,,0,0,0,0,0,18,18,0,,,,,,,,,,,,,,,,,,,,,,,,,,,,,,,,,,,,,,,,,,,,,,,,,,,,,,,,,,,,True,False,True,0.5,-0.5,-9.86,-2.5716666666666668,4.5,1.9283333333333332,0.9641666666666666,gamble,lose,1.9283333333333332,70.3283333333333,2046.8612725252751,None,2046.8612725252751,None,2046.8612725252751,None,2046.8612725252751,None,2046.8612725252751,None,2046.8612725252751,None,2046.8612725252751,None,1,2046.8612725252751,None,2048.228417077393,None,2048.228417077393,None,2048.228417077393,None,2048.228417077393,None,2048.228417077393,None,2048.228417077393,None,2048.228417077393,None,2052.213278633135,None,2052.213278633135,None,2052.213278633135,None,2052.213278633135,None,2052.213278633135,None,2052.213278633135,None,2052.213278633135,None,2053.213659734116,None,,,,,,,,,,,,1.3340553239686415,,,,,,,,,,,,,,,,,,,24227,2019_Nov_04_1123,Mmi_3levels,3.1.5,59.95790683475802,
,,,1,1,7.9,,,,,,,,,0,0,0,0,0,19,19,7,,,,,,,,,,,,,,,,,,,,,,,,,,,,,,,,,,,,,,,,,,,,,,,,,,,,,,,,,,,,True,False,False,0.5,-0.5,-10.36,-2.6133333333333333,7.9,5.286666666666667,2.6433333333333335,gamble,lose,5.286666666666667,75.61499999999997,2055.231106543157,None,2055.231106543157,None,2055.231106543157,None,2055.231106543157,None,2055.231106543157,None,2055.231106543157,None,2055.231106543157,None,1,2055.231106543157,None,2056.1481212457875,None,2056.1481212457875,None,2056.1481212457875,None,2056.1481212457875,None,2056.1481212457875,None,2056.1481212457875,None,2056.1481212457875,None,2060.1329828014714,None,2060.1329828014714,None,2060.1329828014714,None,2060.1329828014714,None,2060.1329828014714,None,2060.1329828014714,None,2060.1329828014714,None,2069.636712215317,None,2061.133434298972,None,2062.1338230795227,None,0.5,7.5028302587452345,2065.134870067297,None,None,2065.134870067297,None,0.8839206746779382,,,,,,,,,,,,,,,,,,,24227,2019_Nov_04_1123,Mmi_3levels,3.1.5,59.95790683475802,
,,,1,1,0.1,,,,,,,,,0,0,0,0,0,20,20,26,,,,,,,,,,,,,,,,,,,,,,,,,,,,,,,,,,,,,,,,,,,,,,,,,,,,,,,,,,,,True,False,True,0.5,-0.5,-10.86,-2.655,0.1,-2.5549999999999997,-1.2274999999999998,certain,certain,-1.2274999999999998,74.38749999999996,2071.6540886278963,None,2071.6540886278963,None,2071.6540886278963,None,2071.6540886278963,None,2071.6540886278963,None,2071.6540886278963,None,2071.6540886278963,None,3,2071.6540886278963,None,2073.3880907064886,None,2073.3880907064886,None,2073.3880907064886,None,2073.3880907064886,None,2073.3880907064886,None,2073.3880907064886,None,2073.3880907064886,None,2077.3729596218327,None,2077.3729596218327,None,2077.3729596218327,None,2077.3729596218327,None,2077.3729596218327,None,2077.3729596218327,None,2077.3729596218327,None,2078.373340402846,None,,,,,,,,,,,,1.7009560482692905,,,,,,,,,,,,,,,,,,,24227,2019_Nov_04_1123,Mmi_3levels,3.1.5,59.95790683475802,
,,,1,1,2.1,,,,,,,,,0,0,0,0,0,21,21,24,,,,,,,,,,,,,,,,,,,,,,,,,,,,,,,,,,,,,,,,,,,,,,,,,,,,,,,,,,,,True,True,True,0.5,-0.5,-11.36,18.36,2.1,-16.259999999999998,-7.079999999999999,certain,certain,-7.079999999999999,67.30749999999996,2080.3907900917693,None,2080.3907900917693,None,2080.3907900917693,None,2080.3907900917693,None,2080.3907900917693,None,2080.3907900917693,None,2080.3907900917693,None,3,2080.3907900917693,None,2081.824681711907,None,2081.824681711907,None,2081.824681711907,None,2081.824681711907,None,2081.824681711907,None,2081.824681711907,None,2081.824681711907,None,2085.8262035559164,None,2085.8262035559164,None,2085.8262035559164,None,2085.8262035559164,None,2085.8262035559164,None,2085.8262035559164,None,2085.8262035559164,None,2095.3131997250603,None,2086.809926608461,None,2087.810315069044,None,0.48,7.502794740488753,2090.8114506923594,None,None,2090.8114506923594,None,1.4007828729227185,,,,,,,,,,,,,,,,,,,24227,2019_Nov_04_1123,Mmi_3levels,3.1.5,59.95790683475802,
,,,1,1,13.1,,,,,,,,,0,0,0,0,0,22,22,4,,,,,,,,,,,,,,,,,,,,,,,,,,,,,,,,,,,,,,,,,,,,,,,,,,,,,,,,,,,,True,False,False,0.48,-0.52,-11.879999999999999,-2.81,13.1,10.29,5.145,gamble,lose,10.29,77.59749999999997,2097.330637574545,None,2097.330637574545,None,2097.330637574545,None,2097.330637574545,None,2097.330637574545,None,2097.330637574545,None,2097.330637574545,None,1,2097.330637574545,None,2098.2976501013036,None,2098.2976501013036,None,2098.2976501013036,None,2098.2976501013036,None,2098.2976501013036,None,2098.2976501013036,None,2098.2976501013036,None,2102.299225702649,None,2102.299225702649,None,2102.299225702649,None,2102.299225702649,None,2102.299225702649,None,2102.299225702649,None,2102.299225702649,None,2103.2829295561532,None,,,,,,,,,,,,0.9337706661317497,,,,,,,,,,,,,,,,,,,24227,2019_Nov_04_1123,Mmi_3levels,3.1.5,59.95790683475802,
,,,1,1,10.7,,,,,,,,,0,0,0,0,0,23,23,18,,,,,,,,,,,,,,,,,,,,,,,,,,,,,,,,,,,,,,,,,,,,,,,,,,,,,,,,,,,,True,False,True,0.48,-0.52,-12.399999999999999,-2.8533333333333335,10.7,7.846666666666666,3.923333333333333,gamble,lose,7.846666666666666,85.44416666666663,2105.300376365194,None,2105.300376365194,None,2105.300376365194,None,2105.300376365194,None,2105.300376365194,None,2105.300376365194,None,2105.300376365194,None,1,2105.300376365194,None,2107.701262912946,None,2107.701262912946,None,2107.701262912946,None,2107.701262912946,None,2107.701262912946,None,2107.701262912946,None,2107.701262912946,None,2111.7028337145457,None,2111.7028337145457,None,2111.7028337145457,None,2111.7028337145457,None,2111.7028337145457,None,2111.7028337145457,None,2111.7028337145457,None,2121.1897828460205,None,2112.6865526072797,None,2113.6869353082147,None,0.5,7.502841138164513,2116.688077011204,None,None,2116.688077011204,None,2.3678072390612215,,,,,,,,,,,,,,,,,,,24227,2019_Nov_04_1123,Mmi_3levels,3.1.5,59.95790683475802,
,,,1,1,8.9,,,,,,,,,0,0,0,0,0,24,24,5,,,,,,,,,,,,,,,,,,,,,,,,,,,,,,,,,,,,,,,,,,,,,,,,,,,,,,,,,,,,True,True,False,0.5,-0.5,-12.899999999999999,19.9,8.9,-10.999999999999998,-1.049999999999999,gamble,win,8.9,94.34416666666664,2123.2072638933896,None,2123.2072638933896,None,2123.2072638933896,None,2123.2072638933896,None,2123.2072638933896,None,2123.2072638933896,None,2123.2072638933896,None,1,2123.2072638933896,None,2125.3080742209568,None,2125.3080742209568,None,2125.3080742209568,None,2125.3080742209568,None,2125.3080742209568,None,2125.3080742209568,None,2125.3080742209568,None,2129.3096114242217,None,2129.3096114242217,None,2129.3096114242217,None,2129.3096114242217,None,2129.3096114242217,None,2129.3096114242217,None,2129.3096114242217,None,2130.293326157145,None,,,,,,,,,,,,2.067720459366683,,,,,,,,,,,,,,,,,,,24227,2019_Nov_04_1123,Mmi_3levels,3.1.5,59.95790683475802,
,,,1,1,9.9,,,,,,,,,0,0,0,0,0,25,25,3,,,,,,,,,,,,,,,,,,,,,,,,,,,,,,,,,,,,,,,,,,,,,,,,,,,,,,,,,,,,True,False,True,0.5,-0.5,-13.399999999999999,-2.8666666666666663,9.9,7.033333333333334,3.516666666666667,gamble,lose,7.033333333333334,101.37749999999997,2132.3107668865123,None,2132.3107668865123,None,2132.3107668865123,None,2132.3107668865123,None,2132.3107668865123,None,2132.3107668865123,None,2132.3107668865123,None,1,2132.3107668865123,None,2133.7446527469438,None,2133.7446527469438,None,2133.7446527469438,None,2133.7446527469438,None,2133.7446527469438,None,2133.7446527469438,None,2133.7446527469438,None,2137.7295210222946,None,2137.7295210222946,None,2137.7295210222946,None,2137.7295210222946,None,2137.7295210222946,None,2137.7295210222946,None,2137.7295210222946,None,2138.7298963635694,None,,,,,,,,,,,,1.400792152446229,,,,,,,,,,,,,,,,,,,24227,2019_Nov_04_1123,Mmi_3levels,3.1.5,59.95790683475802,
,,,1,1,7.5,,,,,,,,,0,0,0,0,0,26,26,1,,,,,,,,,,,,,,,,,,,,,,,,,,,,,,,,,,,,,,,,,,,,,,,,,,,,,,,,,,,,True,False,True,0.5,-0.5,-13.899999999999999,-2.908333333333333,7.5,4.591666666666667,2.2958333333333334,gamble,lose,4.591666666666667,105.96916666666664,2140.7473335731192,None,2140.7473335731192,None,2140.7473335731192,None,2140.7473335731192,None,2140.7473335731192,None,2140.7473335731192,None,2140.7473335731192,None,1,2140.7473335731192,None,2142.2479895403376,None,2142.2479895403376,None,2142.2479895403376,None,2142.2479895403376,None,2142.2479895403376,None,2142.2479895403376,None,2142.2479895403376,None,2146.2327819795464,None,2146.2327819795464,None,2146.2327819795464,None,2146.2327819795464,None,2146.2327819795464,None,2146.2327819795464,None,2146.2327819795464,None,2155.7364467565785,None,2147.2331742799142,None,2148.233564660477,None,0.5,7.50282193912426,2151.234707963362,None,None,2151.234707963362,None,1.4673289909260347,,,,,,,,,,,,,,,,,,,24227,2019_Nov_04_1123,Mmi_3levels,3.1.5,59.95790683475802,
,,,2,0,11.1,,,,,,,,,0,1,1,1,0,0,0,26,,,,,,,,,,,,,,,,,,,,,,,,,,,,,,,,,,,,,,,,,,,,,,,,2161.5053373335395,None,0.48,5.450999886088539,2164.523155004077,None,4,2.417806343117263,2164.523155004077,None,2166.9574184456724,None,False,True,True,0.48,0.48,0.48,-7.199999999999999,11.1,3.9000000000000004,1.9500000000000002,gamble,lose,3.9000000000000004,109.86916666666664,2169.9752623548848,None,2169.9752623548848,None,2169.9752623548848,None,2169.9752623548848,None,2169.9752623548848,None,2169.9752623548848,None,2169.9752623548848,None,1,2169.9752623548848,None,2171.8426484949887,None,2171.8426484949887,None,2171.8426484949887,None,2171.8426484949887,None,2171.8426484949887,None,2171.8426484949887,None,2171.8426484949887,None,2175.8275154904113,None,2175.8275154904113,None,2175.8275154904113,None,2175.8275154904113,None,2175.8275154904113,None,2175.8275154904113,None,2175.8275154904113,None,2176.8278697127244,None,,,,,,,,,,,,1.8342876323731616,2157.737214718247,None,4,3.7516523975064047,2157.737214718247,None,,,,,,,,,,,,,24227,2019_Nov_04_1123,Mmi_3levels,3.1.5,59.95790683475802,
,,,2,0,8.3,,,,,,,,,0,1,1,1,0,1,1,17,,,,,,,,,,,,,,,,,,,,,,,,,,,,,,,,,,,,,,,,,,,,,,,,,,,,,,,,,,,,False,False,False,0.48,0.48,0.96,1.76,2.075,0.31500000000000017,1.1950000000000003,gamble,win,2.075,111.94416666666665,2178.845345640322,None,2178.845345640322,None,2178.845345640322,None,2178.845345640322,None,2178.845345640322,None,2178.845345640322,None,2178.845345640322,None,1,2178.845345640322,None,2180.195860942593,None,2180.195860942593,None,2180.195860942593,None,2180.195860942593,None,2180.195860942593,None,2180.195860942593,None,2180.195860942593,None,2184.1807285780087,None,2184.1807285780087,None,2184.1807285780087,None,2184.1807285780087,None,2184.1807285780087,None,2184.1807285780087,None,2184.1807285780087,None,2193.684388875321,None,2185.181125038245,None,2186.181493659853,None,0.47,7.502847857889719,2189.182637602731,None,None,2189.182637602731,None,1.3174647921696305,,,,,,,,,,,,,,,,,,,24227,2019_Nov_04_1123,Mmi_3levels,3.1.5,59.95790683475802,
,,,2,0,10.1,,,,,,,,,0,1,1,1,0,2,2,24,,,,,,,,,,,,,,,,,,,,,,,,,,,,,,,,,,,,,,,,,,,,,,,,,,,,,,,,,,,,False,True,True,0.47,0.47,1.43,-8.01,10.1,2.09,1.045,gamble,lose,2.09,114.03416666666665,2195.701831204584,None,2195.701831204584,None,2195.701831204584,None,2195.701831204584,None,2195.701831204584,None,2195.701831204584,None,2195.701831204584,None,1,2195.701831204584,None,2198.3695252332836,None,2198.3695252332836,None,2198.3695252332836,None,2198.3695252332836,None,2198.3695252332836,None,2198.3695252332836,None,2198.3695252332836,None,2202.371061476588,None,2202.371061476588,None,2202.371061476588,None,2202.371061476588,None,2202.371061476588,None,2202.371061476588,None,2202.371061476588,None,2203.3547768495628,None,,,,,,,,,,,,2.6346003207727335,,,,,,,,,,,,,,,,,,,24227,2019_Nov_04_1123,Mmi_3levels,3.1.5,59.95790683475802,
,,,2,0,9.7,,,,,,,,,0,1,1,1,0,3,3,21,,,,,,,,,,,,,,,,,,,,,,,,,,,,,,,,,,,,,,,,,,,,,,,,,,,,,,,,,,,,False,True,True,0.47,0.47,1.9,-8.48,9.7,1.2199999999999989,0.6099999999999994,gamble,lose,1.2199999999999989,115.25416666666665,2205.3722185388324,None,2205.3722185388324,None,2205.3722185388324,None,2205.3722185388324,None,2205.3722185388324,None,2205.3722185388324,None,2205.3722185388324,None,1,2205.3722185388324,None,2208.189979316201,None,2208.189979316201,None,2208.189979316201,None,2208.189979316201,None,2208.189979316201,None,2208.189979316201,None,2208.189979316201,None,2212.1748287125374,None,2212.1748287125374,None,2212.1748287125374,None,2212.1748287125374,None,2212.1748287125374,None,2212.1748287125374,None,2212.1748287125374,None,2221.6784874098958,None,2213.1752210129634,None,2214.1756065937225,None,0.46,7.502852657635231,2217.176748936705,None,None,2217.176748936705,None,2.784667709376663,,,,,,,,,,,,,,,,,,,24227,2019_Nov_04_1123,Mmi_3levels,3.1.5,59.95790683475802,
,,,2,0,13.3,,,,,,,,,0,1,1,1,0,4,4,14,,,,,,,,,,,,,,,,,,,,,,,,,,,,,,,,,,,,,,,,,,,,,,,,,,,,,,,,,,,,False,False,False,0.46,0.46,2.36,1.8066666666666666,3.325,1.5183333333333335,0.7591666666666668,certain,certain,0.7591666666666668,116.01333333333332,2223.6959412586293,None,2223.6959412586293,None,2223.6959412586293,None,2223.6959412586293,None,2223.6959412586293,None,2223.6959412586293,None,2223.6959412586293,None,3,2223.6959412586293,None,2226.5637136194273,None,2226.5637136194273,None,2226.5637136194273,None,2226.5637136194273,None,2226.5637136194273,None,2226.5637136194273,None,2226.5637136194273,None,2230.5484913393157,None,2230.5484913393157,None,2230.5484913393157,None,2230.5484913393157,None,2230.5484913393157,None,2230.5484913393157,None,2230.5484913393157,None,2231.5489565960597,None,,,,,,,,,,,,2.8346680933609605,,,,,,,,,,,,,,,,,,,24227,2019_Nov_04_1123,Mmi_3levels,3.1.5,59.95790683475802,
,,,2,0,4.5,,,,,,,,,0,1,1,1,0,5,5,16,,,,,,,,,,,,,,,,,,,,,,,,,,,,,,,,,,,,,,,,,,,,,,,,,,,,,,,,,,,,False,True,True,0.46,0.46,2.82,-9.26,4.5,-4.76,-0.1299999999999999,gamble,lose,-4.76,111.25333333333332,2233.566406284983,None,2233.566406284983,None,2233.566406284983,None,2233.566406284983,None,2233.566406284983,None,2233.566406284983,None,2233.566406284983,None,None,2233.566406284983,None,2236.567556307593,None,2236.567556307593,None,2236.567556307593,None,2236.567556307593,None,2236.567556307593,None,2236.567556307593,None,2236.567556307593,None,2240.5524220230873,None,2240.5524220230873,None,2240.5524220230873,None,2240.5524220230873,None,2240.5524220230873,None,2240.5524220230873,None,2240.5524220230873,None,2241.552807283879,None,,,,,,,,,,,,,,,,,,,,,,,,,,,,,,,24227,2019_Nov_04_1123,Mmi_3levels,3.1.5,59.95790683475802,
,,,2,0,7.3,,,,,,,,,0,1,1,1,0,6,6,23,,,,,,,,,,,,,,,,,,,,,,,,,,,,,,,,,,,,,,,,,,,,,,,,,,,,,,,,,,,,False,True,False,0.46,0.46,3.28,-9.72,7.3,-2.420000000000001,-1.2100000000000004,gamble,lose,-2.420000000000001,108.83333333333331,2243.570256012841,None,2243.570256012841,None,2243.570256012841,None,2243.570256012841,None,2243.570256012841,None,2243.570256012841,None,2243.570256012841,None,1,2243.570256012841,None,2245.9044828481856,None,2245.9044828481856,None,2245.9044828481856,None,2245.9044828481856,None,2245.9044828481856,None,2245.9044828481856,None,2245.9044828481856,None,2249.9060222913395,None,2249.9060222913395,None,2249.9060222913395,None,2249.9060222913395,None,2249.9060222913395,None,2249.9060222913395,None,2249.9060222913395,None,2259.3929970216122,None,2250.8897763823625,None,2251.8901216451195,None,0.46,7.502969771740027,2254.8912531086244,None,None,2254.8912531086244,None,2.3011206480441615,,,,,,,,,,,,,,,,,,,24227,2019_Nov_04_1123,Mmi_3levels,3.1.5,59.95790683475802,
,,,2,0,0.7,,,,,,,,,0,1,1,1,0,7,7,11,,,,,,,,,,,,,,,,,,,,,,,,,,,,,,,,,,,,,,,,,,,,,,,,,,,,,,,,,,,,False,True,True,0.46,0.46,3.7399999999999998,-10.18,0.7,-9.48,-4.390000000000001,gamble,lose,-9.48,99.35333333333331,2261.4104486303986,None,2261.4104486303986,None,2261.4104486303986,None,2261.4104486303986,None,2261.4104486303986,None,2261.4104486303986,None,2261.4104486303986,None,1,2261.4104486303986,None,2263.911417861993,None,2263.911417861993,None,2263.911417861993,None,2263.911417861993,None,2263.911417861993,None,2263.911417861993,None,2263.911417861993,None,2267.9129569851793,None,2267.9129569851793,None,2267.9129569851793,None,2267.9129569851793,None,2267.9129569851793,None,2267.9129569851793,None,2267.9129569851793,None,2268.896662118612,None,,,,,,,,,,,,2.467887363047339,,,,,,,,,,,,,,,,,,,24227,2019_Nov_04_1123,Mmi_3levels,3.1.5,59.95790683475802,
,,,2,0,6.9,,,,,,,,,0,1,1,1,0,8,8,4,,,,,,,,,,,,,,,,,,,,,,,,,,,,,,,,,,,,,,,,,,,,,,,,,,,,,,,,,,,,False,True,False,0.46,0.46,4.2,-10.64,6.9,-3.74,1.58,gamble,lose,-3.74,95.61333333333332,2270.9141172472737,None,2270.9141172472737,None,2270.9141172472737,None,2270.9141172472737,None,2270.9141172472737,None,2270.9141172472737,None,2270.9141172472737,None,1,2270.9141172472737,None,2273.565128588758,None,2273.565128588758,None,2273.565128588758,None,2273.565128588758,None,2273.565128588758,None,2273.565128588758,None,2273.565128588758,None,2277.549995584239,None,2277.549995584239,None,2277.549995584239,None,2277.549995584239,None,2277.549995584239,None,2277.549995584239,None,2277.549995584239,None,2287.053646282002,None,2278.5503814849653,None,2279.550761945953,None,0.5,7.502820659196004,2282.5519055688637,None,None,2282.5519055688637,None,2.617903234262485,,,,,,,,,,,,,,,,,,,24227,2019_Nov_04_1123,Mmi_3levels,3.1.5,59.95790683475802,
,,,2,0,-1.1,,,,,,,,,0,1,1,1,0,9,9,20,,,,,,,,,,,,,,,,,,,,,,,,,,,,,,,,,,,,,,,,,,,,,,,,,,,,,,,,,,,,False,True,False,0.5,0.5,4.7,-11.7,-1.1,-12.799999999999999,-6.949999999999999,certain,certain,-6.949999999999999,88.66333333333331,2289.0710914910887,None,2289.0710914910887,None,2289.0710914910887,None,2289.0710914910887,None,2289.0710914910887,None,2289.0710914910887,None,2289.0710914910887,None,3,2289.0710914910887,None,2291.405325366126,None,2291.405325366126,None,2291.405325366126,None,2291.405325366126,None,2291.405325366126,None,2291.405325366126,None,2291.405325366126,None,2295.4068628894165,None,2295.4068628894165,None,2295.4068628894165,None,2295.4068628894165,None,2295.4068628894165,None,2295.4068628894165,None,2295.4068628894165,None,2296.390578582301,None,,,,,,,,,,,,2.301128647639416,,,,,,,,,,,,,,,,,,,24227,2019_Nov_04_1123,Mmi_3levels,3.1.5,59.95790683475802,
,,,2,0,4.1,,,,,,,,,0,1,1,1,0,10,10,19,,,,,,,,,,,,,,,,,,,,,,,,,,,,,,,,,,,,,,,,,,,,,,,,,,,,,,,,,,,,False,False,False,0.5,0.5,5.2,2.1833333333333336,1.025,-1.1583333333333337,-0.06666666666666687,gamble,win,1.025,89.68833333333332,2298.4080218715244,None,2298.4080218715244,None,2298.4080218715244,None,2298.4080218715244,None,2298.4080218715244,None,2298.4080218715244,None,2298.4080218715244,None,1,2298.4080218715244,None,2300.8089298582054,None,2300.8089298582054,None,2300.8089298582054,None,2300.8089298582054,None,2300.8089298582054,None,2300.8089298582054,None,2300.8089298582054,None,2304.7937600555015,None,2304.7937600555015,None,2304.7937600555015,None,2304.7937600555015,None,2304.7937600555015,None,2304.7937600555015,None,2304.7937600555015,None,2305.7941942738253,None,,,,,,,,,,,,2.36781619861722,,,,,,,,,,,,,,,,,,,24227,2019_Nov_04_1123,Mmi_3levels,3.1.5,59.95790683475802,
,,,2,0,-1.5,,,,,,,,,0,1,1,1,0,11,11,3,,,,,,,,,,,,,,,,,,,,,,,,,,,,,,,,,,,,,,,,,,,,,,,,,,,,,,,,,,,,False,False,True,0.5,0.5,5.7,2.225,-0.375,-2.6,-1.4875,certain,certain,-1.4875,88.20083333333332,2307.811644922709,None,2307.811644922709,None,2307.811644922709,None,2307.811644922709,None,2307.811644922709,None,2307.811644922709,None,2307.811644922709,None,3,2307.811644922709,None,2310.162547725602,None,2310.162547725602,None,2310.162547725602,None,2310.162547725602,None,2310.162547725602,None,2310.162547725602,None,2310.162547725602,None,2314.1640836489387,None,2314.1640836489387,None,2314.1640836489387,None,2314.1640836489387,None,2314.1640836489387,None,2314.1640836489387,None,2314.1640836489387,None,2323.6510628589313,None,2315.147794862103,None,2316.1481836426537,None,0.5,7.502771061670501,2319.149324705708,None,None,2319.149324705708,None,2.317748937988654,,,,,,,,,,,,,,,,,,,24227,2019_Nov_04_1123,Mmi_3levels,3.1.5,59.95790683475802,
,,,2,0,4.9,,,,,,,,,0,1,1,1,0,12,12,9,,,,,,,,,,,,,,,,,,,,,,,,,,,,,,,,,,,,,,,,,,,,,,,,,,,,,,,,,,,,False,False,False,0.5,0.5,6.2,2.2666666666666666,1.225,-1.0416666666666665,0.09166666666666679,gamble,win,1.225,89.42583333333332,2325.668512227887,None,2325.668512227887,None,2325.668512227887,None,2325.668512227887,None,2325.668512227887,None,2325.668512227887,None,2325.668512227887,None,1,2325.668512227887,None,2327.936054072168,None,2327.936054072168,None,2327.936054072168,None,2327.936054072168,None,2327.936054072168,None,2327.936054072168,None,2327.936054072168,None,2331.9209162678453,None,2331.9209162678453,None,2331.9209162678453,None,2331.9209162678453,None,2331.9209162678453,None,2331.9209162678453,None,2331.9209162678453,None,2332.9212564108893,None,,,,,,,,,,,,2.2344849345390685,,,,,,,,,,,,,,,,,,,24227,2019_Nov_04_1123,Mmi_3levels,3.1.5,59.95790683475802,
,,,2,0,1.3,,,,,,,,,0,1,1,1,0,13,13,1,,,,,,,,,,,,,,,,,,,,,,,,,,,,,,,,,,,,,,,,,,,,,,,,,,,,,,,,,,,,False,True,False,0.5,0.5,6.7,-13.7,1.3,-12.399999999999999,-5.549999999999999,gamble,lose,-12.399999999999999,77.02583333333331,2334.938749617606,None,2334.938749617606,None,2334.938749617606,None,2334.938749617606,None,2334.938749617606,None,2334.938749617606,None,2334.938749617606,None,1,2334.938749617606,None,2337.60644204641,None,2337.60644204641,None,2337.60644204641,None,2337.60644204641,None,2337.60644204641,None,2337.60644204641,None,2337.60644204641,None,2341.591313201643,None,2341.591313201643,None,2341.591313201643,None,2341.591313201643,None,2341.591313201643,None,2341.591313201643,None,2341.591313201643,None,2351.0949635794386,None,2342.5916923827026,None,2343.5920818032464,None,0.5,7.502811059646774,2346.5932196664508,None,None,2346.5932196664508,None,2.63441121019423,,,,,,,,,,,,,,,,,,,24227,2019_Nov_04_1123,Mmi_3levels,3.1.5,59.95790683475802,
,,,2,0,5.3,,,,,,,,,0,1,1,1,0,14,14,18,,,,,,,,,,,,,,,,,,,,,,,,,,,,,,,,,,,,,,,,,,,,,,,,,,,,,,,,,,,,False,True,True,0.5,0.5,7.2,-14.2,5.3,-8.899999999999999,-1.7999999999999994,gamble,lose,-8.899999999999999,68.1258333333333,2353.112404628773,None,2353.112404628773,None,2353.112404628773,None,2353.112404628773,None,2353.112404628773,None,2353.112404628773,None,2353.112404628773,None,1,2353.112404628773,None,2354.679682870221,None,2354.679682870221,None,2354.679682870221,None,2354.679682870221,None,2354.679682870221,None,2354.679682870221,None,2354.679682870221,None,2358.6645409060875,None,2358.6645409060875,None,2358.6645409060875,None,2358.6645409060875,None,2358.6645409060875,None,2358.6645409060875,None,2358.6645409060875,None,2359.664930646657,None,,,,,,,,,,,,1.5340085423085839,,,,,,,,,,,,,,,,,,,24227,2019_Nov_04_1123,Mmi_3levels,3.1.5,59.95790683475802,
,,,2,0,7.1,,,,,,,,,0,1,1,1,0,15,15,0,,,,,,,,,,,,,,,,,,,,,,,,,,,,,,,,,,,,,,,,,,,,,,,,,,,,,,,,,,,,False,True,True,0.5,0.5,7.7,-14.7,7.1,-7.6,-0.25,gamble,lose,-7.6,60.5258333333333,2361.682373615913,None,2361.682373615913,None,2361.682373615913,None,2361.682373615913,None,2361.682373615913,None,2361.682373615913,None,2361.682373615913,None,1,2361.682373615913,None,2363.449722829857,None,2363.449722829857,None,2363.449722829857,None,2363.449722829857,None,2363.449722829857,None,2363.449722829857,None,2363.449722829857,None,2367.451257793233,None,2367.451257793233,None,2367.451257793233,None,2367.451257793233,None,2367.451257793233,None,2367.451257793233,None,2367.451257793233,None,2376.9382459627814,None,2368.434964526561,None,2369.435381465766,None,0.5,7.502817139378749,2372.4364982100087,None,None,2372.4364982100087,None,1.734283984580543,,,,,,,,,,,,,,,,,,,24227,2019_Nov_04_1123,Mmi_3levels,3.1.5,59.95790683475802,
,,,2,0,1.1,,,,,,,,,0,1,1,1,0,16,16,22,,,,,,,,,,,,,,,,,,,,,,,,,,,,,,,,,,,,,,,,,,,,,,,,,,,,,,,,,,,,False,False,True,0.5,0.5,8.2,2.433333333333333,0.275,-2.158333333333333,-0.9416666666666667,gamble,win,0.275,60.8008333333333,2378.955691491894,None,2378.955691491894,None,2378.955691491894,None,2378.955691491894,None,2378.955691491894,None,2378.955691491894,None,2378.955691491894,None,None,2378.955691491894,None,2381.9568427944323,None,2381.9568427944323,None,2381.9568427944323,None,2381.9568427944323,None,2381.9568427944323,None,2381.9568427944323,None,2381.9568427944323,None,2385.9583819175605,None,2385.9583819175605,None,2385.9583819175605,None,2385.9583819175605,None,2385.9583819175605,None,2385.9583819175605,None,2385.9583819175605,None,2386.9420912108035,None,,,,,,,,,,,,,,,,,,,,,,,,,,,,,,,24227,2019_Nov_04_1123,Mmi_3levels,3.1.5,59.95790683475802,
,,,2,0,6.3,,,,,,,,,0,1,1,1,0,17,17,12,,,,,,,,,,,,,,,,,,,,,,,,,,,,,,,,,,,,,,,,,,,,,,,,,,,,,,,,,,,,False,True,False,0.5,0.5,8.7,-15.7,6.3,-9.399999999999999,-1.5499999999999994,gamble,lose,-9.399999999999999,51.4008333333333,2388.9595402597333,None,2388.9595402597333,None,2388.9595402597333,None,2388.9595402597333,None,2388.9595402597333,None,2388.9595402597333,None,2388.9595402597333,None,1,2388.9595402597333,None,2390.8602565759793,None,2390.8602565759793,None,2390.8602565759793,None,2390.8602565759793,None,2390.8602565759793,None,2390.8602565759793,None,2390.8602565759793,None,2394.8618120183237,None,2394.8618120183237,None,2394.8618120183237,None,2394.8618120183237,None,2394.8618120183237,None,2394.8618120183237,None,2394.8618120183237,None,2395.8455213115667,None,,,,,,,,,,,,1.8676062891026959,,,,,,,,,,,,,,,,,,,24227,2019_Nov_04_1123,Mmi_3levels,3.1.5,59.95790683475802,
,,,2,0,3.7,,,,,,,,,0,1,1,1,0,18,18,6,,,,,,,,,,,,,,,,,,,,,,,,,,,,,,,,,,,,,,,,,,,,,,,,,,,,,,,,,,,,False,False,False,0.5,0.5,9.2,2.5166666666666666,0.925,-1.5916666666666666,-0.33333333333333326,certain,certain,-0.33333333333333326,51.06749999999997,2397.8629876396735,None,2397.8629876396735,None,2397.8629876396735,None,2397.8629876396735,None,2397.8629876396735,None,2397.8629876396735,None,2397.8629876396735,None,3,2397.8629876396735,None,2400.0805434992653,None,2400.0805434992653,None,2400.0805434992653,None,2400.0805434992653,None,2400.0805434992653,None,2400.0805434992653,None,2400.0805434992653,None,2404.0653468178934,None,2404.0653468178934,None,2404.0653468178934,None,2404.0653468178934,None,2404.0653468178934,None,2404.0653468178934,None,2404.0653468178934,None,2413.5690080751083,None,2405.0657384783262,None,2406.066120539268,None,0.46,7.502781941089779,2409.0672612822964,None,None,2409.0672612822964,None,2.1844839105615392,,,,,,,,,,,,,,,,,,,24227,2019_Nov_04_1123,Mmi_3levels,3.1.5,59.95790683475802,
,,,2,0,-0.1,,,,,,,,,0,1,1,1,0,19,19,2,,,,,,,,,,,,,,,,,,,,,,,,,,,,,,,,,,,,,,,,,,,,,,,,,,,,,,,,,,,,False,False,False,0.46,0.46,9.66,2.415,-0.025,-2.44,-1.2325,gamble,win,-0.025,51.04249999999997,2415.586450724397,None,2415.586450724397,None,2415.586450724397,None,2415.586450724397,None,2415.586450724397,None,2415.586450724397,None,2415.586450724397,None,1,2415.586450724397,None,2416.753568781831,None,2416.753568781831,None,2416.753568781831,None,2416.753568781831,None,2416.753568781831,None,2416.753568781831,None,2416.753568781831,None,2420.7550919058267,None,2420.7550919058267,None,2420.7550919058267,None,2420.7550919058267,None,2420.7550919058267,None,2420.7550919058267,None,2420.7550919058267,None,2421.738812078489,None,,,,,,,,,,,,1.1340163499116898,,,,,,,,,,,,,,,,,,,24227,2019_Nov_04_1123,Mmi_3levels,3.1.5,59.95790683475802,
,,,2,0,12.1,,,,,,,,,0,1,1,1,0,20,20,13,,,,,,,,,,,,,,,,,,,,,,,,,,,,,,,,,,,,,,,,,,,,,,,,,,,,,,,,,,,,False,False,False,0.46,0.46,10.120000000000001,2.4533333333333336,3.025,0.5716666666666663,1.7983333333333331,gamble,win,3.025,54.06749999999997,2423.7562620873796,None,2423.7562620873796,None,2423.7562620873796,None,2423.7562620873796,None,2423.7562620873796,None,2423.7562620873796,None,2423.7562620873796,None,1,2423.7562620873796,None,2425.506935973768,None,2425.506935973768,None,2425.506935973768,None,2425.506935973768,None,2425.506935973768,None,2425.506935973768,None,2425.506935973768,None,2429.4918045690865,None,2429.4918045690865,None,2429.4918045690865,None,2429.4918045690865,None,2429.4918045690865,None,2429.4918045690865,None,2429.4918045690865,None,2438.9954613465816,None,2430.4921866300283,None,2431.492572530755,None,0.43,7.5028193792677484,2434.493714233802,None,None,2434.493714233802,None,1.7176179364905693,,,,,,,,,,,,,,,,,,,24227,2019_Nov_04_1123,Mmi_3levels,3.1.5,59.95790683475802,
,,,2,0,13.1,,,,,,,,,0,1,1,1,0,21,21,25,,,,,,,,,,,,,,,,,,,,,,,,,,,,,,,,,,,,,,,,,,,,,,,,,,,,,,,,,,,,False,True,False,0.43,0.43,10.55,-16.57,13.1,-3.4700000000000006,-1.7350000000000003,gamble,lose,-3.4700000000000006,50.59749999999997,2441.0128895965754,None,2441.0128895965754,None,2441.0128895965754,None,2441.0128895965754,None,2441.0128895965754,None,2441.0128895965754,None,2441.0128895965754,None,1,2441.0128895965754,None,2442.796919577755,None,2442.796919577755,None,2442.796919577755,None,2442.796919577755,None,2442.796919577755,None,2442.796919577755,None,2442.796919577755,None,2446.798459660902,None,2446.798459660902,None,2446.798459660902,None,2446.798459660902,None,2446.798459660902,None,2446.798459660902,None,2446.798459660902,None,2447.7821769537404,None,,,,,,,,,,,,1.7509260337683372,,,,,,,,,,,,,,,,,,,24227,2019_Nov_04_1123,Mmi_3levels,3.1.5,59.95790683475802,
,,,2,0,4.3,,,,,,,,,0,1,1,1,0,22,22,10,,,,,,,,,,,,,,,,,,,,,,,,,,,,,,,,,,,,,,,,,,,,,,,,,,,,,,,,,,,,False,True,True,0.43,0.43,10.98,-17.0,4.3,-12.7,-4.199999999999999,gamble,lose,-12.7,37.897499999999965,2449.7996228028205,None,2449.7996228028205,None,2449.7996228028205,None,2449.7996228028205,None,2449.7996228028205,None,2449.7996228028205,None,2449.7996228028205,None,None,2449.7996228028205,None,2452.800833622401,None,2452.800833622401,None,2452.800833622401,None,2452.800833622401,None,2452.800833622401,None,2452.800833622401,None,2452.800833622401,None,2456.802314828441,None,2456.802314828441,None,2456.802314828441,None,2456.802314828441,None,2456.802314828441,None,2456.802314828441,None,2456.802314828441,None,2466.2892985182116,None,2457.786016762024,None,2458.7864109823713,None,0.41,7.502867056871764,2461.7875718844007,None,None,2461.7875718844007,None,,,,,,,,,,,,,,,,,,,,24227,2019_Nov_04_1123,Mmi_3levels,3.1.5,59.95790683475802,
,,,2,0,0.3,,,,,,,,,0,1,1,1,0,23,23,7,,,,,,,,,,,,,,,,,,,,,,,,,,,,,,,,,,,,,,,,,,,,,,,,,,,,,,,,,,,,False,False,False,0.41,0.41,11.39,2.3841666666666663,0.075,-2.309166666666666,-1.117083333333333,gamble,win,0.075,37.97249999999997,2468.306713648839,None,2468.306713648839,None,2468.306713648839,None,2468.306713648839,None,2468.306713648839,None,2468.306713648839,None,2468.306713648839,None,1,2468.306713648839,None,2470.0074031504337,None,2470.0074031504337,None,2470.0074031504337,None,2470.0074031504337,None,2470.0074031504337,None,2470.0074031504337,None,2470.0074031504337,None,2474.008933314064,None,2474.008933314064,None,2474.008933314064,None,2474.008933314064,None,2474.008933314064,None,2474.008933314064,None,2474.008933314064,None,2474.992706924095,None,,,,,,,,,,,,1.6675839541712776,,,,,,,,,,,,,,,,,,,24227,2019_Nov_04_1123,Mmi_3levels,3.1.5,59.95790683475802,
,,,2,0,2.1,,,,,,,,,0,1,1,1,0,24,24,15,,,,,,,,,,,,,,,,,,,,,,,,,,,,,,,,,,,,,,,,,,,,,,,,,,,,,,,,,,,,False,False,False,0.41,0.41,11.8,2.418333333333333,0.525,-1.893333333333333,-0.6841666666666666,gamble,win,0.525,38.49749999999997,2477.010085576505,None,2477.010085576505,None,2477.010085576505,None,2477.010085576505,None,2477.010085576505,None,2477.010085576505,None,2477.010085576505,None,1,2477.010085576505,None,2479.5110743271653,None,2479.5110743271653,None,2479.5110743271653,None,2479.5110743271653,None,2479.5110743271653,None,2479.5110743271653,None,2479.5110743271653,None,2483.5125939312857,None,2483.5125939312857,None,2483.5125939312857,None,2483.5125939312857,None,2483.5125939312857,None,2483.5125939312857,None,2483.5125939312857,None,2484.496298424783,None,,,,,,,,,,,,2.467875843634829,,,,,,,,,,,,,,,,,,,24227,2019_Nov_04_1123,Mmi_3levels,3.1.5,59.95790683475802,
,,,2,0,13.5,,,,,,,,,0,1,1,1,0,25,25,8,,,,,,,,,,,,,,,,,,,,,,,,,,,,,,,,,,,,,,,,,,,,,,,,,,,,,,,,,,,,False,True,False,0.41,0.41,12.21,-17.95,13.5,-4.449999999999999,-2.2249999999999996,gamble,lose,-4.449999999999999,34.04749999999997,2486.5137471537455,None,2486.5137471537455,None,2486.5137471537455,None,2486.5137471537455,None,2486.5137471537455,None,2486.5137471537455,None,2486.5137471537455,None,1,2486.5137471537455,None,2488.497847787454,None,2488.497847787454,None,2488.497847787454,None,2488.497847787454,None,2488.497847787454,None,2488.497847787454,None,2488.497847787454,None,2492.499382430804,None,2492.499382430804,None,2492.499382430804,None,2492.499382430804,None,2492.499382430804,None,2492.499382430804,None,2492.499382430804,None,2501.9863981190138,None,2493.48309556389,None,2494.4834299471695,None,0.41,7.502828978758771,2497.484636926907,None,None,2497.484636926907,None,1.9510386041365564,,,,,,,,,,,,,,,,,,,24227,2019_Nov_04_1123,Mmi_3levels,3.1.5,59.95790683475802,
,,,2,0,12.5,,,,,,,,,0,1,1,1,0,26,26,5,,,,,,,,,,,,,,,,,,,,,,,,,,,,,,,,,,,,,,,,,,,,,,,,,,,,,,,,,,,,False,False,True,0.41,0.41,12.620000000000001,2.4866666666666664,3.125,0.6383333333333336,1.8816666666666668,gamble,win,3.125,37.17249999999997,2504.0038122896804,None,2504.0038122896804,None,2504.0038122896804,None,2504.0038122896804,None,2504.0038122896804,None,2504.0038122896804,None,2504.0038122896804,None,1,2504.0038122896804,None,2505.9044921277673,None,2505.9044921277673,None,2505.9044921277673,None,2505.9044921277673,None,2505.9044921277673,None,2505.9044921277673,None,2505.9044921277673,None,2509.889424719906,None,2509.889424719906,None,2509.889424719906,None,2509.889424719906,None,2509.889424719906,None,2509.889424719906,None,2509.889424719906,None,2510.8897933415137,None,,,,,,,,,,,,1.8676866050809622,,,,,,,,,,,,,,,,,,,24227,2019_Nov_04_1123,Mmi_3levels,3.1.5,59.95790683475802,
,,,3,1,2.3,,,,,,,,,0,2,2,2,0,0,0,26,,,,,,,,,,,,,,,,,,,,,,,,,,,,,,,,,,,,,,,,,,,,,,,,2521.7439750207704,None,0.47,7.518688667041715,2524.745111924014,None,None,,2524.745111924014,None,2529.2634825269342,None,True,False,False,0.47,-0.53,-0.53,-1.8991666666666667,2.3,0.40083333333333315,1.3504166666666664,gamble,lose,0.40083333333333315,37.5733333333333,2532.2980321622454,None,2532.2980321622454,None,2532.2980321622454,None,2532.2980321622454,None,2532.2980321622454,None,2532.2980321622454,None,2532.2980321622454,None,1,2532.2980321622454,None,2533.6985724872793,None,2533.6985724872793,None,2533.6985724872793,None,2533.6985724872793,None,2533.6985724872793,None,2533.6985724872793,None,2533.6985724872793,None,2537.683431803074,None,2537.683431803074,None,2537.683431803074,None,2537.683431803074,None,2537.683431803074,None,2537.683431803074,None,2537.683431803074,None,2547.187090180465,None,2538.6838186637615,None,2539.684215763933,None,0.42,7.502758582297247,2542.685351707216,None,None,2542.685351707216,None,1.3674574965261854,2512.8905571433716,None,4,8.836941259854939,2512.8905571433716,None,,,,,,,,,,,,,24227,2019_Nov_04_1123,Mmi_3levels,3.1.5,59.95790683475802,
,,,3,1,-0.9,,,,,,,,,0,2,2,2,0,1,1,12,,,,,,,,,,,,,,,,,,,,,,,,,,,,,,,,,,,,,,,,,,,,,,,,,,,,,,,,,,,,True,False,True,0.42,-0.5800000000000001,-1.11,-2.1225,-0.9,-3.0225,-1.96125,certain,certain,-1.96125,35.6120833333333,2549.204540509323,None,2549.204540509323,None,2549.204540509323,None,2549.204540509323,None,2549.204540509323,None,2549.204540509323,None,2549.204540509323,None,3,2549.204540509323,None,2550.8384871027083,None,2550.8384871027083,None,2550.8384871027083,None,2550.8384871027083,None,2550.8384871027083,None,2550.8384871027083,None,2550.8384871027083,None,2554.8400419051177,None,2554.8400419051177,None,2554.8400419051177,None,2554.8400419051177,None,2554.8400419051177,None,2554.8400419051177,None,2554.8400419051177,None,2555.8237137601827,None,,,,,,,,,,,,1.6008349662879482,,,,,,,,,,,,,,,,,,,24227,2019_Nov_04_1123,Mmi_3levels,3.1.5,59.95790683475802,
,,,3,1,4.7,,,,,,,,,0,2,2,2,0,2,2,5,,,,,,,,,,,,,,,,,,,,,,,,,,,,,,,,,,,,,,,,,,,,,,,,,,,,,,,,,,,,True,False,False,0.42,-0.5800000000000001,-1.6900000000000002,-2.1708333333333334,4.7,2.529166666666667,1.2645833333333334,gamble,lose,2.529166666666667,38.14124999999997,2557.8411980074015,None,2557.8411980074015,None,2557.8411980074015,None,2557.8411980074015,None,2557.8411980074015,None,2557.8411980074015,None,2557.8411980074015,None,1,2557.8411980074015,None,2559.1917152295937,None,2559.1917152295937,None,2559.1917152295937,None,2559.1917152295937,None,2559.1917152295937,None,2559.1917152295937,None,2559.1917152295937,None,2563.176583824912,None,2563.176583824912,None,2563.176583824912,None,2563.176583824912,None,2563.176583824912,None,2563.176583824912,None,2563.176583824912,None,2564.1769668458146,None,,,,,,,,,,,,1.3172465630341321,,,,,,,,,,,,,,,,,,,24227,2019_Nov_04_1123,Mmi_3levels,3.1.5,59.95790683475802,
,,,3,1,4.9,,,,,,,,,0,2,2,2,0,3,3,6,,,,,,,,,,,,,,,,,,,,,,,,,,,,,,,,,,,,,,,,,,,,,,,,,,,,,,,,,,,,True,True,False,0.42,-0.5800000000000001,-2.2700000000000005,10.39,4.9,-5.49,-0.29499999999999993,gamble,win,4.9,43.04124999999997,2566.1944126948947,None,2566.1944126948947,None,2566.1944126948947,None,2566.1944126948947,None,2566.1944126948947,None,2566.1944126948947,None,2566.1944126948947,None,1,2566.1944126948947,None,2568.211850224412,None,2568.211850224412,None,2568.211850224412,None,2568.211850224412,None,2568.211850224412,None,2568.211850224412,None,2568.211850224412,None,2572.2133938273764,None,2572.2133938273764,None,2572.2133938273764,None,2572.2133938273764,None,2572.2133938273764,None,2572.2133938273764,None,2572.2133938273764,None,2581.700406635704,None,2573.1971053605084,None,2574.1974877414177,None,0.43,7.50282417901326,2577.198621764779,None,None,2577.198621764779,None,1.9841710301698186,,,,,,,,,,,,,,,,,,,24227,2019_Nov_04_1123,Mmi_3levels,3.1.5,59.95790683475802,
,,,3,1,13.5,,,,,,,,,0,2,2,2,0,4,4,19,,,,,,,,,,,,,,,,,,,,,,,,,,,,,,,,,,,,,,,,,,,,,,,,,,,,,,,,,,,,True,False,True,0.43,-0.5700000000000001,-2.8400000000000007,-2.231666666666667,13.5,11.268333333333333,5.634166666666666,gamble,lose,11.268333333333333,54.3095833333333,2583.717821126338,None,2583.717821126338,None,2583.717821126338,None,2583.717821126338,None,2583.717821126338,None,2583.717821126338,None,2583.717821126338,None,1,2583.717821126338,None,2584.9349530071486,None,2584.9349530071486,None,2584.9349530071486,None,2584.9349530071486,None,2584.9349530071486,None,2584.9349530071486,None,2584.9349530071486,None,2588.936495010159,None,2588.936495010159,None,2588.936495010159,None,2588.936495010159,None,2588.936495010159,None,2588.936495010159,None,2588.936495010159,None,2589.9202007835847,None,,,,,,,,,,,,1.1840464923880063,,,,,,,,,,,,,,,,,,,24227,2019_Nov_04_1123,Mmi_3levels,3.1.5,59.95790683475802,
,,,3,1,5.9,,,,,,,,,0,2,2,2,0,5,5,9,,,,,,,,,,,,,,,,,,,,,,,,,,,,,,,,,,,,,,,,,,,,,,,,,,,,,,,,,,,,True,True,False,0.43,-0.5700000000000001,-3.410000000000001,11.39,5.9,-5.49,0.20500000000000007,gamble,win,5.9,60.2095833333333,2591.937644392776,None,2591.937644392776,None,2591.937644392776,None,2591.937644392776,None,2591.937644392776,None,2591.937644392776,None,2591.937644392776,None,1,2591.937644392776,None,2594.8554510558606,None,2594.8554510558606,None,2594.8554510558606,None,2594.8554510558606,None,2594.8554510558606,None,2594.8554510558606,None,2594.8554510558606,None,2598.8569898590795,None,2598.8569898590795,None,2598.8569898590795,None,2598.8569898590795,None,2598.8569898590795,None,2598.8569898590795,None,2598.8569898590795,None,2608.3439569096663,None,2599.8407503497438,None,2600.8410802532453,None,0.46,7.502821619156748,2603.842212036776,None,None,2603.842212036776,None,2.8847123151645064,,,,,,,,,,,,,,,,,,,24227,2019_Nov_04_1123,Mmi_3levels,3.1.5,59.95790683475802,
,,,3,1,5.7,,,,,,,,,0,2,2,2,0,6,6,21,,,,,,,,,,,,,,,,,,,,,,,,,,,,,,,,,,,,,,,,,,,,,,,,,,,,,,,,,,,,True,True,False,0.46,-0.54,-3.950000000000001,11.510000000000002,5.7,-5.810000000000001,-0.055000000000000604,gamble,win,5.7,65.9095833333333,2610.36140755855,None,2610.36140755855,None,2610.36140755855,None,2610.36140755855,None,2610.36140755855,None,2610.36140755855,None,2610.36140755855,None,1,2610.36140755855,None,2611.5285201762454,None,2611.5285201762454,None,2611.5285201762454,None,2611.5285201762454,None,2611.5285201762454,None,2611.5285201762454,None,2611.5285201762454,None,2615.5300298609072,None,2615.5300298609072,None,2615.5300298609072,None,2615.5300298609072,None,2615.5300298609072,None,2615.5300298609072,None,2615.5300298609072,None,2616.5137730724528,None,,,,,,,,,,,,1.1340131500619464,,,,,,,,,,,,,,,,,,,24227,2019_Nov_04_1123,Mmi_3levels,3.1.5,59.95790683475802,
,,,3,1,0.3,,,,,,,,,0,2,2,2,0,7,7,16,,,,,,,,,,,,,,,,,,,,,,,,,,,,,,,,,,,,,,,,,,,,,,,,,,,,,,,,,,,,True,True,False,0.46,-0.54,-4.490000000000001,12.05,0.3,-11.75,-5.725,certain,certain,-5.725,60.1845833333333,2618.5312176416046,None,2618.5312176416046,None,2618.5312176416046,None,2618.5312176416046,None,2618.5312176416046,None,2618.5312176416046,None,2618.5312176416046,None,3,2618.5312176416046,None,2620.4486537632183,None,2620.4486537632183,None,2620.4486537632183,None,2620.4486537632183,None,2620.4486537632183,None,2620.4486537632183,None,2620.4486537632183,None,2624.4501576881157,None,2624.4501576881157,None,2624.4501576881157,None,2624.4501576881157,None,2624.4501576881157,None,2624.4501576881157,None,2624.4501576881157,None,2633.9371442577685,None,2625.4338717811042,None,2626.4342548020068,None,0.43,7.502820659196004,2629.435397144989,None,None,2629.435397144989,None,1.8842988958349451,,,,,,,,,,,,,,,,,,,24227,2019_Nov_04_1123,Mmi_3levels,3.1.5,59.95790683475802,
,,,3,1,0.9,,,,,,,,,0,2,2,2,0,8,8,14,,,,,,,,,,,,,,,,,,,,,,,,,,,,,,,,,,,,,,,,,,,,,,,,,,,,,,,,,,,,True,True,False,0.43,-0.5700000000000001,-5.060000000000001,13.040000000000003,0.9,-12.140000000000002,-5.620000000000001,certain,certain,-5.620000000000001,54.5645833333333,2635.9545856270706,None,2635.9545856270706,None,2635.9545856270706,None,2635.9545856270706,None,2635.9545856270706,None,2635.9545856270706,None,2635.9545856270706,None,3,2635.9545856270706,None,2637.6219545520144,None,2637.6219545520144,None,2637.6219545520144,None,2637.6219545520144,None,2637.6219545520144,None,2637.6219545520144,None,2637.6219545520144,None,2641.6235010348028,None,2641.6235010348028,None,2641.6235010348028,None,2641.6235010348028,None,2641.6235010348028,None,2641.6235010348028,None,2641.6235010348028,None,2642.607152730925,None,,,,,,,,,,,,1.6340400287299417,,,,,,,,,,,,,,,,,,,24227,2019_Nov_04_1123,Mmi_3levels,3.1.5,59.95790683475802,
,,,3,1,11.1,,,,,,,,,0,2,2,2,0,9,9,3,,,,,,,,,,,,,,,,,,,,,,,,,,,,,,,,,,,,,,,,,,,,,,,,,,,,,,,,,,,,True,True,True,0.43,-0.5700000000000001,-5.630000000000002,13.610000000000003,11.1,-2.5100000000000033,-1.2550000000000017,gamble,win,11.1,65.6645833333333,2644.624647857563,None,2644.624647857563,None,2644.624647857563,None,2644.624647857563,None,2644.624647857563,None,2644.624647857563,None,2644.624647857563,None,1,2644.624647857563,None,2646.875495175249,None,2646.875495175249,None,2646.875495175249,None,2646.875495175249,None,2646.875495175249,None,2646.875495175249,None,2646.875495175249,None,2650.8603036136483,None,2650.8603036136483,None,2650.8603036136483,None,2650.8603036136483,None,2650.8603036136483,None,2650.8603036136483,None,2650.8603036136483,None,2651.8607711102813,None,,,,,,,,,,,,2.2177254511625506,,,,,,,,,,,,,,,,,,,24227,2019_Nov_04_1123,Mmi_3levels,3.1.5,59.95790683475802,
,,,3,1,6.3,,,,,,,,,0,2,2,2,0,10,10,13,,,,,,,,,,,,,,,,,,,,,,,,,,,,,,,,,,,,,,,,,,,,,,,,,,,,,,,,,,,,True,True,True,0.43,-0.5700000000000001,-6.200000000000002,14.180000000000003,6.3,-7.8800000000000034,-0.7900000000000018,gamble,win,6.3,71.9645833333333,2653.8781340835267,None,2653.8781340835267,None,2653.8781340835267,None,2653.8781340835267,None,2653.8781340835267,None,2653.8781340835267,None,2653.8781340835267,None,1,2653.8781340835267,None,2656.179033302644,None,2656.179033302644,None,2656.179033302644,None,2656.179033302644,None,2656.179033302644,None,2656.179033302644,None,2656.179033302644,None,2660.1805772255757,None,2660.1805772255757,None,2660.1805772255757,None,2660.1805772255757,None,2660.1805772255757,None,2660.1805772255757,None,2660.1805772255757,None,2669.6675564355683,None,2661.1642849188647,None,2662.1646704996238,None,0.43,7.502825778909028,2665.165810602717,None,None,2665.165810602717,None,2.267799111432396,,,,,,,,,,,,,,,,,,,24227,2019_Nov_04_1123,Mmi_3levels,3.1.5,59.95790683475802,
,,,3,1,3.5,,,,,,,,,0,2,2,2,0,11,11,18,,,,,,,,,,,,,,,,,,,,,,,,,,,,,,,,,,,,,,,,,,,,,,,,,,,,,,,,,,,,True,True,False,0.43,-0.5700000000000001,-6.770000000000002,14.750000000000004,3.5,-11.250000000000004,-3.8750000000000018,certain,certain,-3.8750000000000018,68.0895833333333,2671.6850038846023,None,2671.6850038846023,None,2671.6850038846023,None,2671.6850038846023,None,2671.6850038846023,None,2671.6850038846023,None,2671.6850038846023,None,3,2671.6850038846023,None,2673.735789189406,None,2673.735789189406,None,2673.735789189406,None,2673.735789189406,None,2673.735789189406,None,2673.735789189406,None,2673.735789189406,None,2677.7373321523773,None,2677.7373321523773,None,2677.7373321523773,None,2677.7373321523773,None,2677.7373321523773,None,2677.7373321523773,None,2677.7373321523773,None,2678.721041765588,None,,,,,,,,,,,,2.017681357334368,,,,,,,,,,,,,,,,,,,24227,2019_Nov_04_1123,Mmi_3levels,3.1.5,59.95790683475802,
,,,3,1,4.5,,,,,,,,,0,2,2,2,0,12,12,24,,,,,,,,,,,,,,,,,,,,,,,,,,,,,,,,,,,,,,,,,,,,,,,,,,,,,,,,,,,,True,True,True,0.43,-0.5700000000000001,-7.3400000000000025,15.320000000000004,4.5,-10.820000000000004,-3.160000000000002,gamble,win,4.5,72.5895833333333,2680.7384888946544,None,2680.7384888946544,None,2680.7384888946544,None,2680.7384888946544,None,2680.7384888946544,None,2680.7384888946544,None,2680.7384888946544,None,1,2680.7384888946544,None,2683.456198666536,None,2683.456198666536,None,2683.456198666536,None,2683.456198666536,None,2683.456198666536,None,2683.456198666536,None,2683.456198666536,None,2687.457711871015,None,2687.457711871015,None,2687.457711871015,None,2687.457711871015,None,2687.457711871015,None,2687.457711871015,None,2687.457711871015,None,2696.944720519532,None,2688.4414490028867,None,2689.441832663724,None,0.45,7.502456517366227,2692.442974046746,None,None,2692.442974046746,None,2.6844365529250354,,,,,,,,,,,,,,,,,,,24227,2019_Nov_04_1123,Mmi_3levels,3.1.5,59.95790683475802,
,,,3,1,6.1,,,,,,,,,0,2,2,2,0,13,13,7,,,,,,,,,,,,,,,,,,,,,,,,,,,,,,,,,,,,,,,,,,,,,,,,,,,,,,,,,,,,True,True,False,0.45,-0.55,-7.890000000000002,15.590000000000003,6.1,-9.490000000000004,-1.695000000000002,gamble,win,6.1,78.68958333333329,2698.9621670086053,None,2698.9621670086053,None,2698.9621670086053,None,2698.9621670086053,None,2698.9621670086053,None,2698.9621670086053,None,2698.9621670086053,None,1,2698.9621670086053,None,2700.446045253426,None,2700.446045253426,None,2700.446045253426,None,2700.446045253426,None,2700.446045253426,None,2700.446045253426,None,2700.446045253426,None,2704.447583736619,None,2704.447583736619,None,2704.447583736619,None,2704.447583736619,None,2704.447583736619,None,2704.447583736619,None,2704.447583736619,None,2705.4313224683865,None,,,,,,,,,,,,1.4508094955817796,,,,,,,,,,,,,,,,,,,24227,2019_Nov_04_1123,Mmi_3levels,3.1.5,59.95790683475802,
,,,3,1,9.1,,,,,,,,,0,2,2,2,0,14,14,11,,,,,,,,,,,,,,,,,,,,,,,,,,,,,,,,,,,,,,,,,,,,,,,,,,,,,,,,,,,,True,False,False,0.45,-0.55,-8.440000000000003,-2.628333333333334,9.1,6.471666666666666,3.235833333333333,gamble,lose,6.471666666666666,85.16124999999995,2707.4487727972446,None,2707.4487727972446,None,2707.4487727972446,None,2707.4487727972446,None,2707.4487727972446,None,2707.4487727972446,None,2707.4487727972446,None,1,2707.4487727972446,None,2708.8325856373413,None,2708.8325856373413,None,2708.8325856373413,None,2708.8325856373413,None,2708.8325856373413,None,2708.8325856373413,None,2708.8325856373413,None,2712.817462232255,None,2712.817462232255,None,2712.817462232255,None,2712.817462232255,None,2712.817462232255,None,2712.817462232255,None,2712.817462232255,None,2713.817884931166,None,,,,,,,,,,,,1.3507687296369113,,,,,,,,,,,,,,,,,,,24227,2019_Nov_04_1123,Mmi_3levels,3.1.5,59.95790683475802,
,,,3,1,-0.3,,,,,,,,,0,2,2,2,0,15,15,23,,,,,,,,,,,,,,,,,,,,,,,,,,,,,,,,,,,,,,,,,,,,,,,,,,,,,,,,,,,,True,False,False,0.45,-0.55,-8.990000000000004,-2.6741666666666672,-0.3,-2.974166666666667,-1.6370833333333334,gamble,lose,-2.974166666666667,82.18708333333329,2715.835384857608,None,2715.835384857608,None,2715.835384857608,None,2715.835384857608,None,2715.835384857608,None,2715.835384857608,None,2715.835384857608,None,None,2715.835384857608,None,2718.836470883398,None,2718.836470883398,None,2718.836470883398,None,2718.836470883398,None,2718.836470883398,None,2718.836470883398,None,2718.836470883398,None,2722.8380176861538,None,2722.8380176861538,None,2722.8380176861538,None,2722.8380176861538,None,2722.8380176861538,None,2722.8380176861538,None,2722.8380176861538,None,2732.325000735931,None,2723.821700740722,None,2724.8221135201165,None,0.41,7.50279890029924,2727.823269942368,None,None,2727.823269942368,None,,,,,,,,,,,,,,,,,,,,24227,2019_Nov_04_1123,Mmi_3levels,3.1.5,59.95790683475802,
,,,3,1,8.1,,,,,,,,,0,2,2,2,0,16,16,25,,,,,,,,,,,,,,,,,,,,,,,,,,,,,,,,,,,,,,,,,,,,,,,,,,,,,,,,,,,,True,True,True,0.41,-0.5900000000000001,-9.580000000000004,17.840000000000003,8.1,-9.740000000000004,-0.8200000000000021,gamble,win,8.1,90.28708333333329,2734.3424539446714,None,2734.3424539446714,None,2734.3424539446714,None,2734.3424539446714,None,2734.3424539446714,None,2734.3424539446714,None,2734.3424539446714,None,1,2734.3424539446714,None,2735.8596994837862,None,2735.8596994837862,None,2735.8596994837862,None,2735.8596994837862,None,2735.8596994837862,None,2735.8596994837862,None,2735.8596994837862,None,2739.8612363670836,None,2739.8612363670836,None,2739.8612363670836,None,2739.8612363670836,None,2739.8612363670836,None,2739.8612363670836,None,2739.8612363670836,None,2740.8449367007706,None,,,,,,,,,,,,1.4841985488310456,,,,,,,,,,,,,,,,,,,24227,2019_Nov_04_1123,Mmi_3levels,3.1.5,59.95790683475802,
,,,3,1,9.9,,,,,,,,,0,2,2,2,0,17,17,15,,,,,,,,,,,,,,,,,,,,,,,,,,,,,,,,,,,,,,,,,,,,,,,,,,,,,,,,,,,,True,True,False,0.41,-0.5900000000000001,-10.170000000000003,18.430000000000007,9.9,-8.530000000000006,0.684999999999997,gamble,win,9.9,100.18708333333329,2742.862398869067,None,2742.862398869067,None,2742.862398869067,None,2742.862398869067,None,2742.862398869067,None,2742.862398869067,None,2742.862398869067,None,1,2742.862398869067,None,2744.2129106515204,None,2744.2129106515204,None,2744.2129106515204,None,2744.2129106515204,None,2744.2129106515204,None,2744.2129106515204,None,2744.2129106515204,None,2748.1977792468388,None,2748.1977792468388,None,2748.1977792468388,None,2748.1977792468388,None,2748.1977792468388,None,2748.1977792468388,None,2748.1977792468388,None,2757.70143122453,None,2749.1981664275518,None,2750.198544968618,None,0.46,7.502836018393282,2753.1996841117507,None,None,2753.1996841117507,None,1.3174231942393817,,,,,,,,,,,,,,,,,,,24227,2019_Nov_04_1123,Mmi_3levels,3.1.5,59.95790683475802,
,,,3,1,3.7,,,,,,,,,0,2,2,2,0,18,18,20,,,,,,,,,,,,,,,,,,,,,,,,,,,,,,,,,,,,,,,,,,,,,,,,,,,,,,,,,,,,True,False,True,0.46,-0.54,-10.710000000000004,-2.7825000000000006,3.7,0.9174999999999995,0.45874999999999977,gamble,lose,0.9174999999999995,101.1045833333333,2759.718886353192,None,2759.718886353192,None,2759.718886353192,None,2759.718886353192,None,2759.718886353192,None,2759.718886353192,None,2759.718886353192,None,1,2759.718886353192,None,2761.619611628994,None,2761.619611628994,None,2761.619611628994,None,2761.619611628994,None,2761.619611628994,None,2761.619611628994,None,2761.619611628994,None,2765.6044763845275,None,2765.6044763845275,None,2765.6044763845275,None,2765.6044763845275,None,2765.6044763845275,None,2765.6044763845275,None,2765.6044763845275,None,2766.604857805476,None,,,,,,,,,,,,1.8676382874837145,,,,,,,,,,,,,,,,,,,24227,2019_Nov_04_1123,Mmi_3levels,3.1.5,59.95790683475802,
,,,3,1,2.7,,,,,,,,,0,2,2,2,0,19,19,0,,,,,,,,,,,,,,,,,,,,,,,,,,,,,,,,,,,,,,,,,,,,,,,,,,,,,,,,,,,,True,True,False,0.46,-0.54,-11.250000000000004,18.810000000000002,2.7,-16.110000000000003,-6.705000000000002,gamble,win,2.7,103.8045833333333,2768.622368931363,None,2768.622368931363,None,2768.622368931363,None,2768.622368931363,None,2768.622368931363,None,2768.622368931363,None,2768.622368931363,None,1,2768.622368931363,None,2770.13955879322,None,2770.13955879322,None,2770.13955879322,None,2770.13955879322,None,2770.13955879322,None,2770.13955879322,None,2770.13955879322,None,2774.141099196335,None,2774.141099196335,None,2774.141099196335,None,2774.141099196335,None,2774.141099196335,None,2774.141099196335,None,2774.141099196335,None,2783.628136003448,None,2775.1248049697606,None,2776.125191510422,None,0.45,7.502821619156748,2779.126389530604,None,None,2779.126389530604,None,1.4840910341590643,,,,,,,,,,,,,,,,,,,24227,2019_Nov_04_1123,Mmi_3levels,3.1.5,59.95790683475802,
,,,3,1,7.9,,,,,,,,,0,2,2,2,0,20,20,2,,,,,,,,,,,,,,,,,,,,,,,,,,,,,,,,,,,,,,,,,,,,,,,,,,,,,,,,,,,,True,False,True,0.45,-0.55,-11.800000000000004,-2.908333333333334,7.9,4.991666666666666,2.495833333333333,gamble,lose,4.991666666666666,108.79624999999996,2785.6455968918162,None,2785.6455968918162,None,2785.6455968918162,None,2785.6455968918162,None,2785.6455968918162,None,2785.6455968918162,None,2785.6455968918162,None,1,2785.6455968918162,None,2787.046053061029,None,2787.046053061029,None,2787.046053061029,None,2787.046053061029,None,2787.046053061029,None,2787.046053061029,None,2787.046053061029,None,2791.030967414088,None,2791.030967414088,None,2791.030967414088,None,2791.030967414088,None,2791.030967414088,None,2791.030967414088,None,2791.030967414088,None,2792.0313033973216,None,,,,,,,,,,,,1.3673797404044308,,,,,,,,,,,,,,,,,,,24227,2019_Nov_04_1123,Mmi_3levels,3.1.5,59.95790683475802,
,,,3,1,7.1,,,,,,,,,0,2,2,2,0,21,21,8,,,,,,,,,,,,,,,,,,,,,,,,,,,,,,,,,,,,,,,,,,,,,,,,,,,,,,,,,,,,True,True,True,0.45,-0.55,-12.350000000000005,20.050000000000004,7.1,-12.950000000000005,-2.9250000000000025,gamble,win,7.1,115.89624999999995,2794.048753406212,None,2794.048753406212,None,2794.048753406212,None,2794.048753406212,None,2794.048753406212,None,2794.048753406212,None,2794.048753406212,None,1,2794.048753406212,None,2795.666040351265,None,2795.666040351265,None,2795.666040351265,None,2795.666040351265,None,2795.666040351265,None,2795.666040351265,None,2795.666040351265,None,2799.6675810743473,None,2799.6675810743473,None,2799.6675810743473,None,2799.6675810743473,None,2799.6675810743473,None,2799.6675810743473,None,2799.6675810743473,None,2800.6512484496925,None,,,,,,,,,,,,1.5841801177011803,,,,,,,,,,,,,,,,,,,24227,2019_Nov_04_1123,Mmi_3levels,3.1.5,59.95790683475802,
,,,3,1,10.3,,,,,,,,,0,2,2,2,0,22,22,22,,,,,,,,,,,,,,,,,,,,,,,,,,,,,,,,,,,,,,,,,,,,,,,,,,,,,,,,,,,,True,True,True,0.45,-0.55,-12.900000000000006,20.60000000000001,10.3,-10.300000000000008,-3.552713678800501e-15,gamble,win,10.3,126.19624999999995,2802.668764055299,None,2802.668764055299,None,2802.668764055299,None,2802.668764055299,None,2802.668764055299,None,2802.668764055299,None,2802.668764055299,None,None,2802.668764055299,None,2805.669894878869,None,2805.669894878869,None,2805.669894878869,None,2805.669894878869,None,2805.669894878869,None,2805.669894878869,None,2805.669894878869,None,2809.6714359219186,None,2809.6714359219186,None,2809.6714359219186,None,2809.6714359219186,None,2809.6714359219186,None,2809.6714359219186,None,2809.6714359219186,None,2819.1584186517284,None,2810.655132095795,None,2811.6555359156337,None,0.53,7.50281233957503,2814.656670899014,None,None,2814.656670899014,None,,,,,,,,,,,,,,,,,,,,24227,2019_Nov_04_1123,Mmi_3levels,3.1.5,59.95790683475802,
,,,3,1,-1.3,,,,,,,,,0,2,2,2,0,23,23,1,,,,,,,,,,,,,,,,,,,,,,,,,,,,,,,,,,,,,,,,,,,,,,,,,,,,,,,,,,,,True,True,False,0.53,-0.47,-13.370000000000006,19.950000000000006,-1.3,-21.250000000000007,-11.275000000000004,gamble,win,-1.3,124.89624999999995,2821.175920178066,None,2821.175920178066,None,2821.175920178066,None,2821.175920178066,None,2821.175920178066,None,2821.175920178066,None,2821.175920178066,None,None,2821.175920178066,None,2824.177012923523,None,2824.177012923523,None,2824.177012923523,None,2824.177012923523,None,2824.177012923523,None,2824.177012923523,None,2824.177012923523,None,2828.178549166827,None,2828.178549166827,None,2828.178549166827,None,2828.178549166827,None,2828.178549166827,None,2828.178549166827,None,2828.178549166827,None,2829.162260699959,None,,,,,,,,,,,,,,,,,,,,,,,,,,,,,,,24227,2019_Nov_04_1123,Mmi_3levels,3.1.5,59.95790683475802,
,,,3,1,5.5,,,,,,,,,0,2,2,2,0,24,24,10,,,,,,,,,,,,,,,,,,,,,,,,,,,,,,,,,,,,,,,,,,,,,,,,,,,,,,,,,,,,True,True,False,0.53,-0.47,-13.840000000000007,20.42000000000001,5.5,-14.920000000000009,-4.710000000000004,gamble,win,5.5,130.39624999999995,2831.1797100688564,None,2831.1797100688564,None,2831.1797100688564,None,2831.1797100688564,None,2831.1797100688564,None,2831.1797100688564,None,2831.1797100688564,None,1,2831.1797100688564,None,2832.530227611016,None,2832.530227611016,None,2832.530227611016,None,2832.530227611016,None,2832.530227611016,None,2832.530227611016,None,2832.530227611016,None,2836.5317696140846,None,2836.5317696140846,None,2836.5317696140846,None,2836.5317696140846,None,2836.5317696140846,None,2836.5317696140846,None,2836.5317696140846,None,2846.018752663862,None,2837.515404671023,None,2838.515860968211,None,0.46,7.5028248190064915,2841.517001711298,None,None,2841.517001711298,None,1.3174689519801177,,,,,,,,,,,,,,,,,,,24227,2019_Nov_04_1123,Mmi_3levels,3.1.5,59.95790683475802,
,,,3,1,7.3,,,,,,,,,0,2,2,2,0,25,25,17,,,,,,,,,,,,,,,,,,,,,,,,,,,,,,,,,,,,,,,,,,,,,,,,,,,,,,,,,,,,True,False,True,0.46,-0.54,-14.380000000000006,-3.088333333333334,7.3,4.211666666666666,2.105833333333333,gamble,lose,4.211666666666666,134.60791666666663,2848.036197873007,None,2848.036197873007,None,2848.036197873007,None,2848.036197873007,None,2848.036197873007,None,2848.036197873007,None,2848.036197873007,None,1,2848.036197873007,None,2849.153311706672,None,2849.153311706672,None,2849.153311706672,None,2849.153311706672,None,2849.153311706672,None,2849.153311706672,None,2849.153311706672,None,2853.138147983642,None,2853.138147983642,None,2853.138147983642,None,2853.138147983642,None,2853.138147983642,None,2853.138147983642,None,2853.138147983642,None,2854.1385434839176,None,,,,,,,,,,,,1.0840022065676749,,,,,,,,,,,,,,,,,,,24227,2019_Nov_04_1123,Mmi_3levels,3.1.5,59.95790683475802,
,,,3,1,1.9,,,,,,,,,0,2,2,2,0,26,26,4,,,,,,,,,,,,,,,,,,,,,,,,,,,,,,,,,,,,,,,,,,,,,,,,,,,,,,,,,,,,True,True,True,0.46,-0.54,-14.920000000000005,22.480000000000004,1.9,-20.580000000000005,-9.340000000000003,gamble,win,1.9,136.50791666666663,2856.155985493213,None,2856.155985493213,None,2856.155985493213,None,2856.155985493213,None,2856.155985493213,None,2856.155985493213,None,2856.155985493213,None,1,2856.155985493213,None,2857.9066657792428,None,2857.9066657792428,None,2857.9066657792428,None,2857.9066657792428,None,2857.9066657792428,None,2857.9066657792428,None,2857.9066657792428,None,2861.8915206152597,None,2861.8915206152597,None,2861.8915206152597,None,2861.8915206152597,None,2861.8915206152597,None,2861.8915206152597,None,2861.8915206152597,None,2871.3951879522065,None,2862.891912595718,None,2863.8923023362877,None,0.46,7.502786740893498,2866.8934382795705,None,None,2866.8934382795705,None,1.7175801784032956,,,,,,,,,,,,,,,,,,,24227,2019_Nov_04_1123,Mmi_3levels,3.1.5,59.95790683475802,
,,,,,,,,,,,,,,,,,,,,,,,,,,,,,,0,0,0,0,,,,,,,,,,,,,,,,,,,,,,,,,,,,,,,,,,,,,,,,,,,,,,,,,,,,,,,,,,,,,,,,,,,,,,,,,,,,,,,,,,,,,,,,,,,,,,,,,,,,,,,,,,,,,,,,,,,,,,,,,2873.395947594312,None,4,55.48822234792169,2873.395947594312,None,136.50791666666663,4,2928.917324767157,None,2928.917324767157,None,2928.917324767157,None,4,6.969537520664744,2928.917324767157,None,24227,2019_Nov_04_1123,Mmi_3levels,3.1.5,59.95790683475802,
