currSlide,currImage,currText,blockNum,targetHappiness,highAmount,instructionLoop1.thisRepN,instructionLoop1.thisTrialN,instructionLoop1.thisN,instructionLoop1.thisIndex,instructionLoop2.thisRepN,instructionLoop2.thisTrialN,instructionLoop2.thisN,instructionLoop2.thisIndex,blockLoop.thisRepN,blockLoop.thisTrialN,blockLoop.thisN,blockLoop.thisIndex,trialLoop.thisRepN,trialLoop.thisTrialN,trialLoop.thisN,trialLoop.thisIndex,doRatingLoop.thisRepN,doRatingLoop.thisTrialN,doRatingLoop.thisN,doRatingLoop.thisIndex,trialHappyLoop.thisRepN,trialHappyLoop.thisTrialN,trialHappyLoop.thisN,trialHappyLoop.thisIndex,logWinningsLoop.thisRepN,logWinningsLoop.thisTrialN,logWinningsLoop.thisN,logWinningsLoop.thisIndex,instrImage.started,instrImage.stopped,instrText.started,instrText.stopped,instrContinueText.started,instrContinueText.stopped,instrKeyResp.keys,instrKeyResp.rt,instrKeyResp.started,instrKeyResp.stopped,lifeHappyText.started,lifeHappyText.stopped,lifeHappySlider.response,lifeHappySlider.rt,lifeHappySlider.started,lifeHappySlider.stopped,lifeHappyResp.keys,lifeHappyResp.rt,lifeHappyResp.started,lifeHappyResp.stopped,instrImage_2.started,instrImage_2.stopped,instrText_2.started,instrText_2.stopped,instrContinueText_2.started,instrContinueText_2.stopped,instrKeyResp_2.keys,instrKeyResp_2.rt,instrKeyResp_2.started,instrKeyResp_2.stopped,localizing.started,localizing.stopped,start_exp.keys,start_exp.rt,start_exp.started,start_exp.stopped,blockHappyText.started,blockHappyText.stopped,blockHappySlider.response,blockHappySlider.rt,blockHappySlider.started,blockHappySlider.stopped,blockHappyResp.keys,blockHappyResp.rt,blockHappyResp.started,blockHappyResp.stopped,blankText.started,blankText.stopped,isHappyBlock,isCongruent,isWinOnTop,lastHappyRating,diff,sumDiff,RPE,winAmount,loseAmount,certainAmount,choice,outcome,outcomeAmount,currentWinnings,fixCross.started,fixCross.stopped,certainBox.started,certainBox.stopped,outcome1Box.started,outcome1Box.stopped,outcome2Box.started,outcome2Box.stopped,certainText.started,certainText.stopped,outcome1Text.started,outcome1Text.stopped,outcome2Text.started,outcome2Text.stopped,choiceKey.keys,choiceKey.started,choiceKey.stopped,fixCross_2.started,fixCross_2.stopped,certainBox_2.started,certainBox_2.stopped,outcome1Box_2.started,outcome1Box_2.stopped,outcome2Box_2.started,outcome2Box_2.stopped,certainText_2.started,certainText_2.stopped,outcome1Text_2.started,outcome1Text_2.stopped,outcome2Text_2.started,outcome2Text_2.stopped,fixCross_3.started,fixCross_3.stopped,certainBox_3.started,certainBox_3.stopped,outcome1Box_3.started,outcome1Box_3.stopped,outcome2Box_3.started,outcome2Box_3.stopped,certainText_3.started,certainText_3.stopped,outcome1Text_3.started,outcome1Text_3.stopped,outcome2Text_3.started,outcome2Text_3.stopped,fixCross_ITI.started,fixCross_ITI.stopped,choiceKey.rt,fixCross_ISI.started,fixCross_ISI.stopped,happyText.started,happyText.stopped,happySlider.response,happySlider.rt,happySlider.started,happySlider.stopped,happyResp.keys,happyResp.started,happyResp.stopped,endOfBlockText.started,endOfBlockText.stopped,restKeyResp.keys,restKeyResp.rt,restKeyResp.started,restKeyResp.stopped,finalWinnings,cashBonus,goodbyeText.started,goodbyeText.stopped,finalWinningsText.started,finalWinningsText.stopped,spaceToContinue.started,spaceToContinue.stopped,goodbyeKeyResp_2.keys,goodbyeKeyResp_2.rt,goodbyeKeyResp_2.started,goodbyeKeyResp_2.stopped,participant,date,expName,psychopyVersion,frameRate,
1,black.png,"Welcome! You are about to play our gambling task.
This task has 3 blocks and takes about 15 minutes.",,,,0,0,0,0,,,,,,,,,,,,,,,,,,,,,,,,,13.598656075257168,None,13.598656075257168,None,13.598656075257168,None,4,7.052948714870581,13.598656075257168,None,,,,,,,,,,,,,,,,,,,,,,,,,,,,,,,,,,,,,,,,,,,,,,,,,,,,,,,,,,,,,,,,,,,,,,,,,,,,,,,,,,,,,,,,,,,,,,,,,,,,,,,,,,,,,,,,,,,,,,,,,,,,,,,,,,24208,2019_Oct_01_1445,Mmi_3levels,3.1.5,59.97714279081539,
2,black.png,"In this game, you may win or lose points. Your goal is to get as many points as possible. These points will be converted to a cash bonus at the end.
Sometimes we will ask you to rate your mood.",,,,0,1,1,1,,,,,,,,,,,,,,,,,,,,,,,,,20.701407761163864,None,20.701407761163864,None,20.701407761163864,None,4,5.185477933235234,20.701407761163864,None,,,,,,,,,,,,,,,,,,,,,,,,,,,,,,,,,,,,,,,,,,,,,,,,,,,,,,,,,,,,,,,,,,,,,,,,,,,,,,,,,,,,,,,,,,,,,,,,,,,,,,,,,,,,,,,,,,,,,,,,,,,,,,,,,,24208,2019_Oct_01_1445,Mmi_3levels,3.1.5,59.97714279081539,
3,black.png,"On the next screen, please rate how you feel about your life these days. Use the LEFT (green) and RIGHT (blue) buttons to move the slider (you can press and hold them to slide gradually) and the TOP (red) button to lock in your response.
Make your rating as accurately and quickly as you can!",,,,0,2,2,2,,,,,,,,,,,,,,,,,,,,,,,,,25.936696664986812,None,25.936696664986812,None,25.936696664986812,None,4,11.571347524539306,25.936696664986812,None,,,,,,,,,,,,,,,,,,,,,,,,,,,,,,,,,,,,,,,,,,,,,,,,,,,,,,,,,,,,,,,,,,,,,,,,,,,,,,,,,,,,,,,,,,,,,,,,,,,,,,,,,,,,,,,,,,,,,,,,,,,,,,,,,,24208,2019_Oct_01_1445,Mmi_3levels,3.1.5,59.97714279081539,
,,,,,,,,,,,,,,,,,,,,,,,,,,,,,,,,,,,,,,,,,,,,37.524497348145815,None,0.96,7.468489924562164,41.52601470317677,None,4,3.451444799091405,41.52601470317677,None,,,,,,,,,,,,,,,,,,,,,,,,,,,,,,,,,,,,,,,,,,,,,,,,,,,,,,,,,,,,,,,,,,,,,,,,,,,,,,,,,,,,,,,,,,,,,,,,,,,,,,,,,,,,,,,,,,,,,,,,24208,2019_Oct_01_1445,Mmi_3levels,3.1.5,59.97714279081539,
4,black.png,"In this game you can win money by earning points according to your choices. You will decide whether to gamble a number of points or stick with a guaranteed number of points. 
Make your choice by pressing the left or right arrow key once. An example of one trial is shown on the next screen.",,,,,,,,0,0,0,0,,,,,,,,,,,,,,,,,,,,,,,,,,,,,,,,,,,,,,,,,45.04396745782287,None,45.04396745782287,None,45.04396745782287,None,4,9.25391026102443,45.04396745782287,None,,,,,,,,,,,,,,,,,,,,,,,,,,,,,,,,,,,,,,,,,,,,,,,,,,,,,,,,,,,,,,,,,,,,,,,,,,,,,,,,,,,,,,,,,,,,,,,,,,,,,,,,,,,,,,24208,2019_Oct_01_1445,Mmi_3levels,3.1.5,59.97714279081539,
5,example_start.png,"The GAMBLING OPTION will be shown on the RIGHT SIDE. 
Select this option using the RIGHT (blue) button on your keypad.",,,,,,,,0,1,1,1,,,,,,,,,,,,,,,,,,,,,,,,,,,,,,,,,,,,,,,,,54.364168726551725,None,54.364168726551725,None,54.364168726551725,None,4,9.15372739126542,54.364168726551725,None,,,,,,,,,,,,,,,,,,,,,,,,,,,,,,,,,,,,,,,,,,,,,,,,,,,,,,,,,,,,,,,,,,,,,,,,,,,,,,,,,,,,,,,,,,,,,,,,,,,,,,,,,,,,,,24208,2019_Oct_01_1445,Mmi_3levels,3.1.5,59.97714279081539,
6,example_gamble.png,"Once you select the gambling choice, the choice you made will remain on the screen.",,,,,,,,0,2,2,2,,,,,,,,,,,,,,,,,,,,,,,,,,,,,,,,,,,,,,,,,63.55093074787874,None,63.55093074787874,None,63.55093074787874,None,4,2.8513929619912233,63.55093074787874,None,,,,,,,,,,,,,,,,,,,,,,,,,,,,,,,,,,,,,,,,,,,,,,,,,,,,,,,,,,,,,,,,,,,,,,,,,,,,,,,,,,,,,,,,,,,,,,,,,,,,,,,,,,,,,,24208,2019_Oct_01_1445,Mmi_3levels,3.1.5,59.97714279081539,
7,example_win.png,"The outcome you received will then be shown on the screen. In this example , you WON 10 points.",,,,,,,,0,3,3,3,,,,,,,,,,,,,,,,,,,,,,,,,,,,,,,,,,,,,,,,,66.43545305462612,None,66.43545305462612,None,66.43545305462612,None,4,3.2681126656898414,66.43545305462612,None,,,,,,,,,,,,,,,,,,,,,,,,,,,,,,,,,,,,,,,,,,,,,,,,,,,,,,,,,,,,,,,,,,,,,,,,,,,,,,,,,,,,,,,,,,,,,,,,,,,,,,,,,,,,,,24208,2019_Oct_01_1445,Mmi_3levels,3.1.5,59.97714279081539,
8,example_start.png,"The GUARANTEED OPTION will be shown on the LEFT SIDE. You are 100% guaranteed to gain or lose this amount. In this example, you have a 100% chance of winning 1 point. Select this option using the LEFT (green) button on your keyboard.",,,,,,,,0,4,4,4,,,,,,,,,,,,,,,,,,,,,,,,,,,,,,,,,,,,,,,,,69.7533392530022,None,69.7533392530022,None,69.7533392530022,None,4,6.2193435567605775,69.7533392530022,None,,,,,,,,,,,,,,,,,,,,,,,,,,,,,,,,,,,,,,,,,,,,,,,,,,,,,,,,,,,,,,,,,,,,,,,,,,,,,,,,,,,,,,,,,,,,,,,,,,,,,,,,,,,,,,24208,2019_Oct_01_1445,Mmi_3levels,3.1.5,59.97714279081539,
9,example_certain.png,"Once you select the guaranteed choice, your selection will remain on the screen.",,,,,,,,0,5,5,5,,,,,,,,,,,,,,,,,,,,,,,,,,,,,,,,,,,,,,,,,76.00571360003596,None,76.00571360003596,None,76.00571360003596,None,4,1.4175567768179462,76.00571360003596,None,,,,,,,,,,,,,,,,,,,,,,,,,,,,,,,,,,,,,,,,,,,,,,,,,,,,,,,,,,,,,,,,,,,,,,,,,,,,,,,,,,,,,,,,,,,,,,,,,,,,,,,,,,,,,,24208,2019_Oct_01_1445,Mmi_3levels,3.1.5,59.97714279081539,
10,black.png,"Please make your choices as fast as possible.
You will be given a break at the end of each block.
Let's play!",,,,,,,,0,6,6,6,,,,,,,,,,,,,,,,,,,,,,,,,,,,,,,,,,,,,,,,,77.45632612573536,None,77.45632612573536,None,77.45632612573536,None,4,3.417984272880858,77.45632612573536,None,,,,,,,,,,,,,,,,,,,,,,,,,,,,,,,,,,,,,,,,,,,,,,,,,,,,,,,,,,,,,,,,,,,,,,,,,,,,,,,,,,,,,,,,,,,,,,,,,,,,,,,,,,,,,,24208,2019_Oct_01_1445,Mmi_3levels,3.1.5,59.97714279081539,
,,,,,,,,,,,,,,,,,,,,,,,,,,,,,,,,,,,,,,,,,,,,,,,,,,,,,,,,,,,,,,,,80.8909398673677,None,space,22.92559648659517,80.8909398673677,None,,,,,,,,,,,,,,,,,,,,,,,,,,,,,,,,,,,,,,,,,,,,,,,,,,,,,,,,,,,,,,,,,,,,,,,,,,,,,,,,,,,,,,,,,,,,,,,,,,,,,,,,24208,2019_Oct_01_1445,Mmi_3levels,3.1.5,59.97714279081539,
,,,1,1,1.5,,,,,,,,,0,0,0,0,0,0,0,0,,,,,,,,,,,,,,,,,,,,,,,,,,,,,,,,,,,,,,,,,,,,,,,,,103.8329869527297,None,0.83,5.926661066980159,106.85074723815342,None,4,2.901486476759601,106.85074723815342,None,109.76857359987844,None,True,False,False,0.83,-0.17000000000000004,-0.17000000000000004,-0.6091666666666669,1.5,0.8908333333333331,1.1954166666666666,gamble,lose,0.8908333333333331,0.8908333333333331,112.80301071139911,None,112.80301071139911,None,112.80301071139911,None,112.80301071139911,None,112.80301071139911,None,112.80301071139911,None,112.80301071139911,None,None,112.80301071139911,None,115.80415208748309,None,115.80415208748309,None,115.80415208748309,None,115.80415208748309,None,115.80415208748309,None,115.80415208748309,None,115.80415208748309,None,119.78898973657488,None,119.78898973657488,None,119.78898973657488,None,119.78898973657488,None,119.78898973657488,None,119.78898973657488,None,119.78898973657488,None,120.7893756349622,None,,,,,,,,,,,,,,,,,,,,,,,,,,,,,,,24208,2019_Oct_01_1445,Mmi_3levels,3.1.5,59.97714279081539,
,,,1,1,6.5,,,,,,,,,0,0,0,0,0,1,1,19,,,,,,,,,,,,,,,,,,,,,,,,,,,,,,,,,,,,,,,,,,,,,,,,,,,,,,,,,,,,,True,True,False,0.83,-0.17000000000000004,-0.3400000000000001,2.7200000000000006,6.5,3.7799999999999994,1.8899999999999997,gamble,win,6.5,7.390833333333333,122.80680249906072,None,122.80680249906072,None,122.80680249906072,None,122.80680249906072,None,122.80680249906072,None,122.80680249906072,None,122.80680249906072,None,1,122.80680249906072,None,125.12440743318439,None,125.12440743318439,None,125.12440743318439,None,125.12440743318439,None,125.12440743318439,None,125.12440743318439,None,125.12440743318439,None,129.10919612501675,None,129.10919612501675,None,129.10919612501675,None,129.10919612501675,None,129.10919612501675,None,129.10919612501675,None,129.10919612501675,None,130.10957882358343,None,2.2844323917852307,,,,,,,,,,,,,,,,,,,,,,,,,,,,,,24208,2019_Oct_01_1445,Mmi_3levels,3.1.5,59.97714279081539,
,,,1,1,1.7,,,,,,,,,0,0,0,0,0,2,2,7,,,,,,,,,,,,,,,,,,,,,,,,,,,,,,,,,,,,,,,,,,,,,,,,,,,,,,,,,,,,,True,True,False,0.83,-0.17000000000000004,-0.5100000000000001,2.890000000000001,1.7,-1.190000000000001,0.25499999999999945,certain,certain,0.25499999999999945,7.645833333333332,132.12700920748466,None,132.12700920748466,None,132.12700920748466,None,132.12700920748466,None,132.12700920748466,None,132.12700920748466,None,132.12700920748466,None,3,132.12700920748466,None,134.7280469093712,None,134.7280469093712,None,134.7280469093712,None,134.7280469093712,None,134.7280469093712,None,134.7280469093712,None,134.7280469093712,None,138.71284136088434,None,138.71284136088434,None,138.71284136088434,None,138.71284136088434,None,138.71284136088434,None,138.71284136088434,None,138.71284136088434,None,148.21645283863836,None,2.5678997176146368,139.71326789699742,None,140.7136541153668,None,1.0,7.502770564849925,143.7147292551599,None,None,143.7147292551599,None,,,,,,,,,,,,,,,,,,,24208,2019_Oct_01_1445,Mmi_3levels,3.1.5,59.97714279081539,
,,,1,1,7.7,,,,,,,,,0,0,0,0,0,3,3,15,,,,,,,,,,,,,,,,,,,,,,,,,,,,,,,,,,,,,,,,,,,,,,,,,,,,,,,,,,,,,True,True,True,1.0,0.0,-0.5100000000000001,0.5100000000000001,7.7,7.19,3.595,gamble,win,7.7,15.345833333333331,150.2551444319106,None,150.2551444319106,None,150.2551444319106,None,150.2551444319106,None,150.2551444319106,None,150.2551444319106,None,150.2551444319106,None,1,150.2551444319106,None,152.76817458222285,None,152.76817458222285,None,152.76817458222285,None,152.76817458222285,None,152.76817458222285,None,152.76817458222285,None,152.76817458222285,None,156.7697453742585,None,156.7697453742585,None,156.7697453742585,None,156.7697453742585,None,156.7697453742585,None,156.7697453742585,None,156.7697453742585,None,157.7533898101683,None,2.4799344036728144,,,,,,,,,,,,,,,,,,,,,,,,,,,,,,24208,2019_Oct_01_1445,Mmi_3levels,3.1.5,59.97714279081539,
,,,1,1,9.7,,,,,,,,,0,0,0,0,0,4,4,1,,,,,,,,,,,,,,,,,,,,,,,,,,,,,,,,,,,,,,,,,,,,,,,,,,,,,,,,,,,,,True,True,True,1.0,0.0,-0.5100000000000001,0.5100000000000001,9.7,9.19,4.595,gamble,win,9.7,25.04583333333333,159.77083523322653,None,159.77083523322653,None,159.77083523322653,None,159.77083523322653,None,159.77083523322653,None,159.77083523322653,None,159.77083523322653,None,1,159.77083523322653,None,162.2384528866387,None,162.2384528866387,None,162.2384528866387,None,162.2384528866387,None,162.2384528866387,None,162.2384528866387,None,162.2384528866387,None,166.2399747214149,None,166.2399747214149,None,166.2399747214149,None,166.2399747214149,None,166.2399747214149,None,166.2399747214149,None,166.2399747214149,None,175.72689081411227,None,2.4345519850903656,167.22366747462002,None,168.22410425016278,None,1.0,7.502735046837188,171.2251861095756,None,None,171.2251861095756,None,,,,,,,,,,,,,,,,,,,24208,2019_Oct_01_1445,Mmi_3levels,3.1.5,59.97714279081539,
,,,1,1,-0.1,,,,,,,,,0,0,0,0,0,5,5,8,,,,,,,,,,,,,,,,,,,,,,,,,,,,,,,,,,,,,,,,,,,,,,,,,,,,,,,,,,,,,True,False,False,1.0,0.0,-0.5100000000000001,-0.04250000000000001,-0.1,-0.14250000000000002,-0.12125000000000001,gamble,lose,-0.14250000000000002,24.903333333333332,177.7443807146774,None,177.7443807146774,None,177.7443807146774,None,177.7443807146774,None,177.7443807146774,None,177.7443807146774,None,177.7443807146774,None,None,177.7443807146774,None,180.74550897149675,None,180.74550897149675,None,180.74550897149675,None,180.74550897149675,None,180.74550897149675,None,180.74550897149675,None,180.74550897149675,None,184.73030790275516,None,184.73030790275516,None,184.73030790275516,None,184.73030790275516,None,184.73030790275516,None,184.73030790275516,None,184.73030790275516,None,185.73073475885394,None,,,,,,,,,,,,,,,,,,,,,,,,,,,,,,,24208,2019_Oct_01_1445,Mmi_3levels,3.1.5,59.97714279081539,
,,,1,1,5.9,,,,,,,,,0,0,0,0,0,6,6,18,,,,,,,,,,,,,,,,,,,,,,,,,,,,,,,,,,,,,,,,,,,,,,,,,,,,,,,,,,,,,True,True,True,1.0,0.0,-0.5100000000000001,0.5100000000000001,5.9,5.390000000000001,2.6950000000000003,gamble,win,5.9,30.803333333333335,187.74812450502577,None,187.74812450502577,None,187.74812450502577,None,187.74812450502577,None,187.74812450502577,None,187.74812450502577,None,187.74812450502577,None,1,187.74812450502577,None,189.33211324165677,None,189.33211324165677,None,189.33211324165677,None,189.33211324165677,None,189.33211324165677,None,189.33211324165677,None,189.33211324165677,None,193.31690193348913,None,193.31690193348913,None,193.31690193348913,None,193.31690193348913,None,193.31690193348913,None,193.31690193348913,None,193.31690193348913,None,194.3173326293727,None,1.5508731511035876,,,,,,,,,,,,,,,,,,,,,,,,,,,,,,24208,2019_Oct_01_1445,Mmi_3levels,3.1.5,59.97714279081539,
,,,1,1,11.3,,,,,,,,,0,0,0,0,0,7,7,4,,,,,,,,,,,,,,,,,,,,,,,,,,,,,,,,,,,,,,,,,,,,,,,,,,,,,,,,,,,,,True,False,True,1.0,0.0,-0.5100000000000001,-0.04250000000000001,11.3,11.2575,5.62875,gamble,lose,11.2575,42.060833333333335,196.33471053620815,None,196.33471053620815,None,196.33471053620815,None,196.33471053620815,None,196.33471053620815,None,196.33471053620815,None,196.33471053620815,None,1,196.33471053620815,None,197.61853944179165,None,197.61853944179165,None,197.61853944179165,None,197.61853944179165,None,197.61853944179165,None,197.61853944179165,None,197.61853944179165,None,201.60342156839033,None,201.60342156839033,None,201.60342156839033,None,201.60342156839033,None,201.60342156839033,None,201.60342156839033,None,201.60342156839033,None,211.10703752589689,None,1.2507289991772268,202.60376458918108,None,203.6041437679487,None,0.91,7.502871359203709,206.6053293015575,None,None,206.6053293015575,None,,,,,,,,,,,,,,,,,,,24208,2019_Oct_01_1445,Mmi_3levels,3.1.5,59.97714279081539,
,,,1,1,12.7,,,,,,,,,0,0,0,0,0,8,8,14,,,,,,,,,,,,,,,,,,,,,,,,,,,,,,,,,,,,,,,,,,,,,,,,,,,,,,,,,,,,,True,True,False,0.91,-0.08999999999999997,-0.6000000000000001,1.8599999999999997,12.7,10.84,5.42,gamble,win,12.7,54.76083333333334,213.14572527938435,None,213.14572527938435,None,213.14572527938435,None,213.14572527938435,None,213.14572527938435,None,213.14572527938435,None,213.14572527938435,None,1,213.14572527938435,None,214.9084854448156,None,214.9084854448156,None,214.9084854448156,None,214.9084854448156,None,214.9084854448156,None,214.9084854448156,None,214.9084854448156,None,218.89324469829444,None,218.89324469829444,None,218.89324469829444,None,218.89324469829444,None,218.89324469829444,None,218.89324469829444,None,218.89324469829444,None,219.8937045125458,None,1.7296538593836885,,,,,,,,,,,,,,,,,,,,,,,,,,,,,,24208,2019_Oct_01_1445,Mmi_3levels,3.1.5,59.97714279081539,
,,,1,1,9.9,,,,,,,,,0,0,0,0,0,9,9,3,,,,,,,,,,,,,,,,,,,,,,,,,,,,,,,,,,,,,,,,,,,,,,,,,,,,,,,,,,,,,True,False,False,0.91,-0.08999999999999997,-0.6900000000000001,-0.3724999999999999,9.9,9.5275,4.76375,gamble,lose,9.5275,64.28833333333334,221.91109329877509,None,221.91109329877509,None,221.91109329877509,None,221.91109329877509,None,221.91109329877509,None,221.91109329877509,None,221.91109329877509,None,1,221.91109329877509,None,223.29495212268012,None,223.29495212268012,None,223.29495212268012,None,223.29495212268012,None,223.29495212268012,None,223.29495212268012,None,223.29495212268012,None,227.2797942515208,None,227.2797942515208,None,227.2797942515208,None,227.2797942515208,None,227.2797942515208,None,227.2797942515208,None,227.2797942515208,None,236.78338621037256,None,1.3507589174987515,228.28017759005525,None,229.28054204964428,None,1.0,7.502738246657827,232.2817346228585,None,None,232.2817346228585,None,,,,,,,,,,,,,,,,,,,24208,2019_Oct_01_1445,Mmi_3levels,3.1.5,59.97714279081539,
,,,1,1,9.5,,,,,,,,,0,0,0,0,0,10,10,16,,,,,,,,,,,,,,,,,,,,,,,,,,,,,,,,,,,,,,,,,,,,,,,,,,,,,,,,,,,,,True,True,True,1.0,0.0,-0.6900000000000001,0.6900000000000001,9.5,8.81,4.405,gamble,win,9.5,73.78833333333334,238.8008223539473,None,238.8008223539473,None,238.8008223539473,None,238.8008223539473,None,238.8008223539473,None,238.8008223539473,None,238.8008223539473,None,1,238.8008223539473,None,240.75162350908067,None,240.75162350908067,None,240.75162350908067,None,240.75162350908067,None,240.75162350908067,None,240.75162350908067,None,240.75162350908067,None,244.75314630380672,None,244.75314630380672,None,244.75314630380672,None,244.75314630380672,None,244.75314630380672,None,244.75314630380672,None,244.75314630380672,None,245.7368579359536,None,1.9177038085872482,,,,,,,,,,,,,,,,,,,,,,,,,,,,,,24208,2019_Oct_01_1445,Mmi_3levels,3.1.5,59.97714279081539,
,,,1,1,10.1,,,,,,,,,0,0,0,0,0,11,11,5,,,,,,,,,,,,,,,,,,,,,,,,,,,,,,,,,,,,,,,,,,,,,,,,,,,,,,,,,,,,,True,False,False,1.0,0.0,-0.6900000000000001,-0.0575,10.1,10.0425,5.02125,gamble,lose,10.0425,83.83083333333335,247.75428320013816,None,247.75428320013816,None,247.75428320013816,None,247.75428320013816,None,247.75428320013816,None,247.75428320013816,None,247.75428320013816,None,1,247.75428320013816,None,248.95469245722052,None,248.95469245722052,None,248.95469245722052,None,248.95469245722052,None,248.95469245722052,None,248.95469245722052,None,248.95469245722052,None,252.95620533249894,None,252.95620533249894,None,252.95620533249894,None,252.95620533249894,None,252.95620533249894,None,252.95620533249894,None,252.95620533249894,None,262.4598625676954,None,1.1839861767730326,253.9566395481852,None,254.95696944971132,None,0.98,7.502828481603501,257.9581079459531,None,None,257.9581079459531,None,,,,,,,,,,,,,,,,,,,24208,2019_Oct_01_1445,Mmi_3levels,3.1.5,59.97714279081539,
,,,1,1,12.1,,,,,,,,,0,0,0,0,0,12,12,25,,,,,,,,,,,,,,,,,,,,,,,,,,,,,,,,,,,,,,,,,,,,,,,,,,,,,,,,,,,,,True,True,True,0.98,-0.020000000000000018,-0.7100000000000001,0.9900000000000003,12.1,11.11,5.555,gamble,win,12.1,95.93083333333334,264.4772494340323,None,264.4772494340323,None,264.4772494340323,None,264.4772494340323,None,264.4772494340323,None,264.4772494340323,None,264.4772494340323,None,1,264.4772494340323,None,266.4113158463115,None,266.4113158463115,None,266.4113158463115,None,266.4113158463115,None,266.4113158463115,None,266.4113158463115,None,266.4113158463115,None,270.412834161285,None,270.412834161285,None,270.412834161285,None,270.412834161285,None,270.412834161285,None,270.412834161285,None,270.412834161285,None,271.41326549713267,None,1.9176439719376503,,,,,,,,,,,,,,,,,,,,,,,,,,,,,,24208,2019_Oct_01_1445,Mmi_3levels,3.1.5,59.97714279081539,
,,,1,1,1.1,,,,,,,,,0,0,0,0,0,13,13,17,,,,,,,,,,,,,,,,,,,,,,,,,,,,,,,,,,,,,,,,,,,,,,,,,,,,,,,,,,,,,True,True,True,0.98,-0.020000000000000018,-0.7300000000000001,1.0100000000000002,1.1,0.08999999999999986,0.595,gamble,win,1.1,97.03083333333333,273.43064788371703,None,273.43064788371703,None,273.43064788371703,None,273.43064788371703,None,273.43064788371703,None,273.43064788371703,None,273.43064788371703,None,None,273.43064788371703,None,276.4151095538655,None,276.4151095538655,None,276.4151095538655,None,276.4151095538655,None,276.4151095538655,None,276.4151095538655,None,276.4151095538655,None,280.4166806658832,None,280.4166806658832,None,280.4166806658832,None,280.4166806658832,None,280.4166806658832,None,280.4166806658832,None,280.4166806658832,None,281.4170153671366,None,,,,,,,,,,,,,,,,,,,,,,,,,,,,,,,24208,2019_Oct_01_1445,Mmi_3levels,3.1.5,59.97714279081539,
,,,1,1,11.9,,,,,,,,,0,0,0,0,0,14,14,6,,,,,,,,,,,,,,,,,,,,,,,,,,,,,,,,,,,,,,,,,,,,,,,,,,,,,,,,,,,,,True,True,True,0.98,-0.020000000000000018,-0.7500000000000001,1.0300000000000002,11.9,10.870000000000001,5.4350000000000005,gamble,win,11.9,108.93083333333334,283.4344460710199,None,283.4344460710199,None,283.4344460710199,None,283.4344460710199,None,283.4344460710199,None,283.4344460710199,None,283.4344460710199,None,1,283.4344460710199,None,284.7349889206198,None,284.7349889206198,None,284.7349889206198,None,284.7349889206198,None,284.7349889206198,None,284.7349889206198,None,284.7349889206198,None,288.719781772219,None,288.719781772219,None,288.719781772219,None,288.719781772219,None,288.719781772219,None,288.719781772219,None,288.719781772219,None,298.22343548761273,None,1.2673930259916233,289.72016863055615,None,290.72059132688446,None,0.94,7.502859839849407,293.7216847056552,None,None,293.7216847056552,None,,,,,,,,,,,,,,,,,,,24208,2019_Oct_01_1445,Mmi_3levels,3.1.5,59.97714279081539,
,,,1,1,-0.3,,,,,,,,,0,0,0,0,0,15,15,11,,,,,,,,,,,,,,,,,,,,,,,,,,,,,,,,,,,,,,,,,,,,,,,,,,,,,,,,,,,,,True,True,True,0.94,-0.06000000000000005,-0.8100000000000002,1.6500000000000008,-0.3,-1.9500000000000008,-1.1250000000000004,gamble,win,-0.3,108.63083333333334,300.2408348332501,None,300.2408348332501,None,300.2408348332501,None,300.2408348332501,None,300.2408348332501,None,300.2408348332501,None,300.2408348332501,None,None,300.2408348332501,None,303.2420152471459,None,303.2420152471459,None,303.2420152471459,None,303.2420152471459,None,303.2420152471459,None,303.2420152471459,None,303.2420152471459,None,307.2434842848779,None,307.2434842848779,None,307.2434842848779,None,307.2434842848779,None,307.2434842848779,None,307.2434842848779,None,307.2434842848779,None,308.22719303718986,None,,,,,,,,,,,,,,,,,,,,,,,,,,,,,,,24208,2019_Oct_01_1445,Mmi_3levels,3.1.5,59.97714279081539,
,,,1,1,-0.9,,,,,,,,,0,0,0,0,0,16,16,10,,,,,,,,,,,,,,,,,,,,,,,,,,,,,,,,,,,,,,,,,,,,,,,,,,,,,,,,,,,,,True,True,True,0.94,-0.06000000000000005,-0.8700000000000002,1.7100000000000009,-0.9,-2.6100000000000008,-1.7550000000000003,certain,certain,-1.7550000000000003,106.87583333333335,310.24466821858005,None,310.24466821858005,None,310.24466821858005,None,310.24466821858005,None,310.24466821858005,None,310.24466821858005,None,310.24466821858005,None,3,310.24466821858005,None,312.74556784820015,None,312.74556784820015,None,312.74556784820015,None,312.74556784820015,None,312.74556784820015,None,312.74556784820015,None,312.74556784820015,None,316.7471312806483,None,316.7471312806483,None,316.7471312806483,None,316.7471312806483,None,316.7471312806483,None,316.7471312806483,None,316.7471312806483,None,326.2340214547985,None,2.4678077227654285,317.7307965153959,None,318.73117889398054,None,0.7,7.502384026494838,321.7323157903156,None,None,321.7323157903156,None,,,,,,,,,,,,,,,,,,,24208,2019_Oct_01_1445,Mmi_3levels,3.1.5,59.97714279081539,
,,,1,1,5.1,,,,,,,,,0,0,0,0,0,17,17,13,,,,,,,,,,,,,,,,,,,,,,,,,,,,,,,,,,,,,,,,,,,,,,,,,,,,,,,,,,,,,True,True,True,0.7,-0.30000000000000004,-1.1700000000000004,5.370000000000001,5.1,-0.27000000000000135,-0.13500000000000068,gamble,win,5.1,111.97583333333334,328.2727303271022,None,328.2727303271022,None,328.2727303271022,None,328.2727303271022,None,328.2727303271022,None,328.2727303271022,None,328.2727303271022,None,1,328.2727303271022,None,331.25259321478006,None,331.25259321478006,None,331.25259321478006,None,331.25259321478006,None,331.25259321478006,None,331.25259321478006,None,331.25259321478006,None,335.23742926396153,None,335.23742926396153,None,335.23742926396153,None,335.23742926396153,None,335.23742926396153,None,335.23742926396153,None,335.23742926396153,None,336.2378193221157,None,2.9467521018814296,,,,,,,,,,,,,,,,,,,,,,,,,,,,,,24208,2019_Oct_01_1445,Mmi_3levels,3.1.5,59.97714279081539,
,,,1,1,3.5,,,,,,,,,0,0,0,0,0,18,18,24,,,,,,,,,,,,,,,,,,,,,,,,,,,,,,,,,,,,,,,,,,,,,,,,,,,,,,,,,,,,,True,False,False,0.7,-0.30000000000000004,-1.4700000000000004,-1.1725000000000003,3.5,2.3274999999999997,1.1637499999999998,gamble,lose,2.3274999999999997,114.30333333333334,338.25525386578374,None,338.25525386578374,None,338.25525386578374,None,338.25525386578374,None,338.25525386578374,None,338.25525386578374,None,338.25525386578374,None,1,338.25525386578374,None,339.53907189197344,None,339.53907189197344,None,339.53907189197344,None,339.53907189197344,None,339.53907189197344,None,339.53907189197344,None,339.53907189197344,None,343.5239597782529,None,343.5239597782529,None,343.5239597782529,None,343.5239597782529,None,343.5239597782529,None,343.5239597782529,None,343.5239597782529,None,344.52430087915127,None,1.2507257993529493,,,,,,,,,,,,,,,,,,,,,,,,,,,,,,24208,2019_Oct_01_1445,Mmi_3levels,3.1.5,59.97714279081539,
,,,1,1,4.9,,,,,,,,,0,0,0,0,0,19,19,23,,,,,,,,,,,,,,,,,,,,,,,,,,,,,,,,,,,,,,,,,,,,,,,,,,,,,,,,,,,,,True,True,True,0.7,-0.30000000000000004,-1.7700000000000005,5.9700000000000015,4.9,-1.0700000000000012,1.9149999999999996,gamble,win,4.9,119.20333333333335,346.5417811802545,None,346.5417811802545,None,346.5417811802545,None,346.5417811802545,None,346.5417811802545,None,346.5417811802545,None,346.5417811802545,None,1,346.5417811802545,None,348.87595094674543,None,348.87595094674543,None,348.87595094674543,None,348.87595094674543,None,348.87595094674543,None,348.87595094674543,None,348.87595094674543,None,352.8775198188887,None,352.8775198188887,None,352.8775198188887,None,352.8775198188887,None,352.8775198188887,None,352.8775198188887,None,352.8775198188887,None,362.3643875942944,None,2.3010804194964294,353.86113001671765,None,354.8615299943194,None,0.94,7.502808642715536,357.86266913052896,None,None,357.86266913052896,None,,,,,,,,,,,,,,,,,,,24208,2019_Oct_01_1445,Mmi_3levels,3.1.5,59.97714279081539,
,,,1,1,13.5,,,,,,,,,0,0,0,0,0,20,20,2,,,,,,,,,,,,,,,,,,,,,,,,,,,,,,,,,,,,,,,,,,,,,,,,,,,,,,,,,,,,,True,True,True,0.94,-0.06000000000000005,-1.8300000000000005,2.6700000000000013,13.5,10.829999999999998,5.414999999999999,gamble,win,13.5,132.70333333333335,364.38182277792293,None,364.38182277792293,None,364.38182277792293,None,364.38182277792293,None,364.38182277792293,None,364.38182277792293,None,364.38182277792293,None,1,364.38182277792293,None,365.6490033358132,None,365.6490033358132,None,365.6490033358132,None,365.6490033358132,None,365.6490033358132,None,365.6490033358132,None,365.6490033358132,None,369.65050597166555,None,369.65050597166555,None,369.65050597166555,None,369.65050597166555,None,369.65050597166555,None,369.65050597166555,None,369.65050597166555,None,370.63425760157406,None,1.234177606056619,,,,,,,,,,,,,,,,,,,,,,,,,,,,,,24208,2019_Oct_01_1445,Mmi_3levels,3.1.5,59.97714279081539,
,,,1,1,4.3,,,,,,,,,0,0,0,0,0,21,21,21,,,,,,,,,,,,,,,,,,,,,,,,,,,,,,,,,,,,,,,,,,,,,,,,,,,,,,,,,,,,,True,True,True,0.94,-0.06000000000000005,-1.8900000000000006,2.7300000000000013,4.3,1.5699999999999985,0.7849999999999993,gamble,win,4.3,137.00333333333336,372.65166334685273,None,372.65166334685273,None,372.65166334685273,None,372.65166334685273,None,372.65166334685273,None,372.65166334685273,None,372.65166334685273,None,1,372.65166334685273,None,375.319343076786,None,375.319343076786,None,375.319343076786,None,375.319343076786,None,375.319343076786,None,375.319343076786,None,375.319343076786,None,379.3041397681736,None,379.3041397681736,None,379.3041397681736,None,379.3041397681736,None,379.3041397681736,None,379.3041397681736,None,379.3041397681736,None,388.8077733246937,None,2.6346182213783322,380.30451670706316,None,381.30490196549,None,1.0,7.502726407321461,384.3060919788477,None,None,384.3060919788477,None,,,,,,,,,,,,,,,,,,,24208,2019_Oct_01_1445,Mmi_3levels,3.1.5,59.97714279081539,
,,,1,1,1.9,,,,,,,,,0,0,0,0,0,22,22,9,,,,,,,,,,,,,,,,,,,,,,,,,,,,,,,,,,,,,,,,,,,,,,,,,,,,,,,,,,,,,True,True,True,1.0,0.0,-1.8900000000000006,1.8900000000000006,1.9,0.009999999999999343,0.9549999999999996,gamble,win,1.9,138.90333333333336,390.8464969161723,None,390.8464969161723,None,390.8464969161723,None,390.8464969161723,None,390.8464969161723,None,390.8464969161723,None,390.8464969161723,None,None,390.8464969161723,None,393.8263194861065,None,393.8263194861065,None,393.8263194861065,None,393.8263194861065,None,393.8263194861065,None,393.8263194861065,None,393.8263194861065,None,397.8278829185547,None,397.8278829185547,None,397.8278829185547,None,397.8278829185547,None,397.8278829185547,None,397.8278829185547,None,397.8278829185547,None,398.8282630572685,None,,,,,,,,,,,,,,,,,,,,,,,,,,,,,,,24208,2019_Oct_01_1445,Mmi_3levels,3.1.5,59.97714279081539,
,,,1,1,7.1,,,,,,,,,0,0,0,0,0,23,23,22,,,,,,,,,,,,,,,,,,,,,,,,,,,,,,,,,,,,,,,,,,,,,,,,,,,,,,,,,,,,,True,True,True,1.0,0.0,-1.8900000000000006,1.8900000000000006,7.1,5.209999999999999,2.6049999999999995,gamble,win,7.1,146.00333333333336,400.8456467237811,None,400.8456467237811,None,400.8456467237811,None,400.8456467237811,None,400.8456467237811,None,400.8456467237811,None,400.8456467237811,None,1,400.8456467237811,None,401.92939755373664,None,401.92939755373664,None,401.92939755373664,None,401.92939755373664,None,401.92939755373664,None,401.92939755373664,None,401.92939755373664,None,405.91428288015595,None,405.91428288015595,None,405.91428288015595,None,405.91428288015595,None,405.91428288015595,None,405.91428288015595,None,405.91428288015595,None,415.4178969177701,None,1.0506765221143723,406.91462270112606,None,407.91504763733246,None,0.94,7.5028112025720475,410.91616565472214,None,None,410.91616565472214,None,,,,,,,,,,,,,,,,,,,24208,2019_Oct_01_1445,Mmi_3levels,3.1.5,59.97714279081539,
,,,1,1,0.3,,,,,,,,,0,0,0,0,0,24,24,20,,,,,,,,,,,,,,,,,,,,,,,,,,,,,,,,,,,,,,,,,,,,,,,,,,,,,,,,,,,,,True,False,False,0.94,-0.06000000000000005,-1.9500000000000006,-0.3725000000000003,0.3,-0.07250000000000029,0.11374999999999985,certain,certain,0.11374999999999985,146.11708333333337,417.4353346612588,None,417.4353346612588,None,417.4353346612588,None,417.4353346612588,None,417.4353346612588,None,417.4353346612588,None,417.4353346612588,None,3,417.4353346612588,None,419.9529037573884,None,419.9529037573884,None,419.9529037573884,None,419.9529037573884,None,419.9529037573884,None,419.9529037573884,None,419.9529037573884,None,423.937792283632,None,423.937792283632,None,423.937792283632,None,423.937792283632,None,423.937792283632,None,423.937792283632,None,423.937792283632,None,424.9381241050505,None,2.484524226641952,,,,,,,,,,,,,,,,,,,,,,,,,,,,,,24208,2019_Oct_01_1445,Mmi_3levels,3.1.5,59.97714279081539,
,,,1,1,8.3,,,,,,,,,0,0,0,0,0,25,25,26,,,,,,,,,,,,,,,,,,,,,,,,,,,,,,,,,,,,,,,,,,,,,,,,,,,,,,,,,,,,,True,True,True,0.94,-0.06000000000000005,-2.0100000000000007,2.8500000000000014,8.3,5.449999999999999,2.7249999999999996,gamble,win,8.3,154.41708333333338,426.95556376842796,None,426.95556376842796,None,426.95556376842796,None,426.95556376842796,None,426.95556376842796,None,426.95556376842796,None,426.95556376842796,None,1,426.95556376842796,None,429.32317294231325,None,429.32317294231325,None,429.32317294231325,None,429.32317294231325,None,429.32317294231325,None,429.32317294231325,None,429.32317294231325,None,433.30797219355736,None,433.30797219355736,None,433.30797219355736,None,433.30797219355736,None,433.30797219355736,None,433.30797219355736,None,433.30797219355736,None,434.3083945699036,None,2.3345268664961623,,,,,,,,,,,,,,,,,,,,,,,,,,,,,,24208,2019_Oct_01_1445,Mmi_3levels,3.1.5,59.97714279081539,
,,,1,1,4.5,,,,,,,,,0,0,0,0,0,26,26,12,,,,,,,,,,,,,,,,,,,,,,,,,,,,,,,,,,,,,,,,,,,,,,,,,,,,,,,,,,,,,True,True,False,0.94,-0.06000000000000005,-2.0700000000000007,2.9100000000000015,4.5,1.5899999999999985,0.7949999999999993,gamble,win,4.5,158.91708333333338,436.32582623372946,None,436.32582623372946,None,436.32582623372946,None,436.32582623372946,None,436.32582623372946,None,436.32582623372946,None,436.32582623372946,None,1,436.32582623372946,None,437.67634324477694,None,437.67634324477694,None,437.67634324477694,None,437.67634324477694,None,437.67634324477694,None,437.67634324477694,None,437.67634324477694,None,441.6611952930616,None,441.6611952930616,None,441.6611952930616,None,441.6611952930616,None,441.6611952930616,None,441.6611952930616,None,441.6611952930616,None,451.16479013175194,None,1.3174238242681895,442.66154631340396,None,443.66200068796024,None,0.9,7.502809922643792,446.6630431895792,None,None,446.6630431895792,None,,,,,,,,,,,,,,,,,,,24208,2019_Oct_01_1445,Mmi_3levels,3.1.5,59.97714279081539,
,,,2,0,13.3,,,,,,,,,0,1,1,1,0,0,0,11,,,,,,,,,,,,,,,,,,,,,,,,,,,,,,,,,,,,,,,,,,,,,,,,,459.5513752029874,None,0.87,5.101025382577063,462.5691278088416,None,4,2.0677024486649316,462.5691278088416,None,464.65325365779427,None,False,False,True,0.87,0.87,0.87,3.1174999999999997,3.325,0.20750000000000046,1.7662500000000003,gamble,win,3.325,162.24208333333337,467.67103986176517,None,467.67103986176517,None,467.67103986176517,None,467.67103986176517,None,467.67103986176517,None,467.67103986176517,None,467.67103986176517,None,1,467.67103986176517,None,470.63878534801916,None,470.63878534801916,None,470.63878534801916,None,470.63878534801916,None,470.63878534801916,None,470.63878534801916,None,470.63878534801916,None,474.6236501955864,None,474.6236501955864,None,474.6236501955864,None,474.6236501955864,None,474.6236501955864,None,474.6236501955864,None,474.6236501955864,None,475.62403769388766,None,2.934484628858627,,,,,,,,,,,,453.1701018342974,None,4,6.364559104687942,453.1701018342974,None,,,,,,,,,,,,,24208,2019_Oct_01_1445,Mmi_3levels,3.1.5,59.97714279081539,
,,,2,0,7.3,,,,,,,,,0,1,1,1,0,1,1,14,,,,,,,,,,,,,,,,,,,,,,,,,,,,,,,,,,,,,,,,,,,,,,,,,,,,,,,,,,,,,False,False,True,0.87,0.87,1.74,3.19,1.825,-1.365,0.22999999999999998,certain,certain,0.22999999999999998,162.47208333333336,477.64147351748034,None,477.64147351748034,None,477.64147351748034,None,477.64147351748034,None,477.64147351748034,None,477.64147351748034,None,477.64147351748034,None,3,477.64147351748034,None,480.292514819168,None,480.292514819168,None,480.292514819168,None,480.292514819168,None,480.292514819168,None,480.292514819168,None,480.292514819168,None,484.2773655875244,None,484.2773655875244,None,484.2773655875244,None,484.2773655875244,None,484.2773655875244,None,484.2773655875244,None,484.2773655875244,None,493.7809332277393,None,2.6179503547791683,485.2777438063458,None,486.2780794675491,None,0.85,7.502948154902697,489.27921508395593,None,None,489.27921508395593,None,,,,,,,,,,,,,,,,,,,24208,2019_Oct_01_1445,Mmi_3levels,3.1.5,59.97714279081539,
,,,2,0,10.5,,,,,,,,,0,1,1,1,0,2,2,1,,,,,,,,,,,,,,,,,,,,,,,,,,,,,,,,,,,,,,,,,,,,,,,,,,,,,,,,,,,,,False,True,True,0.85,0.85,2.59,-14.49,2.625,-11.865,-4.62,certain,certain,-4.62,157.85208333333335,495.79835849192386,None,495.79835849192386,None,495.79835849192386,None,495.79835849192386,None,495.79835849192386,None,495.79835849192386,None,495.79835849192386,None,3,495.79835849192386,None,497.64905613285373,None,497.64905613285373,None,497.64905613285373,None,497.64905613285373,None,497.64905613285373,None,497.64905613285373,None,497.64905613285373,None,501.6505766877053,None,501.6505766877053,None,501.6505766877053,None,501.6505766877053,None,501.6505766877053,None,501.6505766877053,None,501.6505766877053,None,502.6342848000495,None,1.8176518114996725,,,,,,,,,,,,,,,,,,,,,,,,,,,,,,24208,2019_Oct_01_1445,Mmi_3levels,3.1.5,59.97714279081539,
,,,2,0,11.1,,,,,,,,,0,1,1,1,0,3,3,22,,,,,,,,,,,,,,,,,,,,,,,,,,,,,,,,,,,,,,,,,,,,,,,,,,,,,,,,,,,,,False,True,True,0.85,0.85,3.44,-15.34,2.775,-12.565,-4.895,gamble,lose,-12.565,145.28708333333336,504.6517695809016,None,504.6517695809016,None,504.6517695809016,None,504.6517695809016,None,504.6517695809016,None,504.6517695809016,None,504.6517695809016,None,None,504.6517695809016,None,507.65286551952886,None,507.65286551952886,None,507.65286551952886,None,507.65286551952886,None,507.65286551952886,None,507.65286551952886,None,507.65286551952886,None,511.6377492460415,None,511.6377492460415,None,511.6377492460415,None,511.6377492460415,None,511.6377492460415,None,511.6377492460415,None,511.6377492460415,None,521.1413524042655,None,,512.6380804274959,None,513.6384615261522,None,0.28,7.502866239490686,516.639601622308,None,None,516.639601622308,None,,,,,,,,,,,,,,,,,,,24208,2019_Oct_01_1445,Mmi_3levels,3.1.5,59.97714279081539,
,,,2,0,2.7,,,,,,,,,0,1,1,1,0,4,4,24,,,,,,,,,,,,,,,,,,,,,,,,,,,,,,,,,,,,,,,,,,,,,,,,,,,,,,,,,,,,,False,True,True,0.28,0.28,3.7199999999999998,-7.640000000000001,0.675,-6.965000000000001,-3.1450000000000005,certain,certain,-3.1450000000000005,142.14208333333335,523.1800292783591,None,523.1800292783591,None,523.1800292783591,None,523.1800292783591,None,523.1800292783591,None,523.1800292783591,None,523.1800292783591,None,3,523.1800292783591,None,525.492959274281,None,525.492959274281,None,525.492959274281,None,525.492959274281,None,525.492959274281,None,525.492959274281,None,525.492959274281,None,529.4778084427271,None,529.4778084427271,None,529.4778084427271,None,529.4778084427271,None,529.4778084427271,None,529.4778084427271,None,529.4778084427271,None,530.4781863415628,None,2.279888326254877,,,,,,,,,,,,,,,,,,,,,,,,,,,,,,24208,2019_Oct_01_1445,Mmi_3levels,3.1.5,59.97714279081539,
,,,2,0,1.3,,,,,,,,,0,1,1,1,0,5,5,15,,,,,,,,,,,,,,,,,,,,,,,,,,,,,,,,,,,,,,,,,,,,,,,,,,,,,,,,,,,,,False,True,False,0.28,0.28,4.0,-7.92,0.325,-7.595,-3.635,gamble,lose,-7.595,134.54708333333335,532.495621205213,None,532.495621205213,None,532.495621205213,None,532.495621205213,None,532.495621205213,None,532.495621205213,None,532.495621205213,None,1,532.495621205213,None,534.7798699272826,None,534.7798699272826,None,534.7798699272826,None,534.7798699272826,None,534.7798699272826,None,534.7798699272826,None,534.7798699272826,None,538.7646666186665,None,538.7646666186665,None,538.7646666186665,None,538.7646666186665,None,538.7646666186665,None,538.7646666186665,None,538.7646666186665,None,539.7650902749447,None,2.250984984839306,,,,,,,,,,,,,,,,,,,,,,,,,,,,,,24208,2019_Oct_01_1445,Mmi_3levels,3.1.5,59.97714279081539,
,,,2,0,1.5,,,,,,,,,0,1,1,1,0,6,6,8,,,,,,,,,,,,,,,,,,,,,,,,,,,,,,,,,,,,,,,,,,,,,,,,,,,,,,,,,,,,,False,False,False,0.28,0.28,4.28,1.336666666666667,0.375,-0.9616666666666669,-0.29333333333333345,gamble,win,0.375,134.92208333333335,541.7825014599184,None,541.7825014599184,None,541.7825014599184,None,541.7825014599184,None,541.7825014599184,None,541.7825014599184,None,541.7825014599184,None,None,541.7825014599184,None,544.7836137176309,None,544.7836137176309,None,544.7836137176309,None,544.7836137176309,None,544.7836137176309,None,544.7836137176309,None,544.7836137176309,None,548.7684580863461,None,548.7684580863461,None,548.7684580863461,None,548.7684580863461,None,548.7684580863461,None,548.7684580863461,None,548.7684580863461,None,558.2720721239602,None,,549.7688561440555,None,550.7692510019442,None,0.27,7.502345308661461,553.7703622997105,None,None,553.7703622997105,None,,,,,,,,,,,,,,,,,,,24208,2019_Oct_01_1445,Mmi_3levels,3.1.5,59.97714279081539,
,,,2,0,5.1,,,,,,,,,0,1,1,1,0,7,7,20,,,,,,,,,,,,,,,,,,,,,,,,,,,,,,,,,,,,,,,,,,,,,,,,,,,,,,,,,,,,,False,True,True,0.27,0.27,4.550000000000001,-8.330000000000002,1.275,-7.0550000000000015,-2.8900000000000006,gamble,lose,-7.0550000000000015,127.86708333333334,560.289545385458,None,560.289545385458,None,560.289545385458,None,560.289545385458,None,560.289545385458,None,560.289545385458,None,560.289545385458,None,None,560.289545385458,None,563.2906826017716,None,563.2906826017716,None,563.2906826017716,None,563.2906826017716,None,563.2906826017716,None,563.2906826017716,None,563.2906826017716,None,567.2755071315987,None,567.2755071315987,None,567.2755071315987,None,567.2755071315987,None,567.2755071315987,None,567.2755071315987,None,567.2755071315987,None,568.2759176686086,None,,,,,,,,,,,,,,,,,,,,,,,,,,,,,,,24208,2019_Oct_01_1445,Mmi_3levels,3.1.5,59.97714279081539,
,,,2,0,2.9,,,,,,,,,0,1,1,1,0,8,8,6,,,,,,,,,,,,,,,,,,,,,,,,,,,,,,,,,,,,,,,,,,,,,,,,,,,,,,,,,,,,,False,True,True,0.27,0.27,4.82,-8.600000000000001,0.725,-7.875000000000002,-3.575000000000001,certain,certain,-3.575000000000001,124.29208333333334,570.2933426128111,None,570.2933426128111,None,570.2933426128111,None,570.2933426128111,None,570.2933426128111,None,570.2933426128111,None,570.2933426128111,None,3,570.2933426128111,None,571.9439301799102,None,571.9439301799102,None,571.9439301799102,None,571.9439301799102,None,571.9439301799102,None,571.9439301799102,None,571.9439301799102,None,575.9287687889482,None,575.9287687889482,None,575.9287687889482,None,575.9287687889482,None,575.9287687889482,None,575.9287687889482,None,575.9287687889482,None,585.432378986774,None,1.6175074995771865,576.9291524474611,None,577.9295268264977,None,0.17,7.502802243074257,580.930714599981,None,None,580.930714599981,None,,,,,,,,,,,,,,,,,,,24208,2019_Oct_01_1445,Mmi_3levels,3.1.5,59.97714279081539,
,,,2,0,-1.1,,,,,,,,,0,1,1,1,0,9,9,21,,,,,,,,,,,,,,,,,,,,,,,,,,,,,,,,,,,,,,,,,,,,,,,,,,,,,,,,,,,,,False,True,False,0.17,0.17,4.99,-7.370000000000001,-0.275,-7.645000000000001,-3.960000000000001,gamble,lose,-7.645000000000001,116.64708333333334,587.471156335243,None,587.471156335243,None,587.471156335243,None,587.471156335243,None,587.471156335243,None,587.471156335243,None,587.471156335243,None,None,587.471156335243,None,590.4676352524257,None,590.4676352524257,None,590.4676352524257,None,590.4676352524257,None,590.4676352524257,None,590.4676352524257,None,590.4676352524257,None,594.4691385282422,None,594.4691385282422,None,594.4691385282422,None,594.4691385282422,None,594.4691385282422,None,594.4691385282422,None,594.4691385282422,None,595.4528460006222,None,,,,,,,,,,,,,,,,,,,,,,,,,,,,,,,24208,2019_Oct_01_1445,Mmi_3levels,3.1.5,59.97714279081539,
,,,2,0,9.7,,,,,,,,,0,1,1,1,0,10,10,12,,,,,,,,,,,,,,,,,,,,,,,,,,,,,,,,,,,,,,,,,,,,,,,,,,,,,,,,,,,,,False,False,True,0.17,0.17,5.16,1.0250000000000001,2.425,1.3999999999999997,1.9124999999999996,gamble,win,2.425,119.07208333333334,597.4702802243082,None,597.4702802243082,None,597.4702802243082,None,597.4702802243082,None,597.4702802243082,None,597.4702802243082,None,597.4702802243082,None,1,597.4702802243082,None,599.287633492524,None,599.287633492524,None,599.287633492524,None,599.287633492524,None,599.287633492524,None,599.287633492524,None,599.287633492524,None,603.2724951402706,None,603.2724951402706,None,603.2724951402706,None,603.2724951402706,None,603.2724951402706,None,603.2724951402706,None,603.2724951402706,None,604.2728621597198,None,1.7842933595711656,,,,,,,,,,,,,,,,,,,,,,,,,,,,,,24208,2019_Oct_01_1445,Mmi_3levels,3.1.5,59.97714279081539,
,,,2,0,9.3,,,,,,,,,0,1,1,1,0,11,11,23,,,,,,,,,,,,,,,,,,,,,,,,,,,,,,,,,,,,,,,,,,,,,,,,,,,,,,,,,,,,,False,True,False,0.17,0.17,5.33,-7.710000000000001,2.325,-5.385000000000001,-1.5300000000000002,gamble,lose,-5.385000000000001,113.68708333333333,606.2903274216624,None,606.2903274216624,None,606.2903274216624,None,606.2903274216624,None,606.2903274216624,None,606.2903274216624,None,606.2903274216624,None,1,606.2903274216624,None,608.4078043629561,None,608.4078043629561,None,608.4078043629561,None,608.4078043629561,None,608.4078043629561,None,608.4078043629561,None,608.4078043629561,None,612.3926116137482,None,612.3926116137482,None,612.3926116137482,None,612.3926116137482,None,612.3926116137482,None,612.3926116137482,None,612.3926116137482,None,621.8962413304835,None,2.084395273865084,613.3929914324799,None,614.3933699712798,None,0.0,7.502812162518239,617.394574383834,None,None,617.394574383834,None,,,,,,,,,,,,,,,,,,,24208,2019_Oct_01_1445,Mmi_3levels,3.1.5,59.97714279081539,
,,,2,0,4.7,,,,,,,,,0,1,1,1,0,12,12,16,,,,,,,,,,,,,,,,,,,,,,,,,,,,,,,,,,,,,,,,,,,,,,,,,,,,,,,,,,,,,False,True,True,0.0,0.0,5.33,-5.33,1.175,-4.155,-1.4900000000000002,certain,certain,-1.4900000000000002,112.19708333333334,623.9136397161747,None,623.9136397161747,None,623.9136397161747,None,623.9136397161747,None,623.9136397161747,None,623.9136397161747,None,623.9136397161747,None,3,623.9136397161747,None,625.6476616509462,None,625.6476616509462,None,625.6476616509462,None,625.6476616509462,None,625.6476616509462,None,625.6476616509462,None,625.6476616509462,None,629.6491345284667,None,629.6491345284667,None,629.6491345284667,None,629.6491345284667,None,629.6491345284667,None,629.6491345284667,None,629.6491345284667,None,630.6328647195733,None,1.7009207484406943,,,,,,,,,,,,,,,,,,,,,,,,,,,,,,24208,2019_Oct_01_1445,Mmi_3levels,3.1.5,59.97714279081539,
,,,2,0,6.7,,,,,,,,,0,1,1,1,0,13,13,10,,,,,,,,,,,,,,,,,,,,,,,,,,,,,,,,,,,,,,,,,,,,,,,,,,,,,,,,,,,,,False,True,False,0.0,0.0,5.33,-5.33,1.675,-3.6550000000000002,-0.9900000000000001,gamble,lose,-3.6550000000000002,108.54208333333334,632.6503283816091,None,632.6503283816091,None,632.6503283816091,None,632.6503283816091,None,632.6503283816091,None,632.6503283816091,None,632.6503283816091,None,None,632.6503283816091,None,635.6514335997163,None,635.6514335997163,None,635.6514335997163,None,635.6514335997163,None,635.6514335997163,None,635.6514335997163,None,635.6514335997163,None,639.6363064468387,None,639.6363064468387,None,639.6363064468387,None,639.6363064468387,None,639.6363064468387,None,639.6363064468387,None,639.6363064468387,None,649.1399377634843,None,,640.6366917052619,None,641.6370673642268,None,0.25,7.502782404182653,644.6382100202391,None,None,644.6382100202391,None,,,,,,,,,,,,,,,,,,,24208,2019_Oct_01_1445,Mmi_3levels,3.1.5,59.97714279081539,
,,,2,0,9.5,,,,,,,,,0,1,1,1,0,14,14,26,,,,,,,,,,,,,,,,,,,,,,,,,,,,,,,,,,,,,,,,,,,,,,,,,,,,,,,,,,,,,False,True,True,0.25,0.25,5.58,-9.08,2.375,-6.705,-2.165,gamble,lose,-6.705,101.83708333333334,651.1786251969897,None,651.1786251969897,None,651.1786251969897,None,651.1786251969897,None,651.1786251969897,None,651.1786251969897,None,651.1786251969897,None,1,651.1786251969897,None,652.6912377706831,None,652.6912377706831,None,652.6912377706831,None,652.6912377706831,None,652.6912377706831,None,652.6912377706831,None,652.6912377706831,None,656.6760786195955,None,656.6760786195955,None,656.6760786195955,None,656.6760786195955,None,656.6760786195955,None,656.6760786195955,None,656.6760786195955,None,657.6764702776636,None,1.4795609845823492,,,,,,,,,,,,,,,,,,,,,,,,,,,,,,24208,2019_Oct_01_1445,Mmi_3levels,3.1.5,59.97714279081539,
,,,2,0,13.9,,,,,,,,,0,1,1,1,0,15,15,2,,,,,,,,,,,,,,,,,,,,,,,,,,,,,,,,,,,,,,,,,,,,,,,,,,,,,,,,,,,,,False,True,True,0.25,0.25,5.83,-9.33,3.475,-5.855,-1.1900000000000002,certain,certain,-1.1900000000000002,100.64708333333334,659.6939332997354,None,659.6939332997354,None,659.6939332997354,None,659.6939332997354,None,659.6939332997354,None,659.6939332997354,None,659.6939332997354,None,3,659.6939332997354,None,661.5446213412033,None,661.5446213412033,None,661.5446213412033,None,661.5446213412033,None,661.5446213412033,None,661.5446213412033,None,661.5446213412033,None,665.5461102178269,None,665.5461102178269,None,665.5461102178269,None,665.5461102178269,None,665.5461102178269,None,665.5461102178269,None,665.5461102178269,None,675.033051589111,None,1.8175836553164118,666.5298541681659,None,667.5301965489925,None,0.39,7.5027814442400995,670.531370243265,None,None,670.531370243265,None,,,,,,,,,,,,,,,,,,,24208,2019_Oct_01_1445,Mmi_3levels,3.1.5,59.97714279081539,
,,,2,0,2.1,,,,,,,,,0,1,1,1,0,16,16,18,,,,,,,,,,,,,,,,,,,,,,,,,,,,,,,,,,,,,,,,,,,,,,,,,,,,,,,,,,,,,False,True,True,0.39,0.39,6.22,-11.68,0.525,-11.155,-5.3149999999999995,gamble,lose,-11.155,89.49208333333334,677.050468853744,None,677.050468853744,None,677.050468853744,None,677.050468853744,None,677.050468853744,None,677.050468853744,None,677.050468853744,None,None,677.050468853744,None,680.0516700664739,None,680.0516700664739,None,680.0516700664739,None,680.0516700664739,None,680.0516700664739,None,680.0516700664739,None,680.0516700664739,None,684.0364670778436,None,684.0364670778436,None,684.0364670778436,None,684.0364670778436,None,684.0364670778436,None,684.0364670778436,None,684.0364670778436,None,685.0369000135979,None,,,,,,,,,,,,,,,,,,,,,,,,,,,,,,,24208,2019_Oct_01_1445,Mmi_3levels,3.1.5,59.97714279081539,
,,,2,0,0.7,,,,,,,,,0,1,1,1,0,17,17,7,,,,,,,,,,,,,,,,,,,,,,,,,,,,,,,,,,,,,,,,,,,,,,,,,,,,,,,,,,,,,False,False,True,0.39,0.39,6.609999999999999,1.9158333333333333,0.175,-1.7408333333333332,-0.7829166666666666,certain,certain,-0.7829166666666666,88.70916666666668,687.0542763205267,None,687.0542763205267,None,687.0542763205267,None,687.0542763205267,None,687.0542763205267,None,687.0542763205267,None,687.0542763205267,None,3,687.0542763205267,None,689.5719001335929,None,689.5719001335929,None,689.5719001335929,None,689.5719001335929,None,689.5719001335929,None,689.5719001335929,None,689.5719001335929,None,693.55674482229,None,693.55674482229,None,693.55674482229,None,693.55674482229,None,693.55674482229,None,693.55674482229,None,693.55674482229,None,694.5571575991744,None,2.484551425117388,,,,,,,,,,,,,,,,,,,,,,,,,,,,,,24208,2019_Oct_01_1445,Mmi_3levels,3.1.5,59.97714279081539,
,,,2,0,9.1,,,,,,,,,0,1,1,1,0,18,18,17,,,,,,,,,,,,,,,,,,,,,,,,,,,,,,,,,,,,,,,,,,,,,,,,,,,,,,,,,,,,,False,True,True,0.39,0.39,6.999999999999999,-12.459999999999999,2.275,-10.184999999999999,-3.954999999999999,gamble,lose,-10.184999999999999,78.52416666666667,696.5746049421214,None,696.5746049421214,None,696.5746049421214,None,696.5746049421214,None,696.5746049421214,None,696.5746049421214,None,696.5746049421214,None,1,696.5746049421214,None,698.9088300655167,None,698.9088300655167,None,698.9088300655167,None,698.9088300655167,None,698.9088300655167,None,698.9088300655167,None,698.9088300655167,None,702.8936597150532,None,702.8936597150532,None,702.8936597150532,None,702.8936597150532,None,702.8936597150532,None,702.8936597150532,None,702.8936597150532,None,712.3972756725598,None,2.3011232970966375,703.8940228947176,None,704.8944273520683,None,0.0,7.502746246209426,707.8955271304803,None,None,707.8955271304803,None,,,,,,,,,,,,,,,,,,,24208,2019_Oct_01_1445,Mmi_3levels,3.1.5,59.97714279081539,
,,,2,0,13.5,,,,,,,,,0,1,1,1,0,19,19,5,,,,,,,,,,,,,,,,,,,,,,,,,,,,,,,,,,,,,,,,,,,,,,,,,,,,,,,,,,,,,False,True,True,0.0,0.0,6.999999999999999,-6.999999999999999,3.375,-3.624999999999999,-0.12499999999999956,gamble,lose,-3.624999999999999,74.89916666666667,714.436059100688,None,714.436059100688,None,714.436059100688,None,714.436059100688,None,714.436059100688,None,714.436059100688,None,714.436059100688,None,1,714.436059100688,None,716.7655779276356,None,716.7655779276356,None,716.7655779276356,None,716.7655779276356,None,716.7655779276356,None,716.7655779276356,None,716.7655779276356,None,720.7671515995098,None,720.7671515995098,None,720.7671515995098,None,720.7671515995098,None,720.7671515995098,None,720.7671515995098,None,720.7671515995098,None,721.7508305934862,None,2.296452518658043,,,,,,,,,,,,,,,,,,,,,,,,,,,,,,24208,2019_Oct_01_1445,Mmi_3levels,3.1.5,59.97714279081539,
,,,2,0,-0.1,,,,,,,,,0,1,1,1,0,20,20,4,,,,,,,,,,,,,,,,,,,,,,,,,,,,,,,,,,,,,,,,,,,,,,,,,,,,,,,,,,,,,False,False,False,0.0,0.0,6.999999999999999,0.5833333333333333,-0.025,-0.6083333333333333,-0.31666666666666665,certain,certain,-0.31666666666666665,74.58250000000001,723.7682078603575,None,723.7682078603575,None,723.7682078603575,None,723.7682078603575,None,723.7682078603575,None,723.7682078603575,None,723.7682078603575,None,3,723.7682078603575,None,726.419263241256,None,726.419263241256,None,726.419263241256,None,726.419263241256,None,726.419263241256,None,726.419263241256,None,726.419263241256,None,730.4207889158206,None,730.4207889158206,None,730.4207889158206,None,730.4207889158206,None,730.4207889158206,None,730.4207889158206,None,730.4207889158206,None,739.9076694905089,None,2.6179618741334707,731.4044384714434,None,732.4048230899061,None,0.2,7.502777924437396,735.4060079835508,None,None,735.4060079835508,None,,,,,,,,,,,,,,,,,,,24208,2019_Oct_01_1445,Mmi_3levels,3.1.5,59.97714279081539,
,,,2,0,-0.5,,,,,,,,,0,1,1,1,0,21,21,13,,,,,,,,,,,,,,,,,,,,,,,,,,,,,,,,,,,,,,,,,,,,,,,,,,,,,,,,,,,,,False,True,True,0.2,0.2,7.199999999999999,-10.0,-0.125,-10.125,-5.125,certain,certain,-5.125,69.45750000000001,741.9251235530792,None,741.9251235530792,None,741.9251235530792,None,741.9251235530792,None,741.9251235530792,None,741.9251235530792,None,741.9251235530792,None,3,741.9251235530792,None,743.092210836192,None,743.092210836192,None,743.092210836192,None,743.092210836192,None,743.092210836192,None,743.092210836192,None,743.092210836192,None,747.0770820834041,None,747.0770820834041,None,747.0770820834041,None,747.0770820834041,None,747.0770820834041,None,747.0770820834041,None,747.0770820834041,None,748.0774769412892,None,1.1338235458824784,,,,,,,,,,,,,,,,,,,,,,,,,,,,,,24208,2019_Oct_01_1445,Mmi_3levels,3.1.5,59.97714279081539,
,,,2,0,5.7,,,,,,,,,0,1,1,1,0,22,22,19,,,,,,,,,,,,,,,,,,,,,,,,,,,,,,,,,,,,,,,,,,,,,,,,,,,,,,,,,,,,,False,False,False,0.2,0.2,7.3999999999999995,1.3166666666666667,1.425,0.10833333333333339,0.7666666666666667,gamble,win,1.425,70.88250000000001,750.0948692473212,None,750.0948692473212,None,750.0948692473212,None,750.0948692473212,None,750.0948692473212,None,750.0948692473212,None,750.0948692473212,None,1,750.0948692473212,None,751.9789813370444,None,751.9789813370444,None,751.9789813370444,None,751.9789813370444,None,751.9789813370444,None,751.9789813370444,None,751.9789813370444,None,755.9804990120538,None,755.9804990120538,None,755.9804990120538,None,755.9804990120538,None,755.9804990120538,None,755.9804990120538,None,755.9804990120538,None,765.48409321078,None,1.8676746102210018,756.9808119545305,None,757.9812448902849,None,0.5,7.502820162069838,760.9823776268531,None,None,760.9823776268531,None,,,,,,,,,,,,,,,,,,,24208,2019_Oct_01_1445,Mmi_3levels,3.1.5,59.97714279081539,
,,,2,0,2.5,,,,,,,,,0,1,1,1,0,23,23,25,,,,,,,,,,,,,,,,,,,,,,,,,,,,,,,,,,,,,,,,,,,,,,,,,,,,,,,,,,,,,False,True,True,0.5,0.5,7.8999999999999995,-14.899999999999999,0.625,-14.274999999999999,-6.824999999999999,certain,certain,-6.824999999999999,64.0575,767.5015191149287,None,767.5015191149287,None,767.5015191149287,None,767.5015191149287,None,767.5015191149287,None,767.5015191149287,None,767.5015191149287,None,3,767.5015191149287,None,768.7686292767612,None,768.7686292767612,None,768.7686292767612,None,768.7686292767612,None,768.7686292767612,None,768.7686292767612,None,768.7686292767612,None,772.7701408721114,None,772.7701408721114,None,772.7701408721114,None,772.7701408721114,None,772.7701408721114,None,772.7701408721114,None,772.7701408721114,None,773.753846424599,None,1.2340483332955046,,,,,,,,,,,,,,,,,,,,,,,,,,,,,,24208,2019_Oct_01_1445,Mmi_3levels,3.1.5,59.97714279081539,
,,,2,0,-0.3,,,,,,,,,0,1,1,1,0,24,24,0,,,,,,,,,,,,,,,,,,,,,,,,,,,,,,,,,,,,,,,,,,,,,,,,,,,,,,,,,,,,,False,True,False,0.5,0.5,8.399999999999999,-15.399999999999999,-0.075,-15.474999999999998,-7.774999999999999,gamble,lose,-15.474999999999998,48.58250000000001,775.7712761685325,None,775.7712761685325,None,775.7712761685325,None,775.7712761685325,None,775.7712761685325,None,775.7712761685325,None,775.7712761685325,None,None,775.7712761685325,None,778.7724421832354,None,778.7724421832354,None,778.7724421832354,None,778.7724421832354,None,778.7724421832354,None,778.7724421832354,None,778.7724421832354,None,782.7739332997335,None,782.7739332997335,None,782.7739332997335,None,782.7739332997335,None,782.7739332997335,None,782.7739332997335,None,782.7739332997335,None,783.7576910093012,None,,,,,,,,,,,,,,,,,,,,,,,,,,,,,,,24208,2019_Oct_01_1445,Mmi_3levels,3.1.5,59.97714279081539,
,,,2,0,6.3,,,,,,,,,0,1,1,1,0,25,25,3,,,,,,,,,,,,,,,,,,,,,,,,,,,,,,,,,,,,,,,,,,,,,,,,,,,,,,,,,,,,,False,True,True,0.5,0.5,8.899999999999999,-15.899999999999999,1.575,-14.325,-6.375,gamble,lose,-14.325,34.25750000000001,785.7751175534177,None,785.7751175534177,None,785.7751175534177,None,785.7751175534177,None,785.7751175534177,None,785.7751175534177,None,785.7751175534177,None,1,785.7751175534177,None,788.0593006791605,None,788.0593006791605,None,788.0593006791605,None,788.0593006791605,None,788.0593006791605,None,788.0593006791605,None,788.0593006791605,None,792.0607943555151,None,792.0607943555151,None,792.0607943555151,None,792.0607943555151,None,792.0607943555151,None,792.0607943555151,None,792.0607943555151,None,801.5477734846827,None,2.2510966585869028,793.0445104674145,None,794.0448838865013,None,0.0,7.502814722378389,797.0460882990556,None,None,797.0460882990556,None,,,,,,,,,,,,,,,,,,,24208,2019_Oct_01_1445,Mmi_3levels,3.1.5,59.97714279081539,
,,,2,0,1.9,,,,,,,,,0,1,1,1,0,26,26,9,,,,,,,,,,,,,,,,,,,,,,,,,,,,,,,,,,,,,,,,,,,,,,,,,,,,,,,,,,,,,False,True,False,0.0,0.0,8.899999999999999,-8.899999999999999,0.475,-8.424999999999999,-3.9749999999999996,gamble,lose,-8.424999999999999,25.83250000000001,803.5651613109658,None,803.5651613109658,None,803.5651613109658,None,803.5651613109658,None,803.5651613109658,None,803.5651613109658,None,803.5651613109658,None,1,803.5651613109658,None,805.1657660770979,None,805.1657660770979,None,805.1657660770979,None,805.1657660770979,None,805.1657660770979,None,805.1657660770979,None,805.1657660770979,None,809.1673317494206,None,809.1673317494206,None,809.1673317494206,None,809.1673317494206,None,809.1673317494206,None,809.1673317494206,None,809.1673317494206,None,810.1509886646345,None,1.5676811698540405,,,,,,,,,,,,,,,,,,,,,,,,,,,,,,24208,2019_Oct_01_1445,Mmi_3levels,3.1.5,59.97714279081539,
,,,3,1,1.1,,,,,,,,,0,2,2,2,0,0,0,21,,,,,,,,,,,,,,,,,,,,,,,,,,,,,,,,,,,,,,,,,,,,,,,,,821.271905093312,None,0.34,6.8517516619067464,824.273062148517,None,4,3.834975961344753,824.273062148517,None,828.1244992680404,None,True,True,True,0.34,-0.6599999999999999,-0.6599999999999999,9.899999999999999,1.1,-8.799999999999999,-3.8499999999999996,certain,certain,-3.8499999999999996,21.98250000000001,831.1590150951524,None,831.1590150951524,None,831.1590150951524,None,831.1590150951524,None,831.1590150951524,None,831.1590150951524,None,831.1590150951524,None,3,831.1590150951524,None,832.9430095914613,None,832.9430095914613,None,832.9430095914613,None,832.9430095914613,None,832.9430095914613,None,832.9430095914613,None,832.9430095914613,None,836.9278865983506,None,836.9278865983506,None,836.9278865983506,None,836.9278865983506,None,836.9278865983506,None,836.9278865983506,None,836.9278865983506,None,846.4314692777189,None,1.750896829777048,837.9282462582087,None,838.9285835193223,None,0.41,7.502812482500303,841.929763613236,None,None,841.929763613236,None,812.1517729407133,None,4,9.103674834212143,812.1517729407133,None,,,,,,,,,,,,,24208,2019_Oct_01_1445,Mmi_3levels,3.1.5,59.97714279081539,
,,,3,1,-0.9,,,,,,,,,0,2,2,2,0,1,1,20,,,,,,,,,,,,,,,,,,,,,,,,,,,,,,,,,,,,,,,,,,,,,,,,,,,,,,,,,,,,,True,True,True,0.41,-0.5900000000000001,-1.25,9.510000000000002,-0.9,-10.410000000000002,-5.655000000000001,certain,certain,-5.655000000000001,16.327500000000008,848.4488641436074,None,848.4488641436074,None,848.4488641436074,None,848.4488641436074,None,848.4488641436074,None,848.4488641436074,None,848.4488641436074,None,3,848.4488641436074,None,850.9331605430089,None,850.9331605430089,None,850.9331605430089,None,850.9331605430089,None,850.9331605430089,None,850.9331605430089,None,850.9331605430089,None,854.9346529394352,None,854.9346529394352,None,854.9346529394352,None,854.9346529394352,None,854.9346529394352,None,854.9346529394352,None,854.9346529394352,None,855.9183943299176,None,2.4510083435343404,,,,,,,,,,,,,,,,,,,,,,,,,,,,,,24208,2019_Oct_01_1445,Mmi_3levels,3.1.5,59.97714279081539,
,,,3,1,13.3,,,,,,,,,0,2,2,2,0,2,2,17,,,,,,,,,,,,,,,,,,,,,,,,,,,,,,,,,,,,,,,,,,,,,,,,,,,,,,,,,,,,,True,True,False,0.41,-0.5900000000000001,-1.84,10.100000000000001,13.3,3.1999999999999993,1.5999999999999996,gamble,win,13.3,29.62750000000001,857.9357939955335,None,857.9357939955335,None,857.9357939955335,None,857.9357939955335,None,857.9357939955335,None,857.9357939955335,None,857.9357939955335,None,1,857.9357939955335,None,859.0862300511144,None,859.0862300511144,None,859.0862300511144,None,859.0862300511144,None,859.0862300511144,None,859.0862300511144,None,859.0862300511144,None,863.087822281952,None,863.087822281952,None,863.087822281952,None,863.087822281952,None,863.087822281952,None,863.087822281952,None,863.087822281952,None,864.0715569528111,None,1.1173828665596375,,,,,,,,,,,,,,,,,,,,,,,,,,,,,,24208,2019_Oct_01_1445,Mmi_3levels,3.1.5,59.97714279081539,
,,,3,1,13.9,,,,,,,,,0,2,2,2,0,3,3,14,,,,,,,,,,,,,,,,,,,,,,,,,,,,,,,,,,,,,,,,,,,,,,,,,,,,,,,,,,,,,True,False,False,0.41,-0.5900000000000001,-2.43,-2.2675000000000005,13.9,11.6325,5.81625,gamble,lose,11.6325,41.260000000000005,866.1102338269047,None,866.1102338269047,None,866.1102338269047,None,866.1102338269047,None,866.1102338269047,None,866.1102338269047,None,866.1102338269047,None,1,866.1102338269047,None,867.005946227011,None,867.005946227011,None,867.005946227011,None,867.005946227011,None,867.005946227011,None,867.005946227011,None,867.005946227011,None,871.0074437431504,None,871.0074437431504,None,871.0074437431504,None,871.0074437431504,None,871.0074437431504,None,871.0074437431504,None,871.0074437431504,None,880.4943531162244,None,0.8626499316051195,871.9911281768218,None,872.9915060756575,None,0.43,7.502803203020449,875.9927104882117,None,None,875.9927104882117,None,,,,,,,,,,,,,,,,,,,24208,2019_Oct_01_1445,Mmi_3levels,3.1.5,59.97714279081539,
,,,3,1,3.5,,,,,,,,,0,2,2,2,0,4,4,22,,,,,,,,,,,,,,,,,,,,,,,,,,,,,,,,,,,,,,,,,,,,,,,,,,,,,,,,,,,,,True,True,False,0.43,-0.5700000000000001,-3.0,10.98,3.5,-7.48,-1.9900000000000002,gamble,win,3.5,44.760000000000005,882.5118884542462,None,882.5118884542462,None,882.5118884542462,None,882.5118884542462,None,882.5118884542462,None,882.5118884542462,None,882.5118884542462,None,1,882.5118884542462,None,884.1957771964771,None,884.1957771964771,None,884.1957771964771,None,884.1957771964771,None,884.1957771964771,None,884.1957771964771,None,884.1957771964771,None,888.1972795123474,None,888.1972795123474,None,888.1972795123474,None,888.1972795123474,None,888.1972795123474,None,888.1972795123474,None,888.1972795123474,None,889.1810337021125,None,1.650780196308915,,,,,,,,,,,,,,,,,,,,,,,,,,,,,,24208,2019_Oct_01_1445,Mmi_3levels,3.1.5,59.97714279081539,
,,,3,1,5.1,,,,,,,,,0,2,2,2,0,5,5,5,,,,,,,,,,,,,,,,,,,,,,,,,,,,,,,,,,,,,,,,,,,,,,,,,,,,,,,,,,,,,True,True,False,0.43,-0.5700000000000001,-3.5700000000000003,11.55,5.1,-6.450000000000001,-0.6750000000000007,certain,certain,-0.6750000000000007,44.08500000000001,891.1984116089479,None,891.1984116089479,None,891.1984116089479,None,891.1984116089479,None,891.1984116089479,None,891.1984116089479,None,891.1984116089479,None,3,891.1984116089479,None,893.2825332981338,None,893.2825332981338,None,893.2825332981338,None,893.2825332981338,None,893.2825332981338,None,893.2825332981338,None,893.2825332981338,None,897.2673914260777,None,897.2673914260777,None,897.2673914260777,None,897.2673914260777,None,897.2673914260777,None,897.2673914260777,None,897.2673914260777,None,906.7709894645886,None,2.051084179289319,898.2677677250067,None,899.2681533034156,None,0.49,7.502784324078675,902.269331797419,None,None,902.269331797419,None,,,,,,,,,,,,,,,,,,,24208,2019_Oct_01_1445,Mmi_3levels,3.1.5,59.97714279081539,
,,,3,1,12.1,,,,,,,,,0,2,2,2,0,6,6,24,,,,,,,,,,,,,,,,,,,,,,,,,,,,,,,,,,,,,,,,,,,,,,,,,,,,,,,,,,,,,True,True,False,0.49,-0.51,-4.08,11.22,12.1,0.879999999999999,0.4399999999999995,gamble,win,12.1,56.18500000000001,908.7884582463375,None,908.7884582463375,None,908.7884582463375,None,908.7884582463375,None,908.7884582463375,None,908.7884582463375,None,908.7884582463375,None,1,908.7884582463375,None,909.9221857975936,None,909.9221857975936,None,909.9221857975936,None,909.9221857975936,None,909.9221857975936,None,909.9221857975936,None,909.9221857975936,None,913.9237521098803,None,913.9237521098803,None,913.9237521098803,None,913.9237521098803,None,913.9237521098803,None,913.9237521098803,None,913.9237521098803,None,914.9241354484147,None,1.117144159929012,,,,,,,,,,,,,,,,,,,,,,,,,,,,,,24208,2019_Oct_01_1445,Mmi_3levels,3.1.5,59.97714279081539,
,,,3,1,10.7,,,,,,,,,0,2,2,2,0,7,7,13,,,,,,,,,,,,,,,,,,,,,,,,,,,,,,,,,,,,,,,,,,,,,,,,,,,,,,,,,,,,,True,False,False,0.49,-0.51,-4.59,-2.1675,10.7,8.532499999999999,4.266249999999999,gamble,lose,8.532499999999999,64.7175,916.9415162350888,None,916.9415162350888,None,916.9415162350888,None,916.9415162350888,None,916.9415162350888,None,916.9415162350888,None,916.9415162350888,None,1,916.9415162350888,None,919.05904085371,None,919.05904085371,None,919.05904085371,None,919.05904085371,None,919.05904085371,None,919.05904085371,None,919.05904085371,None,923.0605575687769,None,923.0605575687769,None,923.0605575687769,None,923.0605575687769,None,923.0605575687769,None,923.0605575687769,None,923.0605575687769,None,932.5474880606671,None,2.084412552900176,924.0442615213542,None,925.0445917428624,None,0.51,7.50282112201603,928.0457657571169,None,None,928.0457657571169,None,,,,,,,,,,,,,,,,,,,24208,2019_Oct_01_1445,Mmi_3levels,3.1.5,59.97714279081539,
,,,3,1,6.7,,,,,,,,,0,2,2,2,0,8,8,6,,,,,,,,,,,,,,,,,,,,,,,,,,,,,,,,,,,,,,,,,,,,,,,,,,,,,,,,,,,,,True,True,True,0.51,-0.49,-5.08,11.94,6.7,-5.239999999999999,0.7300000000000004,certain,certain,0.7300000000000004,65.4475,934.5649190845288,None,934.5649190845288,None,934.5649190845288,None,934.5649190845288,None,934.5649190845288,None,934.5649190845288,None,934.5649190845288,None,3,934.5649190845288,None,936.6323261897342,None,936.6323261897342,None,936.6323261897342,None,936.6323261897342,None,936.6323261897342,None,936.6323261897342,None,936.6323261897342,None,940.6338989016622,None,940.6338989016622,None,940.6338989016622,None,940.6338989016622,None,940.6338989016622,None,940.6338989016622,None,940.6338989016622,None,941.6175558168725,None,2.034372795122181,,,,,,,,,,,,,,,,,,,,,,,,,,,,,,24208,2019_Oct_01_1445,Mmi_3levels,3.1.5,59.97714279081539,
,,,3,1,8.7,,,,,,,,,0,2,2,2,0,9,9,0,,,,,,,,,,,,,,,,,,,,,,,,,,,,,,,,,,,,,,,,,,,,,,,,,,,,,,,,,,,,,True,True,True,0.51,-0.49,-5.57,12.43,8.7,-3.7300000000000004,-1.8650000000000002,certain,certain,-1.8650000000000002,63.5825,943.6349782012185,None,943.6349782012185,None,943.6349782012185,None,943.6349782012185,None,943.6349782012185,None,943.6349782012185,None,943.6349782012185,None,3,943.6349782012185,None,945.7024611421766,None,945.7024611421766,None,945.7024611421766,None,945.7024611421766,None,945.7024611421766,None,945.7024611421766,None,945.7024611421766,None,949.7039484188863,None,949.7039484188863,None,949.7039484188863,None,949.7039484188863,None,949.7039484188863,None,949.7039484188863,None,949.7039484188863,None,950.687722767525,None,2.0343897541715705,,,,,,,,,,,,,,,,,,,,,,,,,,,,,,24208,2019_Oct_01_1445,Mmi_3levels,3.1.5,59.97714279081539,
,,,3,1,8.5,,,,,,,,,0,2,2,2,0,10,10,23,,,,,,,,,,,,,,,,,,,,,,,,,,,,,,,,,,,,,,,,,,,,,,,,,,,,,,,,,,,,,True,True,True,0.51,-0.49,-6.0600000000000005,12.92,8.5,-4.42,-2.21,gamble,win,8.5,72.08250000000001,952.705078275616,None,952.705078275616,None,952.705078275616,None,952.705078275616,None,952.705078275616,None,952.705078275616,None,952.705078275616,None,1,952.705078275616,None,954.7558690313344,None,954.7558690313344,None,954.7558690313344,None,954.7558690313344,None,954.7558690313344,None,954.7558690313344,None,954.7558690313344,None,958.7574939003389,None,958.7574939003389,None,958.7574939003389,None,958.7574939003389,None,958.7574939003389,None,958.7574939003389,None,958.7574939003389,None,968.2443629556728,None,2.017748766069417,959.7410957786342,None,960.7414698376888,None,0.5,7.502854080172256,963.7426259329477,None,None,963.7426259329477,None,,,,,,,,,,,,,,,,,,,24208,2019_Oct_01_1445,Mmi_3levels,3.1.5,59.97714279081539,
,,,3,1,5.9,,,,,,,,,0,2,2,2,0,11,11,7,,,,,,,,,,,,,,,,,,,,,,,,,,,,,,,,,,,,,,,,,,,,,,,,,,,,,,,,,,,,,True,False,False,0.5,-0.5,-6.5600000000000005,-2.296666666666667,5.9,3.6033333333333335,1.8016666666666667,gamble,lose,3.6033333333333335,75.68583333333335,970.2617501419918,None,970.2617501419918,None,970.2617501419918,None,970.2617501419918,None,970.2617501419918,None,970.2617501419918,None,970.2617501419918,None,1,970.2617501419918,None,971.1787957474371,None,971.1787957474371,None,971.1787957474371,None,971.1787957474371,None,971.1787957474371,None,971.1787957474371,None,971.1787957474371,None,975.1802868639352,None,975.1802868639352,None,975.1802868639352,None,975.1802868639352,None,975.1802868639352,None,975.1802868639352,None,975.1802868639352,None,976.1640413736823,None,0.8839229803124908,,,,,,,,,,,,,,,,,,,,,,,,,,,,,,24208,2019_Oct_01_1445,Mmi_3levels,3.1.5,59.97714279081539,
,,,3,1,7.9,,,,,,,,,0,2,2,2,0,12,12,4,,,,,,,,,,,,,,,,,,,,,,,,,,,,,,,,,,,,,,,,,,,,,,,,,,,,,,,,,,,,,True,False,False,0.5,-0.5,-7.0600000000000005,-2.3383333333333334,7.9,5.561666666666667,2.7808333333333337,gamble,lose,5.561666666666667,81.24750000000002,978.181437519499,None,978.181437519499,None,978.181437519499,None,978.181437519499,None,978.181437519499,None,978.181437519499,None,978.181437519499,None,1,978.181437519499,None,979.1531501435893,None,979.1531501435893,None,979.1531501435893,None,979.1531501435893,None,979.1531501435893,None,979.1531501435893,None,979.1531501435893,None,983.1999948802841,None,983.1999948802841,None,983.1999948802841,None,983.1999948802841,None,983.1999948802841,None,983.1999948802841,None,983.1999948802841,None,992.6869263321241,None,0.9384136888329522,984.183698512883,None,985.1841253689781,None,0.63,7.502701768698898,988.1852219475695,None,None,988.1852219475695,None,,,,,,,,,,,,,,,,,,,24208,2019_Oct_01_1445,Mmi_3levels,3.1.5,59.97714279081539,
,,,3,1,-1.1,,,,,,,,,0,2,2,2,0,13,13,8,,,,,,,,,,,,,,,,,,,,,,,,,,,,,,,,,,,,,,,,,,,,,,,,,,,,,,,,,,,,,True,True,False,0.63,-0.37,-7.430000000000001,12.61,-1.1,-13.709999999999999,-7.404999999999999,gamble,win,-1.1,80.14750000000002,994.7044091930838,None,994.7044091930838,None,994.7044091930838,None,994.7044091930838,None,994.7044091930838,None,994.7044091930838,None,994.7044091930838,None,1,994.7044091930838,None,996.52174390234,None,996.52174390234,None,996.52174390234,None,996.52174390234,None,996.52174390234,None,996.52174390234,None,996.52174390234,None,1000.5232107002012,None,1000.5232107002012,None,1000.5232107002012,None,1000.5232107002012,None,1000.5232107002012,None,1000.5232107002012,None,1000.5232107002012,None,1001.5069431311822,None,1.7841311286574637,,,,,,,,,,,,,,,,,,,,,,,,,,,,,,24208,2019_Oct_01_1445,Mmi_3levels,3.1.5,59.97714279081539,
,,,3,1,12.3,,,,,,,,,0,2,2,2,0,14,14,25,,,,,,,,,,,,,,,,,,,,,,,,,,,,,,,,,,,,,,,,,,,,,,,,,,,,,,,,,,,,,True,True,False,0.63,-0.37,-7.800000000000001,12.98,12.3,-0.6799999999999997,-0.33999999999999986,gamble,win,12.3,92.44750000000002,1003.5244157527159,None,1003.5244157527159,None,1003.5244157527159,None,1003.5244157527159,None,1003.5244157527159,None,1003.5244157527159,None,1003.5244157527159,None,1,1003.5244157527159,None,1004.7915735918796,None,1004.7915735918796,None,1004.7915735918796,None,1004.7915735918796,None,1004.7915735918796,None,1004.7915735918796,None,1004.7915735918796,None,1008.7930419896475,None,1008.7930419896475,None,1008.7930419896475,None,1008.7930419896475,None,1008.7930419896475,None,1008.7930419896475,None,1008.7930419896475,None,1009.7767472221531,None,1.2340828913584119,,,,,,,,,,,,,,,,,,,,,,,,,,,,,,24208,2019_Oct_01_1445,Mmi_3levels,3.1.5,59.97714279081539,
,,,3,1,4.1,,,,,,,,,0,2,2,2,0,15,15,1,,,,,,,,,,,,,,,,,,,,,,,,,,,,,,,,,,,,,,,,,,,,,,,,,,,,,,,,,,,,,True,True,False,0.63,-0.37,-8.17,13.35,4.1,-9.25,-2.575,certain,certain,-2.575,89.87250000000002,1011.7941731263054,None,1011.7941731263054,None,1011.7941731263054,None,1011.7941731263054,None,1011.7941731263054,None,1011.7941731263054,None,1011.7941731263054,None,3,1011.7941731263054,None,1014.2784560864566,None,1014.2784560864566,None,1014.2784560864566,None,1014.2784560864566,None,1014.2784560864566,None,1014.2784560864566,None,1014.2784560864566,None,1018.2633010951395,None,1018.2633010951395,None,1018.2633010951395,None,1018.2633010951395,None,1018.2633010951395,None,1018.2633010951395,None,1018.2633010951395,None,1027.766957050404,None,2.4510217827810266,1019.2636812338496,None,1020.2640578527607,None,0.6,7.502857279992895,1023.2652005087693,None,None,1023.2652005087693,None,,,,,,,,,,,,,,,,,,,24208,2019_Oct_01_1445,Mmi_3levels,3.1.5,59.97714279081539,
,,,3,1,4.9,,,,,,,,,0,2,2,2,0,16,16,15,,,,,,,,,,,,,,,,,,,,,,,,,,,,,,,,,,,,,,,,,,,,,,,,,,,,,,,,,,,,,True,True,True,0.6,-0.4,-8.57,14.170000000000002,4.9,-9.270000000000001,-2.1850000000000005,gamble,win,4.9,94.77250000000002,1029.7843823145886,None,1029.7843823145886,None,1029.7843823145886,None,1029.7843823145886,None,1029.7843823145886,None,1029.7843823145886,None,1029.7843823145886,None,None,1029.7843823145886,None,1032.7854801731082,None,1032.7854801731082,None,1032.7854801731082,None,1032.7854801731082,None,1032.7854801731082,None,1032.7854801731082,None,1032.7854801731082,None,1036.7869975281392,None,1036.7869975281392,None,1036.7869975281392,None,1036.7869975281392,None,1036.7869975281392,None,1036.7869975281392,None,1036.7869975281392,None,1037.7707018006986,None,,,,,,,,,,,,,,,,,,,,,,,,,,,,,,,24208,2019_Oct_01_1445,Mmi_3levels,3.1.5,59.97714279081539,
,,,3,1,13.1,,,,,,,,,0,2,2,2,0,17,17,9,,,,,,,,,,,,,,,,,,,,,,,,,,,,,,,,,,,,,,,,,,,,,,,,,,,,,,,,,,,,,True,True,True,0.6,-0.4,-8.97,14.57,13.1,-1.4700000000000006,-0.7350000000000003,gamble,win,13.1,107.87250000000002,1039.7881405041298,None,1039.7881405041298,None,1039.7881405041298,None,1039.7881405041298,None,1039.7881405041298,None,1039.7881405041298,None,1039.7881405041298,None,1,1039.7881405041298,None,1041.3720473253488,None,1041.3720473253488,None,1041.3720473253488,None,1041.3720473253488,None,1041.3720473253488,None,1041.3720473253488,None,1041.3720473253488,None,1045.3736235570796,None,1045.3736235570796,None,1045.3736235570796,None,1045.3736235570796,None,1045.3736235570796,None,1045.3736235570796,None,1045.3736235570796,None,1054.8605217307813,None,1.550856192054198,1046.3573239898542,None,1047.3576977289267,None,0.8,7.502753925782599,1050.3588589438987,None,None,1050.3588589438987,None,,,,,,,,,,,,,,,,,,,24208,2019_Oct_01_1445,Mmi_3levels,3.1.5,59.97714279081539,
,,,3,1,6.3,,,,,,,,,0,2,2,2,0,18,18,2,,,,,,,,,,,,,,,,,,,,,,,,,,,,,,,,,,,,,,,,,,,,,,,,,,,,,,,,,,,,,True,False,False,0.8,-0.19999999999999996,-9.17,-1.4641666666666664,6.3,4.835833333333333,2.4179166666666667,gamble,lose,4.835833333333333,112.70833333333334,1056.8779546745354,None,1056.8779546745354,None,1056.8779546745354,None,1056.8779546745354,None,1056.8779546745354,None,1056.8779546745354,None,1056.8779546745354,None,1,1056.8779546745354,None,1057.7782972153545,None,1057.7782972153545,None,1057.7782972153545,None,1057.7782972153545,None,1057.7782972153545,None,1057.7782972153545,None,1057.7782972153545,None,1061.7631979009166,None,1061.7631979009166,None,1061.7631979009166,None,1061.7631979009166,None,1061.7631979009166,None,1061.7631979009166,None,1061.7631979009166,None,1062.7635678002007,None,0.8671095218669507,,,,,,,,,,,,,,,,,,,,,,,,,,,,,,24208,2019_Oct_01_1445,Mmi_3levels,3.1.5,59.97714279081539,
,,,3,1,8.1,,,,,,,,,0,2,2,2,0,19,19,26,,,,,,,,,,,,,,,,,,,,,,,,,,,,,,,,,,,,,,,,,,,,,,,,,,,,,,,,,,,,,True,True,False,0.8,-0.19999999999999996,-9.37,12.169999999999998,8.1,-4.0699999999999985,-2.0349999999999993,gamble,win,8.1,120.80833333333334,1064.7809508267528,None,1064.7809508267528,None,1064.7809508267528,None,1064.7809508267528,None,1064.7809508267528,None,1064.7809508267528,None,1064.7809508267528,None,1,1064.7809508267528,None,1067.0985084035274,None,1067.0985084035274,None,1067.0985084035274,None,1067.0985084035274,None,1067.0985084035274,None,1067.0985084035274,None,1067.0985084035274,None,1071.083340292942,None,1071.083340292942,None,1071.083340292942,None,1071.083340292942,None,1071.083340292942,None,1071.083340292942,None,1071.083340292942,None,1080.586990168551,None,2.284495428255468,1072.0837220315661,None,1073.0841069700073,None,0.69,7.502756165657047,1076.085242586414,None,None,1076.085242586414,None,,,,,,,,,,,,,,,,,,,24208,2019_Oct_01_1445,Mmi_3levels,3.1.5,59.97714279081539,
,,,3,1,6.9,,,,,,,,,0,2,2,2,0,20,20,10,,,,,,,,,,,,,,,,,,,,,,,,,,,,,,,,,,,,,,,,,,,,,,,,,,,,,,,,,,,,,True,True,False,0.69,-0.31000000000000005,-9.68,14.02,6.9,-7.119999999999999,-0.10999999999999943,certain,certain,-0.10999999999999943,120.69833333333334,1082.6044256721616,None,1082.6044256721616,None,1082.6044256721616,None,1082.6044256721616,None,1082.6044256721616,None,1082.6044256721616,None,1082.6044256721616,None,3,1082.6044256721616,None,1084.6551626708897,None,1084.6551626708897,None,1084.6551626708897,None,1084.6551626708897,None,1084.6551626708897,None,1084.6551626708897,None,1084.6551626708897,None,1088.640002559856,None,1088.640002559856,None,1088.640002559856,None,1088.640002559856,None,1088.640002559856,None,1088.640002559856,None,1088.640002559856,None,1089.6404079771528,None,2.0177503659797367,,,,,,,,,,,,,,,,,,,,,,,,,,,,,,24208,2019_Oct_01_1445,Mmi_3levels,3.1.5,59.97714279081539,
,,,3,1,0.5,,,,,,,,,0,2,2,2,0,21,21,18,,,,,,,,,,,,,,,,,,,,,,,,,,,,,,,,,,,,,,,,,,,,,,,,,,,,,,,,,,,,,True,True,True,0.69,-0.31000000000000005,-9.99,14.330000000000002,0.5,-13.830000000000002,-6.665000000000001,gamble,win,0.5,121.19833333333334,1091.6578140424135,None,1091.6578140424135,None,1091.6578140424135,None,1091.6578140424135,None,1091.6578140424135,None,1091.6578140424135,None,1091.6578140424135,None,1,1091.6578140424135,None,1094.0921225211387,None,1094.0921225211387,None,1094.0921225211387,None,1094.0921225211387,None,1094.0921225211387,None,1094.0921225211387,None,1094.0921225211387,None,1098.0935989184582,None,1098.0935989184582,None,1098.0935989184582,None,1098.0935989184582,None,1098.0935989184582,None,1098.0935989184582,None,1098.0935989184582,None,1099.0773009511468,None,2.4011666546684864,,,,,,,,,,,,,,,,,,,,,,,,,,,,,,24208,2019_Oct_01_1445,Mmi_3levels,3.1.5,59.97714279081539,
,,,3,1,9.7,,,,,,,,,0,2,2,2,0,22,22,19,,,,,,,,,,,,,,,,,,,,,,,,,,,,,,,,,,,,,,,,,,,,,,,,,,,,,,,,,,,,,True,True,False,0.69,-0.31000000000000005,-10.3,14.64,9.7,-4.940000000000001,-2.4700000000000006,gamble,win,9.7,130.89833333333334,1101.094821889972,None,1101.094821889972,None,1101.094821889972,None,1101.094821889972,None,1101.094821889972,None,1101.094821889972,None,1101.094821889972,None,1,1101.094821889972,None,1103.0455196908952,None,1103.0455196908952,None,1103.0455196908952,None,1103.0455196908952,None,1103.0455196908952,None,1103.0455196908952,None,1103.0455196908952,None,1107.0470351260337,None,1107.0470351260337,None,1107.0470351260337,None,1107.0470351260337,None,1107.0470351260337,None,1107.0470351260337,None,1107.0470351260337,None,1116.5339585783186,None,1.9175540569740406,1108.0306958810288,None,1109.0311259369482,None,0.84,7.502746886177192,1112.0322458742303,None,None,1112.0322458742303,None,,,,,,,,,,,,,,,,,,,24208,2019_Oct_01_1445,Mmi_3levels,3.1.5,59.97714279081539,
,,,3,1,1.9,,,,,,,,,0,2,2,2,0,23,23,3,,,,,,,,,,,,,,,,,,,,,,,,,,,,,,,,,,,,,,,,,,,,,,,,,,,,,,,,,,,,,True,True,True,0.84,-0.16000000000000003,-10.46,12.700000000000001,1.9,-10.8,-4.45,gamble,win,1.9,132.79833333333335,1118.5513521642788,None,1118.5513521642788,None,1118.5513521642788,None,1118.5513521642788,None,1118.5513521642788,None,1118.5513521642788,None,1118.5513521642788,None,1,1118.5513521642788,None,1120.8022337949078,None,1120.8022337949078,None,1120.8022337949078,None,1120.8022337949078,None,1120.8022337949078,None,1120.8022337949078,None,1120.8022337949078,None,1124.8037421904373,None,1124.8037421904373,None,1124.8037421904373,None,1124.8037421904373,None,1124.8037421904373,None,1124.8037421904373,None,1124.8037421904373,None,1125.7874410233017,None,2.217798043307994,,,,,,,,,,,,,,,,,,,,,,,,,,,,,,24208,2019_Oct_01_1445,Mmi_3levels,3.1.5,59.97714279081539,
,,,3,1,2.5,,,,,,,,,0,2,2,2,0,24,24,11,,,,,,,,,,,,,,,,,,,,,,,,,,,,,,,,,,,,,,,,,,,,,,,,,,,,,,,,,,,,,True,False,False,0.84,-0.16000000000000003,-10.620000000000001,-1.4450000000000003,2.5,1.0549999999999997,1.7774999999999999,gamble,lose,1.0549999999999997,133.85333333333335,1127.8049078851582,None,1127.8049078851582,None,1127.8049078851582,None,1127.8049078851582,None,1127.8049078851582,None,1127.8049078851582,None,1127.8049078851582,None,1,1127.8049078851582,None,1128.6552100282388,None,1128.6552100282388,None,1128.6552100282388,None,1128.6552100282388,None,1128.6552100282388,None,1128.6552100282388,None,1128.6552100282388,None,1132.6400115193537,None,1132.6400115193537,None,1132.6400115193537,None,1132.6400115193537,None,1132.6400115193537,None,1132.6400115193537,None,1132.6400115193537,None,1142.1436895533843,None,0.8172246354188246,1133.6404639740176,None,1134.640854992118,None,0.79,7.502753285814833,1137.6419381314627,None,None,1137.6419381314627,None,,,,,,,,,,,,,,,,,,,24208,2019_Oct_01_1445,Mmi_3levels,3.1.5,59.97714279081539,
,,,3,1,-1.3,,,,,,,,,0,2,2,2,0,25,25,12,,,,,,,,,,,,,,,,,,,,,,,,,,,,,,,,,,,,,,,,,,,,,,,,,,,,,,,,,,,,,True,True,False,0.79,-0.20999999999999996,-10.830000000000002,13.770000000000001,-1.3,-15.070000000000002,-8.185,gamble,win,-1.3,132.55333333333334,1144.1611285767976,None,1144.1611285767976,None,1144.1611285767976,None,1144.1611285767976,None,1144.1611285767976,None,1144.1611285767976,None,1144.1611285767976,None,1,1144.1611285767976,None,1145.9117387026308,None,1145.9117387026308,None,1145.9117387026308,None,1145.9117387026308,None,1145.9117387026308,None,1145.9117387026308,None,1145.9117387026308,None,1149.9132829361552,None,1149.9132829361552,None,1149.9132829361552,None,1149.9132829361552,None,1149.9132829361552,None,1149.9132829361552,None,1149.9132829361552,None,1150.8969654499342,None,1.7175649363634875,,,,,,,,,,,,,,,,,,,,,,,,,,,,,,24208,2019_Oct_01_1445,Mmi_3levels,3.1.5,59.97714279081539,
,,,3,1,13.5,,,,,,,,,0,2,2,2,0,26,26,16,,,,,,,,,,,,,,,,,,,,,,,,,,,,,,,,,,,,,,,,,,,,,,,,,,,,,,,,,,,,,True,True,True,0.79,-0.20999999999999996,-11.040000000000003,13.980000000000002,13.5,-0.4800000000000022,-0.2400000000000011,gamble,win,13.5,146.05333333333334,1152.9143987136704,None,1152.9143987136704,None,1152.9143987136704,None,1152.9143987136704,None,1152.9143987136704,None,1152.9143987136704,None,1152.9143987136704,None,1,1152.9143987136704,None,1154.665087875077,None,1154.665087875077,None,1154.665087875077,None,1154.665087875077,None,1154.665087875077,None,1154.665087875077,None,1154.665087875077,None,1158.666578031629,None,1158.666578031629,None,1158.666578031629,None,1158.666578031629,None,1158.666578031629,None,1158.666578031629,None,1158.666578031629,None,1168.1535168430564,None,1.7175892550039862,1159.6503351012325,None,1160.6506675626151,None,0.9,7.502788483845507,1163.6518262177306,None,None,1163.6518262177306,None,,,,,,,,,,,,,,,,,,,24208,2019_Oct_01_1445,Mmi_3levels,3.1.5,59.97714279081539,
,,,,,,,,,,,,,,,,,,,,,,,,,,,,,,0,0,0,0,,,,,,,,,,,,,,,,,,,,,,,,,,,,,,,,,,,,,,,,,,,,,,,,,,,,,,,,,,,,,,,,,,,,,,,,,,,,,,,,,,,,,,,,,,,,,,,,,,,,,,,,,,,,,,,,,,,,,,,,,,1170.1542742406418,None,4,4.26863551641145,1170.1542742406418,None,146.05333333333334,4,1174.4559338277031,None,1174.4559338277031,None,1174.4559338277031,None,4,9.036993128382164,1174.4559338277031,None,24208,2019_Oct_01_1445,Mmi_3levels,3.1.5,59.97714279081539,
