currSlide,currImage,currText,blockNum,targetHappiness,highAmount,instructionLoop1.thisRepN,instructionLoop1.thisTrialN,instructionLoop1.thisN,instructionLoop1.thisIndex,instructionLoop2.thisRepN,instructionLoop2.thisTrialN,instructionLoop2.thisN,instructionLoop2.thisIndex,blockLoop.thisRepN,blockLoop.thisTrialN,blockLoop.thisN,blockLoop.thisIndex,trialLoop.thisRepN,trialLoop.thisTrialN,trialLoop.thisN,trialLoop.thisIndex,doRatingLoop.thisRepN,doRatingLoop.thisTrialN,doRatingLoop.thisN,doRatingLoop.thisIndex,trialHappyLoop.thisRepN,trialHappyLoop.thisTrialN,trialHappyLoop.thisN,trialHappyLoop.thisIndex,logWinningsLoop.thisRepN,logWinningsLoop.thisTrialN,logWinningsLoop.thisN,logWinningsLoop.thisIndex,instrImage.started,instrImage.stopped,instrText.started,instrText.stopped,instrContinueText.started,instrContinueText.stopped,instrKeyResp.keys,instrKeyResp.rt,instrKeyResp.started,instrKeyResp.stopped,lifeHappyText.started,lifeHappyText.stopped,lifeHappySlider.response,lifeHappySlider.rt,lifeHappySlider.started,lifeHappySlider.stopped,lifeHappyResp.keys,lifeHappyResp.started,lifeHappyResp.stopped,instrImage_2.started,instrImage_2.stopped,instrText_2.started,instrText_2.stopped,instrContinueText_2.started,instrContinueText_2.stopped,instrKeyResp_2.keys,instrKeyResp_2.rt,instrKeyResp_2.started,instrKeyResp_2.stopped,localizing.started,localizing.stopped,start_exp.keys,start_exp.rt,start_exp.started,start_exp.stopped,blockHappyText.started,blockHappyText.stopped,blockHappySlider.response,blockHappySlider.rt,blockHappySlider.started,blockHappySlider.stopped,blockHappyResp.keys,blockHappyResp.started,blockHappyResp.stopped,blankText.started,blankText.stopped,isHappyBlock,isCongruent,isWinOnTop,lastHappyRating,diff,sumDiff,RPE,winAmount,loseAmount,certainAmount,choice,outcome,outcomeAmount,currentWinnings,fixCross.started,fixCross.stopped,certainBox.started,certainBox.stopped,outcome1Box.started,outcome1Box.stopped,outcome2Box.started,outcome2Box.stopped,certainText.started,certainText.stopped,outcome1Text.started,outcome1Text.stopped,outcome2Text.started,outcome2Text.stopped,choiceKey.keys,choiceKey.rt,choiceKey.started,choiceKey.stopped,fixCross_2.started,fixCross_2.stopped,certainBox_2.started,certainBox_2.stopped,outcome1Box_2.started,outcome1Box_2.stopped,outcome2Box_2.started,outcome2Box_2.stopped,certainText_2.started,certainText_2.stopped,outcome1Text_2.started,outcome1Text_2.stopped,outcome2Text_2.started,outcome2Text_2.stopped,fixCross_3.started,fixCross_3.stopped,certainBox_3.started,certainBox_3.stopped,outcome1Box_3.started,outcome1Box_3.stopped,outcome2Box_3.started,outcome2Box_3.stopped,certainText_3.started,certainText_3.stopped,outcome1Text_3.started,outcome1Text_3.stopped,outcome2Text_3.started,outcome2Text_3.stopped,fixCross_ITI.started,fixCross_ITI.stopped,fixCross_ISI.started,fixCross_ISI.stopped,happyText.started,happyText.stopped,happySlider.response,happySlider.rt,happySlider.started,happySlider.stopped,happyResp.keys,happyResp.started,happyResp.stopped,endOfBlockText.started,endOfBlockText.stopped,restKeyResp.keys,restKeyResp.rt,restKeyResp.started,restKeyResp.stopped,finalWinnings,cashBonus,goodbyeText.started,goodbyeText.stopped,finalWinningsText.started,finalWinningsText.stopped,spaceToContinue.started,spaceToContinue.stopped,goodbyeKeyResp_2.keys,goodbyeKeyResp_2.rt,goodbyeKeyResp_2.started,goodbyeKeyResp_2.stopped,participant,date,expName,psychopyVersion,frameRate,
1,black.png,"Welcome! You are about to play our gambling task.
This task has 3 blocks and takes about 15 minutes.",,,,0,0,0,0,,,,,,,,,,,,,,,,,,,,,,,,,15.580603656242602,None,15.580603656242602,None,15.580603656242602,None,4,8.95487425266765,15.580603656242602,None,,,,,,,,,,,,,,,,,,,,,,,,,,,,,,,,,,,,,,,,,,,,,,,,,,,,,,,,,,,,,,,,,,,,,,,,,,,,,,,,,,,,,,,,,,,,,,,,,,,,,,,,,,,,,,,,,,,,,,,,,,,,,,,,24286,2020_Feb_25_1243,Mmi_3levels,3.1.5,59.97769899057798,
2,black.png,"In this game, you may win or lose points. Your goal is to get as many points as possible. These points will be converted to a cash bonus at the end.
Sometimes we will ask you to rate your mood.",,,,0,1,1,1,,,,,,,,,,,,,,,,,,,,,,,,,24.58522582554724,None,24.58522582554724,None,24.58522582554724,None,4,5.085455574095249,24.58522582554724,None,,,,,,,,,,,,,,,,,,,,,,,,,,,,,,,,,,,,,,,,,,,,,,,,,,,,,,,,,,,,,,,,,,,,,,,,,,,,,,,,,,,,,,,,,,,,,,,,,,,,,,,,,,,,,,,,,,,,,,,,,,,,,,,,24286,2020_Feb_25_1243,Mmi_3levels,3.1.5,59.97769899057798,
3,black.png,"On the next screen, please rate how you feel about your life these days. Use the LEFT (green) and RIGHT (blue) buttons to move the slider (you can press and hold them to slide gradually) and the TOP (red) button to lock in your response.
Make your rating as accurately and quickly as you can!",,,,0,2,2,2,,,,,,,,,,,,,,,,,,,,,,,,,29.7205425905413,None,29.7205425905413,None,29.7205425905413,None,4,11.221249755180907,29.7205425905413,None,,,,,,,,,,,,,,,,,,,,,,,,,,,,,,,,,,,,,,,,,,,,,,,,,,,,,,,,,,,,,,,,,,,,,,,,,,,,,,,,,,,,,,,,,,,,,,,,,,,,,,,,,,,,,,,,,,,,,,,,,,,,,,,,24286,2020_Feb_25_1243,Mmi_3levels,3.1.5,59.97769899057798,
,,,,,,,,,,,,,,,,,,,,,,,,,,,,,,,,,,,,,,,,,,,,40.95820656634169,None,0.19,10.519460148527287,44.959676252969075,None,None,44.959676252969075,None,,,,,,,,,,,,,,,,,,,,,,,,,,,,,,,,,,,,,,,,,,,,,,,,,,,,,,,,,,,,,,,,,,,,,,,,,,,,,,,,,,,,,,,,,,,,,,,,,,,,,,,,,,,,,,,,,,,,,,,24286,2020_Feb_25_1243,Mmi_3levels,3.1.5,59.97769899057798,
4,black.png,"In this game you can win money by earning points according to your choices. You will decide whether to gamble a number of points or stick with a guaranteed number of points. 
Make your choice by pressing the left or right arrow key once. An example of one trial is shown on the next screen.",,,,,,,,0,0,0,0,,,,,,,,,,,,,,,,,,,,,,,,,,,,,,,,,,,,,,,,51.51228642667411,None,51.51228642667411,None,51.51228642667411,None,4,4.4185691850143485,51.51228642667411,None,,,,,,,,,,,,,,,,,,,,,,,,,,,,,,,,,,,,,,,,,,,,,,,,,,,,,,,,,,,,,,,,,,,,,,,,,,,,,,,,,,,,,,,,,,,,,,,,,,,,,,,,,,,,,24286,2020_Feb_25_1243,Mmi_3levels,3.1.5,59.97769899057798,
5,example_start.png,"The GAMBLING OPTION will be shown on the RIGHT SIDE. 
Select this option using the RIGHT (blue) button on your keypad.",,,,,,,,0,1,1,1,,,,,,,,,,,,,,,,,,,,,,,,,,,,,,,,,,,,,,,,55.99731501401402,None,55.99731501401402,None,55.99731501401402,None,4,11.888027029694058,55.99731501401402,None,,,,,,,,,,,,,,,,,,,,,,,,,,,,,,,,,,,,,,,,,,,,,,,,,,,,,,,,,,,,,,,,,,,,,,,,,,,,,,,,,,,,,,,,,,,,,,,,,,,,,,,,,,,,,24286,2020_Feb_25_1243,Mmi_3levels,3.1.5,59.97769899057798,
6,example_gamble.png,"Once you select the gambling choice, the choice you made will remain on the screen.",,,,,,,,0,2,2,2,,,,,,,,,,,,,,,,,,,,,,,,,,,,,,,,,,,,,,,,67.9185634253081,None,67.9185634253081,None,67.9185634253081,None,4,1.9676067371037789,67.9185634253081,None,,,,,,,,,,,,,,,,,,,,,,,,,,,,,,,,,,,,,,,,,,,,,,,,,,,,,,,,,,,,,,,,,,,,,,,,,,,,,,,,,,,,,,,,,,,,,,,,,,,,,,,,,,,,,24286,2020_Feb_25_1243,Mmi_3levels,3.1.5,59.97769899057798,
7,example_win.png,"The outcome you received will then be shown on the screen. In this example , you WON 10 points.",,,,,,,,0,3,3,3,,,,,,,,,,,,,,,,,,,,,,,,,,,,,,,,,,,,,,,,69.91924851114163,None,69.91924851114163,None,69.91924851114163,None,4,1.550895699299872,69.91924851114163,None,,,,,,,,,,,,,,,,,,,,,,,,,,,,,,,,,,,,,,,,,,,,,,,,,,,,,,,,,,,,,,,,,,,,,,,,,,,,,,,,,,,,,,,,,,,,,,,,,,,,,,,,,,,,,24286,2020_Feb_25_1243,Mmi_3levels,3.1.5,59.97769899057798,
8,example_start.png,"The GUARANTEED OPTION will be shown on the LEFT SIDE. You are 100% guaranteed to gain or lose this amount. In this example, you have a 100% chance of winning 1 point. Select this option using the LEFT (green) button on your keyboard.",,,,,,,,0,4,4,4,,,,,,,,,,,,,,,,,,,,,,,,,,,,,,,,,,,,,,,,71.53662729158532,None,71.53662729158532,None,71.53662729158532,None,4,3.8518118775682524,71.53662729158532,None,,,,,,,,,,,,,,,,,,,,,,,,,,,,,,,,,,,,,,,,,,,,,,,,,,,,,,,,,,,,,,,,,,,,,,,,,,,,,,,,,,,,,,,,,,,,,,,,,,,,,,,,,,,,,24286,2020_Feb_25_1243,Mmi_3levels,3.1.5,59.97769899057798,
9,example_certain.png,"Once you select the guaranteed choice, your selection will remain on the screen.",,,,,,,,0,5,5,5,,,,,,,,,,,,,,,,,,,,,,,,,,,,,,,,,,,,,,,,75.42137096513761,None,75.42137096513761,None,75.42137096513761,None,4,3.1514295606175438,75.42137096513761,None,,,,,,,,,,,,,,,,,,,,,,,,,,,,,,,,,,,,,,,,,,,,,,,,,,,,,,,,,,,,,,,,,,,,,,,,,,,,,,,,,,,,,,,,,,,,,,,,,,,,,,,,,,,,,24286,2020_Feb_25_1243,Mmi_3levels,3.1.5,59.97769899057798,
10,black.png,"Please make your choices as fast as possible.
You will be given a break at the end of each block.
Let's play!",,,,,,,,0,6,6,6,,,,,,,,,,,,,,,,,,,,,,,,,,,,,,,,,,,,,,,,78.60598286933964,None,78.60598286933964,None,78.60598286933964,None,4,5.619079495547339,78.60598286933964,None,,,,,,,,,,,,,,,,,,,,,,,,,,,,,,,,,,,,,,,,,,,,,,,,,,,,,,,,,,,,,,,,,,,,,,,,,,,,,,,,,,,,,,,,,,,,,,,,,,,,,,,,,,,,,24286,2020_Feb_25_1243,Mmi_3levels,3.1.5,59.97769899057798,
,,,,,,,,,,,,,,,,,,,,,,,,,,,,,,,,,,,,,,,,,,,,,,,,,,,,,,,,,,,,,,,84.24153226270573,None,space,144.85593743156642,84.24153226270573,None,,,,,,,,,,,,,,,,,,,,,,,,,,,,,,,,,,,,,,,,,,,,,,,,,,,,,,,,,,,,,,,,,,,,,,,,,,,,,,,,,,,,,,,,,,,,,,,,,,,,,,,24286,2020_Feb_25_1243,Mmi_3levels,3.1.5,59.97769899057798,
,,,1,1,8.7,,,,,,,,,0,0,0,0,0,0,0,15,,,,,,,,,,,,,,,,,,,,,,,,,,,,,,,,,,,,,,,,,,,,,,,,229.11390439391835,None,0.27,7.495997319812886,232.13171566475648,None,None,232.13171566475648,None,236.6167983293999,None,True,True,True,0.27,-0.73,-0.73,10.95,8.7,-2.25,-1.125,gamble,win,8.7,8.7,239.65123693028,None,239.65123693028,None,239.65123693028,None,239.65123693028,None,239.65123693028,None,239.65123693028,None,239.65123693028,None,1,2.76804197934689,239.65123693028,None,242.45240429596743,None,242.45240429596743,None,242.45240429596743,None,242.45240429596743,None,242.45240429596743,None,242.45240429596743,None,242.45240429596743,None,246.43722969351802,None,246.43722969351802,None,246.43722969351802,None,246.43722969351802,None,246.43722969351802,None,246.43722969351802,None,246.43722969351802,None,247.43762871355284,None,,,,,,,,,,,,,,,,,,,,,,,,,,,,,,24286,2020_Feb_25_1243,Mmi_3levels,3.1.5,59.97769899057798,
,,,1,1,1.7,,,,,,,,,0,0,0,0,0,1,1,9,,,,,,,,,,,,,,,,,,,,,,,,,,,,,,,,,,,,,,,,,,,,,,,,,,,,,,,,,,,True,True,True,0.27,-0.73,-1.46,11.68,1.7,-9.98,-4.140000000000001,gamble,win,1.7,10.399999999999999,249.45500256627565,None,249.45500256627565,None,249.45500256627565,None,249.45500256627565,None,249.45500256627565,None,249.45500256627565,None,249.45500256627565,None,None,,249.45500256627565,None,252.45621434575878,None,252.45621434575878,None,252.45621434575878,None,252.45621434575878,None,252.45621434575878,None,252.45621434575878,None,252.45621434575878,None,256.45779570681043,None,256.45779570681043,None,256.45779570681043,None,256.45779570681043,None,256.45779570681043,None,256.45779570681043,None,256.45779570681043,None,257.4414163645124,None,,,,,,,,,,,,,,,,,,,,,,,,,,,,,,24286,2020_Feb_25_1243,Mmi_3levels,3.1.5,59.97769899057798,
,,,1,1,5.7,,,,,,,,,0,0,0,0,0,2,2,14,,,,,,,,,,,,,,,,,,,,,,,,,,,,,,,,,,,,,,,,,,,,,,,,,,,,,,,,,,,True,True,True,0.27,-0.73,-2.19,12.409999999999998,5.7,-6.709999999999998,-0.504999999999999,gamble,win,5.7,16.099999999999998,259.458911811118,None,259.458911811118,None,259.458911811118,None,259.458911811118,None,259.458911811118,None,259.458911811118,None,259.458911811118,None,None,,259.458911811118,None,262.46008103276836,None,262.46008103276836,None,262.46008103276836,None,262.46008103276836,None,262.46008103276836,None,262.46008103276836,None,262.46008103276836,None,266.4616083165165,None,266.4616083165165,None,266.4616083165165,None,266.4616083165165,None,266.4616083165165,None,266.4616083165165,None,266.4616083165165,None,275.9652711736853,None,267.44534128857777,None,268.4457230294938,None,0.46,7.519405111321248,271.4468442535144,None,None,271.4468442535144,None,,,,,,,,,,,,,,,,,,,24286,2020_Feb_25_1243,Mmi_3levels,3.1.5,59.97769899057798,
,,,1,1,1.5,,,,,,,,,0,0,0,0,0,3,3,22,,,,,,,,,,,,,,,,,,,,,,,,,,,,,,,,,,,,,,,,,,,,,,,,,,,,,,,,,,,True,True,True,0.46,-0.54,-2.73,10.290000000000001,1.5,-8.790000000000001,-3.6450000000000005,certain,certain,-3.6450000000000005,12.454999999999998,277.9827051833854,None,277.9827051833854,None,277.9827051833854,None,277.9827051833854,None,277.9827051833854,None,277.9827051833854,None,277.9827051833854,None,3,2.1010938333929516,277.9827051833854,None,280.1168066490209,None,280.1168066490209,None,280.1168066490209,None,280.1168066490209,None,280.1168066490209,None,280.1168066490209,None,280.1168066490209,None,284.10166372492677,None,284.10166372492677,None,284.10166372492677,None,284.10166372492677,None,284.10166372492677,None,284.10166372492677,None,284.10166372492677,None,285.10205762530677,None,,,,,,,,,,,,,,,,,,,,,,,,,,,,,,24286,2020_Feb_25_1243,Mmi_3levels,3.1.5,59.97769899057798,
,,,1,1,-0.7,,,,,,,,,0,0,0,0,0,4,4,26,,,,,,,,,,,,,,,,,,,,,,,,,,,,,,,,,,,,,,,,,,,,,,,,,,,,,,,,,,,True,True,False,0.46,-0.54,-3.27,10.83,-0.7,-11.53,-6.114999999999999,gamble,win,-0.7,11.754999999999999,287.1195492321276,None,287.1195492321276,None,287.1195492321276,None,287.1195492321276,None,287.1195492321276,None,287.1195492321276,None,287.1195492321276,None,None,,287.1195492321276,None,290.12070981418947,None,290.12070981418947,None,290.12070981418947,None,290.12070981418947,None,290.12070981418947,None,290.12070981418947,None,290.12070981418947,None,294.1222767759464,None,294.1222767759464,None,294.1222767759464,None,294.1222767759464,None,294.1222767759464,None,294.1222767759464,None,294.1222767759464,None,303.60921150818467,None,295.1059860691894,None,296.1062855742057,None,0.34,7.502786740893498,299.107459275634,None,None,299.107459275634,None,,,,,,,,,,,,,,,,,,,24286,2020_Feb_25_1243,Mmi_3levels,3.1.5,59.97769899057798,
,,,1,1,4.7,,,,,,,,,0,0,0,0,0,5,5,20,,,,,,,,,,,,,,,,,,,,,,,,,,,,,,,,,,,,,,,,,,,,,,,,,,,,,,,,,,,True,True,True,0.34,-0.6599999999999999,-3.9299999999999997,13.169999999999998,4.7,-8.469999999999999,-1.8849999999999993,gamble,win,4.7,16.455,305.6266736764228,None,305.6266736764228,None,305.6266736764228,None,305.6266736764228,None,305.6266736764228,None,305.6266736764228,None,305.6266736764228,None,1,2.167747466068249,305.6266736764228,None,307.8275218901108,None,307.8275218901108,None,307.8275218901108,None,307.8275218901108,None,307.8275218901108,None,307.8275218901108,None,307.8275218901108,None,311.81238664564444,None,311.81238664564444,None,311.81238664564444,None,311.81238664564444,None,311.81238664564444,None,311.81238664564444,None,311.81238664564444,None,312.8127802259987,None,,,,,,,,,,,,,,,,,,,,,,,,,,,,,,24286,2020_Feb_25_1243,Mmi_3levels,3.1.5,59.97769899057798,
,,,1,1,-0.5,,,,,,,,,0,0,0,0,0,6,6,6,,,,,,,,,,,,,,,,,,,,,,,,,,,,,,,,,,,,,,,,,,,,,,,,,,,,,,,,,,,True,True,True,0.34,-0.6599999999999999,-4.59,13.829999999999998,-0.5,-14.329999999999998,-7.414999999999999,gamble,win,-0.5,15.954999999999998,314.83024495415157,None,314.83024495415157,None,314.83024495415157,None,314.83024495415157,None,314.83024495415157,None,314.83024495415157,None,314.83024495415157,None,1,2.701127879670821,314.83024495415157,None,317.5646678117919,None,317.5646678117919,None,317.5646678117919,None,317.5646678117919,None,317.5646678117919,None,317.5646678117919,None,317.5646678117919,None,321.56616885686526,None,321.56616885686526,None,321.56616885686526,None,321.56616885686526,None,321.56616885686526,None,321.56616885686526,None,321.56616885686526,None,322.54986439074855,None,,,,,,,,,,,,,,,,,,,,,,,,,,,,,,24286,2020_Feb_25_1243,Mmi_3levels,3.1.5,59.97769899057798,
,,,1,1,5.5,,,,,,,,,0,0,0,0,0,7,7,10,,,,,,,,,,,,,,,,,,,,,,,,,,,,,,,,,,,,,,,,,,,,,,,,,,,,,,,,,,,True,True,False,0.34,-0.6599999999999999,-5.25,14.489999999999998,5.5,-8.989999999999998,-1.7449999999999992,gamble,win,5.5,21.455,324.5672929607099,None,324.5672929607099,None,324.5672929607099,None,324.5672929607099,None,324.5672929607099,None,324.5672929607099,None,324.5672929607099,None,None,,324.5672929607099,None,327.5684337037965,None,327.5684337037965,None,327.5684337037965,None,327.5684337037965,None,327.5684337037965,None,327.5684337037965,None,327.5684337037965,None,331.55333269765833,None,331.55333269765833,None,331.55333269765833,None,331.55333269765833,None,331.55333269765833,None,331.55333269765833,None,331.55333269765833,None,341.05697795568267,None,332.5537464369554,None,333.5541080189287,None,0.33,7.5026853059534915,336.55526444118004,None,None,336.55526444118004,None,,,,,,,,,,,,,,,,,,,24286,2020_Feb_25_1243,Mmi_3levels,3.1.5,59.97769899057798,
,,,1,1,-1.3,,,,,,,,,0,0,0,0,0,8,8,19,,,,,,,,,,,,,,,,,,,,,,,,,,,,,,,,,,,,,,,,,,,,,,,,,,,,,,,,,,,True,True,True,0.33,-0.6699999999999999,-5.92,15.299999999999999,-1.3,-16.599999999999998,-8.95,gamble,win,-1.3,20.154999999999998,343.07442508469103,None,343.07442508469103,None,343.07442508469103,None,343.07442508469103,None,343.07442508469103,None,343.07442508469103,None,343.07442508469103,None,None,,343.07442508469103,None,346.0755571881891,None,346.0755571881891,None,346.0755571881891,None,346.0755571881891,None,346.0755571881891,None,346.0755571881891,None,346.0755571881891,None,350.0770918315975,None,350.0770918315975,None,350.0770918315975,None,350.0770918315975,None,350.0770918315975,None,350.0770918315975,None,350.0770918315975,None,351.0608078444493,None,,,,,,,,,,,,,,,,,,,,,,,,,,,,,,24286,2020_Feb_25_1243,Mmi_3levels,3.1.5,59.97769899057798,
,,,1,1,13.5,,,,,,,,,0,0,0,0,0,9,9,5,,,,,,,,,,,,,,,,,,,,,,,,,,,,,,,,,,,,,,,,,,,,,,,,,,,,,,,,,,,True,True,True,0.33,-0.6699999999999999,-6.59,15.969999999999999,13.5,-2.469999999999999,-1.2349999999999994,gamble,win,13.5,33.655,353.07827737240586,None,353.07827737240586,None,353.07827737240586,None,353.07827737240586,None,353.07827737240586,None,353.07827737240586,None,353.07827737240586,None,1,1.5842079563299194,353.07827737240586,None,354.6955396786798,None,354.6955396786798,None,354.6955396786798,None,354.6955396786798,None,354.6955396786798,None,354.6955396786798,None,354.6955396786798,None,358.69709896080894,None,358.69709896080894,None,358.69709896080894,None,358.69709896080894,None,358.69709896080894,None,358.69709896080894,None,358.69709896080894,None,368.18408105068374,None,359.6808520918712,None,360.6812418323825,None,0.5,7.502835378458258,363.6823172987206,None,None,363.6823172987206,None,,,,,,,,,,,,,,,,,,,24286,2020_Feb_25_1243,Mmi_3levels,3.1.5,59.97769899057798,
,,,1,1,11.1,,,,,,,,,0,0,0,0,0,10,10,3,,,,,,,,,,,,,,,,,,,,,,,,,,,,,,,,,,,,,,,,,,,,,,,,,,,,,,,,,,,True,True,False,0.5,-0.5,-7.09,14.09,11.1,-2.99,-1.495,gamble,win,11.1,44.755,370.20152657979634,None,370.20152657979634,None,370.20152657979634,None,370.20152657979634,None,370.20152657979634,None,370.20152657979634,None,370.20152657979634,None,1,1.7842120521818288,370.20152657979634,None,372.018933134852,None,372.018933134852,None,372.018933134852,None,372.018933134852,None,372.018933134852,None,372.018933134852,None,372.018933134852,None,376.0037530926638,None,376.0037530926638,None,376.0037530926638,None,376.0037530926638,None,376.0037530926638,None,376.0037530926638,None,376.0037530926638,None,377.00408683600836,None,,,,,,,,,,,,,,,,,,,,,,,,,,,,,,24286,2020_Feb_25_1243,Mmi_3levels,3.1.5,59.97769899057798,
,,,1,1,7.7,,,,,,,,,0,0,0,0,0,11,11,25,,,,,,,,,,,,,,,,,,,,,,,,,,,,,,,,,,,,,,,,,,,,,,,,,,,,,,,,,,,True,False,False,0.5,-0.5,-7.59,-2.3825,7.7,5.317500000000001,2.6587500000000004,gamble,lose,5.317500000000001,50.072500000000005,379.02153012523195,None,379.02153012523195,None,379.02153012523195,None,379.02153012523195,None,379.02153012523195,None,379.02153012523195,None,379.02153012523195,None,1,2.1011661497759633,379.02153012523195,None,381.1557666241424,None,381.1557666241424,None,381.1557666241424,None,381.1557666241424,None,381.1557666241424,None,381.1557666241424,None,381.1557666241424,None,385.15728046855656,None,385.15728046855656,None,385.15728046855656,None,385.15728046855656,None,385.15728046855656,None,385.15728046855656,None,385.15728046855656,None,394.6442919969559,None,386.14099328161683,None,387.1414022212266,None,0.5,7.5028196992352605,390.14254456415074,None,None,390.14254456415074,None,,,,,,,,,,,,,,,,,,,24286,2020_Feb_25_1243,Mmi_3levels,3.1.5,59.97769899057798,
,,,1,1,3.5,,,,,,,,,0,0,0,0,0,12,12,13,,,,,,,,,,,,,,,,,,,,,,,,,,,,,,,,,,,,,,,,,,,,,,,,,,,,,,,,,,,True,True,False,0.5,-0.5,-8.09,15.09,3.5,-11.59,-4.045,gamble,win,3.5,53.572500000000005,396.66177112440346,None,396.66177112440346,None,396.66177112440346,None,396.66177112440346,None,396.66177112440346,None,396.66177112440346,None,396.66177112440346,None,None,,396.66177112440346,None,399.6628712294623,None,399.6628712294623,None,399.6628712294623,None,399.6628712294623,None,399.6628712294623,None,399.6628712294623,None,399.6628712294623,None,403.66443211154547,None,403.66443211154547,None,403.66443211154547,None,403.66443211154547,None,403.66443211154547,None,403.66443211154547,None,403.66443211154547,None,404.64811644604197,None,,,,,,,,,,,,,,,,,,,,,,,,,,,,,,24286,2020_Feb_25_1243,Mmi_3levels,3.1.5,59.97769899057798,
,,,1,1,9.9,,,,,,,,,0,0,0,0,0,13,13,7,,,,,,,,,,,,,,,,,,,,,,,,,,,,,,,,,,,,,,,,,,,,,,,,,,,,,,,,,,,True,True,True,0.5,-0.5,-8.59,15.59,9.9,-5.6899999999999995,-2.8449999999999998,gamble,win,9.9,63.472500000000004,406.6655024581123,None,406.6655024581123,None,406.6655024581123,None,406.6655024581123,None,406.6655024581123,None,406.6655024581123,None,406.6655024581123,None,1,1.6008804040611722,406.6655024581123,None,408.29953992698574,None,408.29953992698574,None,408.29953992698574,None,408.29953992698574,None,408.29953992698574,None,408.29953992698574,None,408.29953992698574,None,412.3010067337309,None,412.3010067337309,None,412.3010067337309,None,412.3010067337309,None,412.3010067337309,None,412.3010067337309,None,412.3010067337309,None,413.28478034376167,None,,,,,,,,,,,,,,,,,,,,,,,,,,,,,,24286,2020_Feb_25_1243,Mmi_3levels,3.1.5,59.97769899057798,
,,,1,1,7.9,,,,,,,,,0,0,0,0,0,14,14,11,,,,,,,,,,,,,,,,,,,,,,,,,,,,,,,,,,,,,,,,,,,,,,,,,,,,,,,,,,,True,True,True,0.5,-0.5,-9.09,16.09,7.9,-8.19,-0.14499999999999957,gamble,win,7.9,71.3725,415.302254351438,None,415.302254351438,None,415.302254351438,None,415.302254351438,None,415.302254351438,None,415.302254351438,None,415.302254351438,None,1,2.134162582573481,415.302254351438,None,417.46973815065576,None,417.46973815065576,None,417.46973815065576,None,417.46973815065576,None,417.46973815065576,None,417.46973815065576,None,417.46973815065576,None,421.4712875133264,None,421.4712875133264,None,421.4712875133264,None,421.4712875133264,None,421.4712875133264,None,421.4712875133264,None,421.4712875133264,None,430.9582654433907,None,422.45491201081313,None,423.4553814273677,None,0.53,7.5027208241517656,426.4565317699453,None,None,426.4565317699453,None,,,,,,,,,,,,,,,,,,,24286,2020_Feb_25_1243,Mmi_3levels,3.1.5,59.97769899057798,
,,,1,1,12.7,,,,,,,,,0,0,0,0,0,15,15,0,,,,,,,,,,,,,,,,,,,,,,,,,,,,,,,,,,,,,,,,,,,,,,,,,,,,,,,,,,,True,False,True,0.53,-0.47,-9.56,-2.441666666666667,12.7,10.258333333333333,5.129166666666666,gamble,lose,10.258333333333333,81.63083333333333,432.9756226569298,None,432.9756226569298,None,432.9756226569298,None,432.9756226569298,None,432.9756226569298,None,432.9756226569298,None,432.9756226569298,None,1,1.5175968816038221,432.9756226569298,None,434.52623229048913,None,434.52623229048913,None,434.52623229048913,None,434.52623229048913,None,434.52623229048913,None,434.52623229048913,None,434.52623229048913,None,438.5278318906203,None,438.5278318906203,None,438.5278318906203,None,438.5278318906203,None,438.5278318906203,None,438.5278318906203,None,438.5278318906203,None,439.5115315843723,None,,,,,,,,,,,,,,,,,,,,,,,,,,,,,,24286,2020_Feb_25_1243,Mmi_3levels,3.1.5,59.97769899057798,
,,,1,1,10.7,,,,,,,,,0,0,0,0,0,16,16,23,,,,,,,,,,,,,,,,,,,,,,,,,,,,,,,,,,,,,,,,,,,,,,,,,,,,,,,,,,,True,True,True,0.53,-0.47,-10.030000000000001,16.61,10.7,-5.91,-2.955,gamble,win,10.7,92.33083333333333,441.52892495604465,None,441.52892495604465,None,441.52892495604465,None,441.52892495604465,None,441.52892495604465,None,441.52892495604465,None,441.52892495604465,None,1,1.5508729804423638,441.52892495604465,None,443.1129306824878,None,443.1129306824878,None,443.1129306824878,None,443.1129306824878,None,443.1129306824878,None,443.1129306824878,None,443.1129306824878,None,447.11448964464944,None,447.11448964464944,None,447.11448964464944,None,447.11448964464944,None,447.11448964464944,None,447.11448964464944,None,447.11448964464944,None,456.601472694485,None,448.0981170220184,None,449.09858195879497,None,0.56,7.502705464954488,452.0997063826653,None,None,452.0997063826653,None,,,,,,,,,,,,,,,,,,,24286,2020_Feb_25_1243,Mmi_3levels,3.1.5,59.97769899057798,
,,,1,1,5.3,,,,,,,,,0,0,0,0,0,17,17,17,,,,,,,,,,,,,,,,,,,,,,,,,,,,,,,,,,,,,,,,,,,,,,,,,,,,,,,,,,,True,True,True,0.56,-0.43999999999999995,-10.47,16.63,5.3,-11.329999999999998,-3.0149999999999992,gamble,win,5.3,97.63083333333333,458.6189095840091,None,458.6189095840091,None,458.6189095840091,None,458.6189095840091,None,458.6189095840091,None,458.6189095840091,None,458.6189095840091,None,1,1.2505641318275593,458.6189095840091,None,459.90278245310765,None,459.90278245310765,None,459.90278245310765,None,459.90278245310765,None,459.90278245310765,None,459.90278245310765,None,459.90278245310765,None,463.9042530996958,None,463.9042530996958,None,463.9042530996958,None,463.9042530996958,None,463.9042530996958,None,463.9042530996958,None,463.9042530996958,None,464.8879713524948,None,,,,,,,,,,,,,,,,,,,,,,,,,,,,,,24286,2020_Feb_25_1243,Mmi_3levels,3.1.5,59.97769899057798,
,,,1,1,11.9,,,,,,,,,0,0,0,0,0,18,18,18,,,,,,,,,,,,,,,,,,,,,,,,,,,,,,,,,,,,,,,,,,,,,,,,,,,,,,,,,,,True,True,True,0.56,-0.43999999999999995,-10.91,17.07,11.9,-5.17,-2.585,gamble,win,11.9,109.53083333333333,466.90543192083715,None,466.90543192083715,None,466.90543192083715,None,466.90543192083715,None,466.90543192083715,None,466.90543192083715,None,466.90543192083715,None,1,1.1172661460586824,466.90543192083715,None,468.0559408874251,None,468.0559408874251,None,468.0559408874251,None,468.0559408874251,None,468.0559408874251,None,468.0559408874251,None,468.0559408874251,None,472.0574195336085,None,472.0574195336085,None,472.0574195336085,None,472.0574195336085,None,472.0574195336085,None,472.0574195336085,None,472.0574195336085,None,473.04108466906473,None,,,,,,,,,,,,,,,,,,,,,,,,,,,,,,24286,2020_Feb_25_1243,Mmi_3levels,3.1.5,59.97769899057798,
,,,1,1,-1.1,,,,,,,,,0,0,0,0,0,19,19,8,,,,,,,,,,,,,,,,,,,,,,,,,,,,,,,,,,,,,,,,,,,,,,,,,,,,,,,,,,,True,False,False,0.56,-0.43999999999999995,-11.35,-2.485833333333333,-1.1,-3.585833333333333,-2.3429166666666665,gamble,lose,-3.585833333333333,105.94500000000001,475.0584911601036,None,475.0584911601036,None,475.0584911601036,None,475.0584911601036,None,475.0584911601036,None,475.0584911601036,None,475.0584911601036,None,None,,475.0584911601036,None,478.05970101972343,None,478.05970101972343,None,478.05970101972343,None,478.05970101972343,None,478.05970101972343,None,478.05970101972343,None,478.05970101972343,None,482.0611860656063,None,482.0611860656063,None,482.0611860656063,None,482.0611860656063,None,482.0611860656063,None,482.0611860656063,None,482.0611860656063,None,491.5481748750899,None,483.0449811145663,None,484.0452802996151,None,0.53,7.502797300345264,487.04651959775947,None,None,487.04651959775947,None,,,,,,,,,,,,,,,,,,,24286,2020_Feb_25_1243,Mmi_3levels,3.1.5,59.97769899057798,
,,,1,1,3.7,,,,,,,,,0,0,0,0,0,20,20,4,,,,,,,,,,,,,,,,,,,,,,,,,,,,,,,,,,,,,,,,,,,,,,,,,,,,,,,,,,,True,True,False,0.53,-0.47,-11.82,18.4,3.7,-14.7,-5.5,gamble,win,3.7,109.64500000000001,493.56567128171446,None,493.56567128171446,None,493.56567128171446,None,493.56567128171446,None,493.56567128171446,None,493.56567128171446,None,493.56567128171446,None,None,,493.56567128171446,None,496.56683058378985,None,496.56683058378985,None,496.56683058378985,None,496.56683058378985,None,496.56683058378985,None,496.56683058378985,None,496.56683058378985,None,500.5683741867542,None,500.5683741867542,None,500.5683741867542,None,500.5683741867542,None,500.5683741867542,None,500.5683741867542,None,500.5683741867542,None,501.55210139910923,None,,,,,,,,,,,,,,,,,,,,,,,,,,,,,,24286,2020_Feb_25_1243,Mmi_3levels,3.1.5,59.97769899057798,
,,,1,1,12.1,,,,,,,,,0,0,0,0,0,21,21,21,,,,,,,,,,,,,,,,,,,,,,,,,,,,,,,,,,,,,,,,,,,,,,,,,,,,,,,,,,,True,False,True,0.53,-0.47,-12.290000000000001,-2.6691666666666665,12.1,9.430833333333332,4.715416666666666,gamble,lose,9.430833333333332,119.07583333333335,503.5695482081501,None,503.5695482081501,None,503.5695482081501,None,503.5695482081501,None,503.5695482081501,None,503.5695482081501,None,503.5695482081501,None,1,0.7004219949012622,503.5695482081501,None,504.3031410272233,None,504.3031410272233,None,504.3031410272233,None,504.3031410272233,None,504.3031410272233,None,504.3031410272233,None,504.3031410272233,None,508.304684310162,None,508.304684310162,None,508.304684310162,None,508.304684310162,None,508.304684310162,None,508.304684310162,None,508.304684310162,None,517.7916398413363,None,509.2883894435945,None,510.2887785441708,None,0.55,7.502792820567265,513.2899106476689,None,None,513.2899106476689,None,,,,,,,,,,,,,,,,,,,24286,2020_Feb_25_1243,Mmi_3levels,3.1.5,59.97769899057798,
,,,1,1,6.1,,,,,,,,,0,0,0,0,0,22,22,1,,,,,,,,,,,,,,,,,,,,,,,,,,,,,,,,,,,,,,,,,,,,,,,,,,,,,,,,,,,True,True,False,0.55,-0.44999999999999996,-12.74,19.04,6.1,-12.94,-3.42,gamble,win,6.1,125.17583333333334,519.8091362479026,None,519.8091362479026,None,519.8091362479026,None,519.8091362479026,None,519.8091362479026,None,519.8091362479026,None,519.8091362479026,None,1,1.4841236725333147,519.8091362479026,None,521.326359708095,None,521.326359708095,None,521.326359708095,None,521.326359708095,None,521.326359708095,None,521.326359708095,None,521.326359708095,None,525.3279212301713,None,525.3279212301713,None,525.3279212301713,None,525.3279212301713,None,525.3279212301713,None,525.3279212301713,None,525.3279212301713,None,526.3116295634536,None,,,,,,,,,,,,,,,,,,,,,,,,,,,,,,24286,2020_Feb_25_1243,Mmi_3levels,3.1.5,59.97769899057798,
,,,1,1,0.9,,,,,,,,,0,0,0,0,0,23,23,16,,,,,,,,,,,,,,,,,,,,,,,,,,,,,,,,,,,,,,,,,,,,,,,,,,,,,,,,,,,True,False,True,0.55,-0.44999999999999996,-13.19,-2.6741666666666664,0.9,-1.7741666666666664,-0.4370833333333332,gamble,lose,-1.7741666666666664,123.40166666666667,528.3290530137019,None,528.3290530137019,None,528.3290530137019,None,528.3290530137019,None,528.3290530137019,None,528.3290530137019,None,528.3290530137019,None,None,,528.3290530137019,None,531.330187997024,None,531.330187997024,None,531.330187997024,None,531.330187997024,None,531.330187997024,None,531.330187997024,None,531.330187997024,None,535.3316922419472,None,535.3316922419472,None,535.3316922419472,None,535.3316922419472,None,535.3316922419472,None,535.3316922419472,None,535.3316922419472,None,544.8187370486557,None,536.3154495327617,None,537.3158187943045,None,0.54,7.502858097373974,540.3170072149951,None,None,540.3170072149951,None,,,,,,,,,,,,,,,,,,,24286,2020_Feb_25_1243,Mmi_3levels,3.1.5,59.97769899057798,
,,,1,1,8.3,,,,,,,,,0,0,0,0,0,24,24,24,,,,,,,,,,,,,,,,,,,,,,,,,,,,,,,,,,,,,,,,,,,,,,,,,,,,,,,,,,,True,False,False,0.54,-0.45999999999999996,-13.649999999999999,-2.7474999999999996,8.3,5.552500000000001,2.7762500000000006,gamble,lose,5.552500000000001,128.95416666666668,546.8361073815031,None,546.8361073815031,None,546.8361073815031,None,546.8361073815031,None,546.8361073815031,None,546.8361073815031,None,546.8361073815031,None,1,1.3508324064314365,546.8361073815031,None,548.2200373357628,None,548.2200373357628,None,548.2200373357628,None,548.2200373357628,None,548.2200373357628,None,548.2200373357628,None,548.2200373357628,None,552.2049292899319,None,552.2049292899319,None,552.2049292899319,None,552.2049292899319,None,552.2049292899319,None,552.2049292899319,None,552.2049292899319,None,553.2053225503187,None,,,,,,,,,,,,,,,,,,,,,,,,,,,,,,24286,2020_Feb_25_1243,Mmi_3levels,3.1.5,59.97769899057798,
,,,1,1,9.3,,,,,,,,,0,0,0,0,0,25,25,12,,,,,,,,,,,,,,,,,,,,,,,,,,,,,,,,,,,,,,,,,,,,,,,,,,,,,,,,,,,True,False,True,0.54,-0.45999999999999996,-14.11,-2.785833333333333,9.3,6.514166666666668,3.257083333333334,gamble,lose,6.514166666666668,135.46833333333336,555.2227079223958,None,555.2227079223958,None,555.2227079223958,None,555.2227079223958,None,555.2227079223958,None,555.2227079223958,None,555.2227079223958,None,1,1.1507262357627042,555.2227079223958,None,556.4064958677045,None,556.4064958677045,None,556.4064958677045,None,556.4064958677045,None,556.4064958677045,None,556.4064958677045,None,556.4064958677045,None,560.4080849083839,None,560.4080849083839,None,560.4080849083839,None,560.4080849083839,None,560.4080849083839,None,560.4080849083839,None,560.4080849083839,None,561.3917510038009,None,,,,,,,,,,,,,,,,,,,,,,,,,,,,,,24286,2020_Feb_25_1243,Mmi_3levels,3.1.5,59.97769899057798,
,,,1,1,7.5,,,,,,,,,0,0,0,0,0,26,26,2,,,,,,,,,,,,,,,,,,,,,,,,,,,,,,,,,,,,,,,,,,,,,,,,,,,,,,,,,,,True,True,True,0.54,-0.45999999999999996,-14.57,21.009999999999998,7.5,-13.509999999999998,-3.004999999999999,gamble,win,7.5,142.96833333333336,563.409246130439,None,563.409246130439,None,563.409246130439,None,563.409246130439,None,563.409246130439,None,563.409246130439,None,563.409246130439,None,None,,563.409246130439,None,566.4104044726118,None,566.4104044726118,None,566.4104044726118,None,566.4104044726118,None,566.4104044726118,None,566.4104044726118,None,566.4104044726118,None,570.4119099974632,None,570.4119099974632,None,570.4119099974632,None,570.4119099974632,None,570.4119099974632,None,570.4119099974632,None,570.4119099974632,None,579.8988997669076,None,571.3955965717905,None,572.396004231472,None,0.54,7.502915694436524,575.3971753729857,None,None,575.3971753729857,None,,,,,,,,,,,,,,,,,,,24286,2020_Feb_25_1243,Mmi_3levels,3.1.5,59.97769899057798,
,,,2,0,10.3,,,,,,,,,0,1,1,1,0,0,0,8,,,,,,,,,,,,,,,,,,,,,,,,,,,,,,,,,,,,,,,,,,,,,,,,585.651115976274,None,0.51,7.501595440378878,588.6689883641084,None,None,588.6689883641084,None,593.1540035121725,None,False,False,True,0.51,0.51,0.51,1.8275000000000001,2.575,0.7475,1.6612500000000001,gamble,win,2.575,145.54333333333335,596.1884987501544,None,596.1884987501544,None,596.1884987501544,None,596.1884987501544,None,596.1884987501544,None,596.1884987501544,None,596.1884987501544,None,1,1.1340278693241999,596.1884987501544,None,597.3556043282151,None,597.3556043282151,None,597.3556043282151,None,597.3556043282151,None,597.3556043282151,None,597.3556043282151,None,597.3556043282151,None,601.3405452399747,None,601.3405452399747,None,601.3405452399747,None,601.3405452399747,None,601.3405452399747,None,601.3405452399747,None,601.3405452399747,None,602.3408501847298,None,,,,,,,,,,,,581.8996024518274,None,4,3.735116263036616,581.8996024518274,None,,,,,,,,,,,,,24286,2020_Feb_25_1243,Mmi_3levels,3.1.5,59.97769899057798,
,,,2,0,10.9,,,,,,,,,0,1,1,1,0,1,1,1,,,,,,,,,,,,,,,,,,,,,,,,,,,,,,,,,,,,,,,,,,,,,,,,,,,,,,,,,,,False,True,False,0.51,0.51,1.02,-8.16,10.9,2.74,1.37,gamble,lose,2.74,148.28333333333336,604.3583014736068,None,604.3583014736068,None,604.3583014736068,None,604.3583014736068,None,604.3583014736068,None,604.3583014736068,None,604.3583014736068,None,1,1.367475735663902,604.3583014736068,None,605.7588760369108,None,605.7588760369108,None,605.7588760369108,None,605.7588760369108,None,605.7588760369108,None,605.7588760369108,None,605.7588760369108,None,609.7437343928032,None,609.7437343928032,None,609.7437343928032,None,609.7437343928032,None,609.7437343928032,None,609.7437343928032,None,609.7437343928032,None,619.2473175739287,None,610.7440441373037,None,611.7444917949615,None,0.5,7.502734263485763,614.7455711010844,None,None,614.7455711010844,None,,,,,,,,,,,,,,,,,,,24286,2020_Feb_25_1243,Mmi_3levels,3.1.5,59.97769899057798,
,,,2,0,0.5,,,,,,,,,0,1,1,1,0,2,2,6,,,,,,,,,,,,,,,,,,,,,,,,,,,,,,,,,,,,,,,,,,,,,,,,,,,,,,,,,,,False,True,True,0.5,0.5,1.52,-8.52,0.5,-8.02,-3.76,gamble,lose,-8.02,140.26333333333335,621.2648123805411,None,621.2648123805411,None,621.2648123805411,None,621.2648123805411,None,621.2648123805411,None,621.2648123805411,None,621.2648123805411,None,None,,621.2648123805411,None,624.2659979214077,None,624.2659979214077,None,624.2659979214077,None,624.2659979214077,None,624.2659979214077,None,624.2659979214077,None,624.2659979214077,None,628.2675111258286,None,628.2675111258286,None,628.2675111258286,None,628.2675111258286,None,628.2675111258286,None,628.2675111258286,None,628.2675111258286,None,629.2512501775636,None,,,,,,,,,,,,,,,,,,,,,,,,,,,,,,24286,2020_Feb_25_1243,Mmi_3levels,3.1.5,59.97769899057798,
,,,2,0,1.3,,,,,,,,,0,1,1,1,0,3,3,25,,,,,,,,,,,,,,,,,,,,,,,,,,,,,,,,,,,,,,,,,,,,,,,,,,,,,,,,,,,False,True,False,0.5,0.5,2.02,-9.02,1.3,-7.72,-3.21,gamble,lose,-7.72,132.54333333333335,631.268693786813,None,631.268693786813,None,631.268693786813,None,631.268693786813,None,631.268693786813,None,631.268693786813,None,631.268693786813,None,1,2.5511836849036627,631.268693786813,None,633.8529983783374,None,633.8529983783374,None,633.8529983783374,None,633.8529983783374,None,633.8529983783374,None,633.8529983783374,None,633.8529983783374,None,637.8545579804922,None,637.8545579804922,None,637.8545579804922,None,637.8545579804922,None,637.8545579804922,None,637.8545579804922,None,637.8545579804922,None,647.3415503097931,None,638.8382720734808,None,639.8386240559048,None,0.5,7.502742263081018,642.8397967973724,None,None,642.8397967973724,None,,,,,,,,,,,,,,,,,,,24286,2020_Feb_25_1243,Mmi_3levels,3.1.5,59.97769899057798,
,,,2,0,12.1,,,,,,,,,0,1,1,1,0,4,4,2,,,,,,,,,,,,,,,,,,,,,,,,,,,,,,,,,,,,,,,,,,,,,,,,,,,,,,,,,,,False,True,True,0.5,0.5,2.52,-9.52,12.1,2.58,1.29,gamble,lose,2.58,135.12333333333336,649.3589871993754,None,649.3589871993754,None,649.3589871993754,None,649.3589871993754,None,649.3589871993754,None,649.3589871993754,None,649.3589871993754,None,1,1.9674617843120359,649.3589871993754,None,651.359731802193,None,651.359731802193,None,651.359731802193,None,651.359731802193,None,651.359731802193,None,651.359731802193,None,651.359731802193,None,655.3446170366951,None,655.3446170366951,None,655.3446170366951,None,655.3446170366951,None,655.3446170366951,None,655.3446170366951,None,655.3446170366951,None,656.3450099771144,None,,,,,,,,,,,,,,,,,,,,,,,,,,,,,,24286,2020_Feb_25_1243,Mmi_3levels,3.1.5,59.97769899057798,
,,,2,0,-1.5,,,,,,,,,0,1,1,1,0,5,5,13,,,,,,,,,,,,,,,,,,,,,,,,,,,,,,,,,,,,,,,,,,,,,,,,,,,,,,,,,,,False,True,False,0.5,0.5,3.02,-10.02,-1.5,-11.52,-6.51,certain,certain,-6.51,128.61333333333337,658.3624027088517,None,658.3624027088517,None,658.3624027088517,None,658.3624027088517,None,658.3624027088517,None,658.3624027088517,None,658.3624027088517,None,3,2.4178703398793004,658.3624027088517,None,660.8133040398825,None,660.8133040398825,None,660.8133040398825,None,660.8133040398825,None,660.8133040398825,None,660.8133040398825,None,660.8133040398825,None,664.8149685967946,None,664.8149685967946,None,664.8149685967946,None,664.8149685967946,None,664.8149685967946,None,664.8149685967946,None,664.8149685967946,None,665.7986478115199,None,,,,,,,,,,,,,,,,,,,,,,,,,,,,,,24286,2020_Feb_25_1243,Mmi_3levels,3.1.5,59.97769899057798,
,,,2,0,4.5,,,,,,,,,0,1,1,1,0,6,6,14,,,,,,,,,,,,,,,,,,,,,,,,,,,,,,,,,,,,,,,,,,,,,,,,,,,,,,,,,,,False,True,False,0.5,0.5,3.52,-10.52,4.5,-6.02,-0.7599999999999998,gamble,lose,-6.02,122.59333333333338,667.8160463029635,None,667.8160463029635,None,667.8160463029635,None,667.8160463029635,None,667.8160463029635,None,667.8160463029635,None,667.8160463029635,None,1,2.1511252558557317,667.8160463029635,None,670.0001807909575,None,670.0001807909575,None,670.0001807909575,None,670.0001807909575,None,670.0001807909575,None,670.0001807909575,None,670.0001807909575,None,674.0017874307814,None,674.0017874307814,None,674.0017874307814,None,674.0017874307814,None,674.0017874307814,None,674.0017874307814,None,674.0017874307814,None,683.4887541614007,None,674.9854893643642,None,675.985876545019,None,0.5,7.5027979402802885,678.9870153681841,None,None,678.9870153681841,None,,,,,,,,,,,,,,,,,,,24286,2020_Feb_25_1243,Mmi_3levels,3.1.5,59.97769899057798,
,,,2,0,5.3,,,,,,,,,0,1,1,1,0,7,7,20,,,,,,,,,,,,,,,,,,,,,,,,,,,,,,,,,,,,,,,,,,,,,,,,,,,,,,,,,,,False,True,False,0.5,0.5,4.02,-11.02,5.3,-5.72,-0.20999999999999996,certain,certain,-0.20999999999999996,122.38333333333338,685.5062169696321,None,685.5062169696321,None,685.5062169696321,None,685.5062169696321,None,685.5062169696321,None,685.5062169696321,None,685.5062169696321,None,3,1.717588817991782,685.5062169696321,None,687.2569020554656,None,687.2569020554656,None,687.2569020554656,None,687.2569020554656,None,687.2569020554656,None,687.2569020554656,None,687.2569020554656,None,691.2584251794033,None,691.2584251794033,None,691.2584251794033,None,691.2584251794033,None,691.2584251794033,None,691.2584251794033,None,691.2584251794033,None,692.2421050341218,None,,,,,,,,,,,,,,,,,,,,,,,,,,,,,,24286,2020_Feb_25_1243,Mmi_3levels,3.1.5,59.97769899057798,
,,,2,0,2.3,,,,,,,,,0,1,1,1,0,8,8,18,,,,,,,,,,,,,,,,,,,,,,,,,,,,,,,,,,,,,,,,,,,,,,,,,,,,,,,,,,,False,True,True,0.5,0.5,4.52,-11.52,2.3,-9.219999999999999,-3.4599999999999995,gamble,lose,-9.219999999999999,113.16333333333338,694.2595937610604,None,694.2595937610604,None,694.2595937610604,None,694.2595937610604,None,694.2595937610604,None,694.2595937610604,None,694.2595937610604,None,1,1.6175064540584572,694.2595937610604,None,695.9102089623921,None,695.9102089623921,None,695.9102089623921,None,695.9102089623921,None,695.9102089623921,None,695.9102089623921,None,695.9102089623921,None,699.9117727242992,None,699.9117727242992,None,699.9117727242992,None,699.9117727242992,None,699.9117727242992,None,699.9117727242992,None,699.9117727242992,None,709.3987087364658,None,700.895465698326,None,701.895839439705,None,0.5,7.502833778504282,704.8970077013946,None,None,704.8970077013946,None,,,,,,,,,,,,,,,,,,,24286,2020_Feb_25_1243,Mmi_3levels,3.1.5,59.97769899057798,
,,,2,0,2.1,,,,,,,,,0,1,1,1,0,9,9,7,,,,,,,,,,,,,,,,,,,,,,,,,,,,,,,,,,,,,,,,,,,,,,,,,,,,,,,,,,,False,True,True,0.5,0.5,5.02,-12.02,2.1,-9.92,-3.91,gamble,lose,-9.92,103.24333333333338,711.4161795442924,None,711.4161795442924,None,711.4161795442924,None,711.4161795442924,None,711.4161795442924,None,711.4161795442924,None,711.4161795442924,None,1,1.6342396987602115,711.4161795442924,None,713.0835049514426,None,713.0835049514426,None,713.0835049514426,None,713.0835049514426,None,713.0835049514426,None,713.0835049514426,None,713.0835049514426,None,717.0849675984355,None,717.0849675984355,None,717.0849675984355,None,717.0849675984355,None,717.0849675984355,None,717.0849675984355,None,717.0849675984355,None,718.068760727474,None,,,,,,,,,,,,,,,,,,,,,,,,,,,,,,24286,2020_Feb_25_1243,Mmi_3levels,3.1.5,59.97769899057798,
,,,2,0,4.3,,,,,,,,,0,1,1,1,0,10,10,0,,,,,,,,,,,,,,,,,,,,,,,,,,,,,,,,,,,,,,,,,,,,,,,,,,,,,,,,,,,False,False,True,0.5,0.5,5.52,2.21,1.075,-1.135,-0.030000000000000027,certain,certain,-0.030000000000000027,103.21333333333338,720.0861860975856,None,720.0861860975856,None,720.0861860975856,None,720.0861860975856,None,720.0861860975856,None,720.0861860975856,None,720.0861860975856,None,3,1.3174343936843798,720.0861860975856,None,721.4367305184132,None,721.4367305184132,None,721.4367305184132,None,721.4367305184132,None,721.4367305184132,None,721.4367305184132,None,721.4367305184132,None,725.4215363968979,None,725.4215363968979,None,725.4215363968979,None,725.4215363968979,None,725.4215363968979,None,725.4215363968979,None,725.4215363968979,None,726.4219744550064,None,,,,,,,,,,,,,,,,,,,,,,,,,,,,,,24286,2020_Feb_25_1243,Mmi_3levels,3.1.5,59.97769899057798,
,,,2,0,9.3,,,,,,,,,0,1,1,1,0,11,11,12,,,,,,,,,,,,,,,,,,,,,,,,,,,,,,,,,,,,,,,,,,,,,,,,,,,,,,,,,,,False,True,True,0.5,0.5,6.02,-13.02,9.3,-3.719999999999999,-1.8599999999999994,gamble,lose,-3.719999999999999,99.49333333333338,728.4393937454442,None,728.4393937454442,None,728.4393937454442,None,728.4393937454442,None,728.4393937454442,None,728.4393937454442,None,728.4393937454442,None,1,1.8676261281361803,728.4393937454442,None,730.3401241410174,None,730.3401241410174,None,730.3401241410174,None,730.3401241410174,None,730.3401241410174,None,730.3401241410174,None,730.3401241410174,None,734.3416997423628,None,734.3416997423628,None,734.3416997423628,None,734.3416997423628,None,734.3416997423628,None,734.3416997423628,None,734.3416997423628,None,743.8285899967887,None,735.3253188001108,None,736.3257606980042,None,0.5,7.5029544124845415,739.3269238399807,None,None,739.3269238399807,None,,,,,,,,,,,,,,,,,,,24286,2020_Feb_25_1243,Mmi_3levels,3.1.5,59.97769899057798,
,,,2,0,12.7,,,,,,,,,0,1,1,1,0,12,12,19,,,,,,,,,,,,,,,,,,,,,,,,,,,,,,,,,,,,,,,,,,,,,,,,,,,,,,,,,,,False,True,True,0.5,0.5,6.52,-13.52,12.7,-0.8200000000000003,-0.41000000000000014,gamble,lose,-0.8200000000000003,98.67333333333337,745.8460912031005,None,745.8460912031005,None,745.8460912031005,None,745.8460912031005,None,745.8460912031005,None,745.8460912031005,None,745.8460912031005,None,1,2.0343790837796405,745.8460912031005,None,747.9135531154461,None,747.9135531154461,None,747.9135531154461,None,747.9135531154461,None,747.9135531154461,None,747.9135531154461,None,747.9135531154461,None,751.9150896787178,None,751.9150896787178,None,751.9150896787178,None,751.9150896787178,None,751.9150896787178,None,751.9150896787178,None,751.9150896787178,None,752.8988303304068,None,,,,,,,,,,,,,,,,,,,,,,,,,,,,,,24286,2020_Feb_25_1243,Mmi_3levels,3.1.5,59.97769899057798,
,,,2,0,9.5,,,,,,,,,0,1,1,1,0,13,13,23,,,,,,,,,,,,,,,,,,,,,,,,,,,,,,,,,,,,,,,,,,,,,,,,,,,,,,,,,,,False,True,True,0.5,0.5,7.02,-14.02,9.5,-4.52,-2.26,certain,certain,-2.26,96.41333333333337,754.9162448210409,None,754.9162448210409,None,754.9162448210409,None,754.9162448210409,None,754.9162448210409,None,754.9162448210409,None,754.9162448210409,None,3,2.0175348047050647,754.9162448210409,None,756.9669798883842,None,756.9669798883842,None,756.9669798883842,None,756.9669798883842,None,756.9669798883842,None,756.9669798883842,None,756.9669798883842,None,760.9685222113621,None,760.9685222113621,None,760.9685222113621,None,760.9685222113621,None,760.9685222113621,None,760.9685222113621,None,760.9685222113621,None,770.4555890969932,None,761.9523169403546,None,762.9527025211137,None,0.51,7.502793140534777,765.9538397443248,None,None,765.9538397443248,None,,,,,,,,,,,,,,,,,,,24286,2020_Feb_25_1243,Mmi_3levels,3.1.5,59.97769899057798,
,,,2,0,-0.3,,,,,,,,,0,1,1,1,0,14,14,26,,,,,,,,,,,,,,,,,,,,,,,,,,,,,,,,,,,,,,,,,,,,,,,,,,,,,,,,,,,False,True,False,0.51,0.51,7.529999999999999,-14.67,-0.3,-14.97,-7.635000000000001,certain,certain,-7.635000000000001,88.77833333333336,772.4730266265105,None,772.4730266265105,None,772.4730266265105,None,772.4730266265105,None,772.4730266265105,None,772.4730266265105,None,772.4730266265105,None,3,2.801315198361408,772.4730266265105,None,775.3074278532295,None,775.3074278532295,None,775.3074278532295,None,775.3074278532295,None,775.3074278532295,None,775.3074278532295,None,775.3074278532295,None,779.3089109791908,None,779.3089109791908,None,779.3089109791908,None,779.3089109791908,None,779.3089109791908,None,779.3089109791908,None,779.3089109791908,None,780.2926244321861,None,,,,,,,,,,,,,,,,,,,,,,,,,,,,,,24286,2020_Feb_25_1243,Mmi_3levels,3.1.5,59.97769899057798,
,,,2,0,8.5,,,,,,,,,0,1,1,1,0,15,15,24,,,,,,,,,,,,,,,,,,,,,,,,,,,,,,,,,,,,,,,,,,,,,,,,,,,,,,,,,,,False,True,False,0.51,0.51,8.04,-15.18,8.5,-6.68,0.9100000000000001,gamble,lose,-6.68,82.09833333333336,782.3101454775315,None,782.3101454775315,None,782.3101454775315,None,782.3101454775315,None,782.3101454775315,None,782.3101454775315,None,782.3101454775315,None,1,2.5178131907596253,782.3101454775315,None,784.8610472565051,None,784.8610472565051,None,784.8610472565051,None,784.8610472565051,None,784.8610472565051,None,784.8610472565051,None,784.8610472565051,None,788.8626481366227,None,788.8626481366227,None,788.8626481366227,None,788.8626481366227,None,788.8626481366227,None,788.8626481366227,None,788.8626481366227,None,798.3496023878688,None,789.8463219116093,None,790.8467433305923,None,0.5,7.502890735748224,793.8478923931834,None,None,793.8478923931834,None,,,,,,,,,,,,,,,,,,,24286,2020_Feb_25_1243,Mmi_3levels,3.1.5,59.97769899057798,
,,,2,0,8.1,,,,,,,,,0,1,1,1,0,16,16,3,,,,,,,,,,,,,,,,,,,,,,,,,,,,,,,,,,,,,,,,,,,,,,,,,,,,,,,,,,,False,True,True,0.5,0.5,8.54,-15.54,8.1,-7.4399999999999995,0.33000000000000007,gamble,lose,-7.4399999999999995,74.65833333333336,800.3670763955452,None,800.3670763955452,None,800.3670763955452,None,800.3670763955452,None,800.3670763955452,None,800.3670763955452,None,800.3670763955452,None,None,,800.3670763955452,None,803.3682225783123,None,803.3682225783123,None,803.3682225783123,None,803.3682225783123,None,803.3682225783123,None,803.3682225783123,None,803.3682225783123,None,807.3697665012442,None,807.3697665012442,None,807.3697665012442,None,807.3697665012442,None,807.3697665012442,None,807.3697665012442,None,807.3697665012442,None,808.3534850740107,None,,,,,,,,,,,,,,,,,,,,,,,,,,,,,,24286,2020_Feb_25_1243,Mmi_3levels,3.1.5,59.97769899057798,
,,,2,0,11.5,,,,,,,,,0,1,1,1,0,17,17,11,,,,,,,,,,,,,,,,,,,,,,,,,,,,,,,,,,,,,,,,,,,,,,,,,,,,,,,,,,,False,True,False,0.5,0.5,9.04,-16.04,11.5,-4.539999999999999,-2.2699999999999996,gamble,lose,-4.539999999999999,70.11833333333337,810.3709133240045,None,810.3709133240045,None,810.3709133240045,None,810.3709133240045,None,810.3709133240045,None,810.3709133240045,None,810.3709133240045,None,1,1.6008666447014548,810.3709133240045,None,812.0048861560645,None,812.0048861560645,None,812.0048861560645,None,812.0048861560645,None,812.0048861560645,None,812.0048861560645,None,812.0048861560645,None,816.0064454382518,None,816.0064454382518,None,816.0064454382518,None,816.0064454382518,None,816.0064454382518,None,816.0064454382518,None,816.0064454382518,None,816.9901608111686,None,,,,,,,,,,,,,,,,,,,,,,,,,,,,,,24286,2020_Feb_25_1243,Mmi_3levels,3.1.5,59.97769899057798,
,,,2,0,4.9,,,,,,,,,0,1,1,1,0,18,18,22,,,,,,,,,,,,,,,,,,,,,,,,,,,,,,,,,,,,,,,,,,,,,,,,,,,,,,,,,,,False,True,False,0.5,0.5,9.54,-16.54,4.9,-11.639999999999999,-3.369999999999999,gamble,lose,-11.639999999999999,58.47833333333337,819.0075266642962,None,819.0075266642962,None,819.0075266642962,None,819.0075266642962,None,819.0075266642962,None,819.0075266642962,None,819.0075266642962,None,None,,819.0075266642962,None,822.0087570028263,None,822.0087570028263,None,822.0087570028263,None,822.0087570028263,None,822.0087570028263,None,822.0087570028263,None,822.0087570028263,None,826.0103319642367,None,826.0103319642367,None,826.0103319642367,None,826.0103319642367,None,826.0103319642367,None,826.0103319642367,None,826.0103319642367,None,835.4972865354503,None,826.9939283031272,None,827.9943724409095,None,0.5,7.502855537459254,830.9955186237348,None,None,830.9955186237348,None,,,,,,,,,,,,,,,,,,,24286,2020_Feb_25_1243,Mmi_3levels,3.1.5,59.97769899057798,
,,,2,0,1.1,,,,,,,,,0,1,1,1,0,19,19,15,,,,,,,,,,,,,,,,,,,,,,,,,,,,,,,,,,,,,,,,,,,,,,,,,,,,,,,,,,,False,True,False,0.5,0.5,10.04,-17.04,1.1,-15.94,-7.42,certain,certain,-7.42,51.058333333333366,837.5146859868546,None,837.5146859868546,None,837.5146859868546,None,837.5146859868546,None,837.5146859868546,None,837.5146859868546,None,837.5146859868546,None,3,1.5341438955510966,837.5146859868546,None,839.0820007065195,None,839.0820007065195,None,839.0820007065195,None,839.0820007065195,None,839.0820007065195,None,839.0820007065195,None,839.0820007065195,None,843.0835100711556,None,843.0835100711556,None,843.0835100711556,None,843.0835100711556,None,843.0835100711556,None,843.0835100711556,None,843.0835100711556,None,844.0672772815451,None,,,,,,,,,,,,,,,,,,,,,,,,,,,,,,24286,2020_Feb_25_1243,Mmi_3levels,3.1.5,59.97769899057798,
,,,2,0,7.5,,,,,,,,,0,1,1,1,0,20,20,4,,,,,,,,,,,,,,,,,,,,,,,,,,,,,,,,,,,,,,,,,,,,,,,,,,,,,,,,,,,False,True,True,0.5,0.5,10.54,-17.54,7.5,-10.04,-1.2699999999999996,certain,certain,-1.2699999999999996,49.78833333333337,846.0846668134327,None,846.0846668134327,None,846.0846668134327,None,846.0846668134327,None,846.0846668134327,None,846.0846668134327,None,846.0846668134327,None,3,0.43369035015348345,846.0846668134327,None,846.5515139084309,None,846.5515139084309,None,846.5515139084309,None,846.5515139084309,None,846.5515139084309,None,846.5515139084309,None,846.5515139084309,None,850.553036072466,None,850.553036072466,None,850.553036072466,None,850.553036072466,None,850.553036072466,None,850.553036072466,None,850.553036072466,None,860.0399820040911,None,851.5367620048346,None,852.5370947882184,None,0.5,7.502786740893498,855.5383206470287,None,None,855.5383206470287,None,,,,,,,,,,,,,,,,,,,24286,2020_Feb_25_1243,Mmi_3levels,3.1.5,59.97769899057798,
,,,2,0,-0.9,,,,,,,,,0,1,1,1,0,21,21,5,,,,,,,,,,,,,,,,,,,,,,,,,,,,,,,,,,,,,,,,,,,,,,,,,,,,,,,,,,,False,True,True,0.5,0.5,11.04,-18.04,-0.9,-18.939999999999998,-9.919999999999998,gamble,lose,-18.939999999999998,30.848333333333372,862.0574912100565,None,862.0574912100565,None,862.0574912100565,None,862.0574912100565,None,862.0574912100565,None,862.0574912100565,None,862.0574912100565,None,None,,862.0574912100565,None,865.0586972298333,None,865.0586972298333,None,865.0586972298333,None,865.0586972298333,None,865.0586972298333,None,865.0586972298333,None,865.0586972298333,None,869.060169796343,None,869.060169796343,None,869.060169796343,None,869.060169796343,None,869.060169796343,None,869.060169796343,None,869.060169796343,None,870.043830451963,None,,,,,,,,,,,,,,,,,,,,,,,,,,,,,,24286,2020_Feb_25_1243,Mmi_3levels,3.1.5,59.97769899057798,
,,,2,0,3.3,,,,,,,,,0,1,1,1,0,22,22,16,,,,,,,,,,,,,,,,,,,,,,,,,,,,,,,,,,,,,,,,,,,,,,,,,,,,,,,,,,,False,False,True,0.5,0.5,11.54,2.7116666666666664,0.825,-1.8866666666666665,-0.5308333333333333,certain,certain,-0.5308333333333333,30.317500000000038,872.0613255786011,None,872.0613255786011,None,872.0613255786011,None,872.0613255786011,None,872.0613255786011,None,872.0613255786011,None,872.0613255786011,None,3,1.2507186841103248,872.0613255786011,None,873.3451622895082,None,873.3451622895082,None,873.3451622895082,None,873.3451622895082,None,873.3451622895082,None,873.3451622895082,None,873.3451622895082,None,877.3466969329165,None,877.3466969329165,None,877.3466969329165,None,877.3466969329165,None,877.3466969329165,None,877.3466969329165,None,877.3466969329165,None,886.8336796627264,None,878.3303521487978,None,879.3307770875981,None,0.5,7.502791220671497,882.3319315899862,None,None,882.3319315899862,None,,,,,,,,,,,,,,,,,,,24286,2020_Feb_25_1243,Mmi_3levels,3.1.5,59.97769899057798,
,,,2,0,2.9,,,,,,,,,0,1,1,1,0,23,23,21,,,,,,,,,,,,,,,,,,,,,,,,,,,,,,,,,,,,,,,,,,,,,,,,,,,,,,,,,,,False,False,True,0.5,0.5,12.04,2.753333333333333,0.725,-2.028333333333333,-0.6516666666666664,certain,certain,-0.6516666666666664,29.66583333333337,888.8511495105922,None,888.8511495105922,None,888.8511495105922,None,888.8511495105922,None,888.8511495105922,None,888.8511495105922,None,888.8511495105922,None,3,2.267798471497372,888.8511495105922,None,891.1520365703618,None,891.1520365703618,None,891.1520365703618,None,891.1520365703618,None,891.1520365703618,None,891.1520365703618,None,891.1520365703618,None,895.153500497283,None,895.153500497283,None,895.153500497283,None,895.153500497283,None,895.153500497283,None,895.153500497283,None,895.153500497283,None,896.1372049907222,None,,,,,,,,,,,,,,,,,,,,,,,,,,,,,,24286,2020_Feb_25_1243,Mmi_3levels,3.1.5,59.97769899057798,
,,,2,0,10.7,,,,,,,,,0,1,1,1,0,24,24,10,,,,,,,,,,,,,,,,,,,,,,,,,,,,,,,,,,,,,,,,,,,,,,,,,,,,,,,,,,,False,True,False,0.5,0.5,12.54,-19.54,10.7,-8.84,0.9299999999999997,certain,certain,0.9299999999999997,30.59583333333337,898.1547007573536,None,898.1547007573536,None,898.1547007573536,None,898.1547007573536,None,898.1547007573536,None,898.1547007573536,None,898.1547007573536,None,3,2.601249985571485,898.1547007573536,None,900.7890636499505,None,900.7890636499505,None,900.7890636499505,None,900.7890636499505,None,900.7890636499505,None,900.7890636499505,None,900.7890636499505,None,904.790625811962,None,904.790625811962,None,904.790625811962,None,904.790625811962,None,904.790625811962,None,904.790625811962,None,904.790625811962,None,905.7743066266412,None,,,,,,,,,,,,,,,,,,,,,,,,,,,,,,24286,2020_Feb_25_1243,Mmi_3levels,3.1.5,59.97769899057798,
,,,2,0,5.5,,,,,,,,,0,1,1,1,0,25,25,9,,,,,,,,,,,,,,,,,,,,,,,,,,,,,,,,,,,,,,,,,,,,,,,,,,,,,,,,,,,False,True,False,0.5,0.5,13.04,-20.04,5.5,-14.54,-4.52,certain,certain,-4.52,26.07583333333337,907.7917297568638,None,907.7917297568638,None,907.7917297568638,None,907.7917297568638,None,907.7917297568638,None,907.7917297568638,None,907.7917297568638,None,3,1.6507371151819825,907.7917297568638,None,909.4757682496565,None,909.4757682496565,None,909.4757682496565,None,909.4757682496565,None,909.4757682496565,None,909.4757682496565,None,909.4757682496565,None,913.4772760143969,None,913.4772760143969,None,913.4772760143969,None,913.4772760143969,None,913.4772760143969,None,913.4772760143969,None,913.4772760143969,None,922.9641969872755,None,914.4609616288217,None,915.4613641686738,None,0.5,7.5027441830025055,918.4625381900696,None,None,918.4625381900696,None,,,,,,,,,,,,,,,,,,,24286,2020_Feb_25_1243,Mmi_3levels,3.1.5,59.97769899057798,
,,,2,0,3.7,,,,,,,,,0,1,1,1,0,26,26,17,,,,,,,,,,,,,,,,,,,,,,,,,,,,,,,,,,,,,,,,,,,,,,,,,,,,,,,,,,,False,True,False,0.5,0.5,13.54,-20.54,3.7,-16.84,-6.57,certain,certain,-6.57,19.50583333333337,924.9816953137633,None,924.9816953137633,None,924.9816953137633,None,924.9816953137633,None,924.9816953137633,None,924.9816953137633,None,924.9816953137633,None,3,1.7509461927693337,924.9816953137633,None,926.7657419341849,None,926.7657419341849,None,926.7657419341849,None,926.7657419341849,None,926.7657419341849,None,926.7657419341849,None,926.7657419341849,None,930.7672576985206,None,930.7672576985206,None,930.7672576985206,None,930.7672576985206,None,930.7672576985206,None,930.7672576985206,None,930.7672576985206,None,931.7510332284146,None,,,,,,,,,,,,,,,,,,,,,,,,,,,,,,24286,2020_Feb_25_1243,Mmi_3levels,3.1.5,59.97769899057798,
,,,3,1,10.9,,,,,,,,,0,2,2,2,0,0,0,5,,,,,,,,,,,,,,,,,,,,,,,,,,,,,,,,,,,,,,,,,,,,,,,,935.4190728398971,None,0.5,7.501976541301701,938.420215502847,None,None,938.420215502847,None,942.9218583008624,None,True,True,False,0.5,-0.5,-0.5,7.5,10.9,3.4000000000000004,1.7000000000000002,gamble,win,10.9,30.40583333333337,945.9564620134188,None,945.9564620134188,None,945.9564620134188,None,945.9564620134188,None,945.9564620134188,None,945.9564620134188,None,945.9564620134188,None,1,1.4174383615027182,945.9564620134188,None,947.4069873631815,None,947.4069873631815,None,947.4069873631815,None,947.4069873631815,None,947.4069873631815,None,947.4069873631815,None,947.4069873631815,None,951.4085351258982,None,951.4085351258982,None,951.4085351258982,None,951.4085351258982,None,951.4085351258982,None,951.4085351258982,None,951.4085351258982,None,960.8955277752248,None,952.392256578547,None,953.3926546386792,None,0.5,7.50283569842577,956.3937729828758,None,None,956.3937729828758,None,933.7517573522637,None,4,1.6508599890512414,933.7517573522637,None,,,,,,,,,,,,,24286,2020_Feb_25_1243,Mmi_3levels,3.1.5,59.97769899057798,
,,,3,1,6.5,,,,,,,,,0,2,2,2,0,1,1,6,,,,,,,,,,,,,,,,,,,,,,,,,,,,,,,,,,,,,,,,,,,,,,,,,,,,,,,,,,,True,True,False,0.5,-0.5,-1.0,8.0,6.5,-1.5,-0.75,gamble,win,6.5,36.90583333333337,962.9130229019211,None,962.9130229019211,None,962.9130229019211,None,962.9130229019211,None,962.9130229019211,None,962.9130229019211,None,962.9130229019211,None,1,1.4841249525197782,962.9130229019211,None,964.4302150036674,None,964.4302150036674,None,964.4302150036674,None,964.4302150036674,None,964.4302150036674,None,964.4302150036674,None,964.4302150036674,None,968.4317502870108,None,968.4317502870108,None,968.4317502870108,None,968.4317502870108,None,968.4317502870108,None,968.4317502870108,None,968.4317502870108,None,969.4154906187323,None,,,,,,,,,,,,,,,,,,,,,,,,,,,,,,24286,2020_Feb_25_1243,Mmi_3levels,3.1.5,59.97769899057798,
,,,3,1,8.3,,,,,,,,,0,2,2,2,0,2,2,11,,,,,,,,,,,,,,,,,,,,,,,,,,,,,,,,,,,,,,,,,,,,,,,,,,,,,,,,,,,True,True,False,0.5,-0.5,-1.5,8.5,8.3,-0.1999999999999993,-0.09999999999999964,gamble,win,8.3,45.20583333333337,971.4329204686219,None,971.4329204686219,None,971.4329204686219,None,971.4329204686219,None,971.4329204686219,None,971.4329204686219,None,971.4329204686219,None,1,1.2006498235859908,971.4329204686219,None,972.6667126376997,None,972.6667126376997,None,972.6667126376997,None,972.6667126376997,None,972.6667126376997,None,972.6667126376997,None,972.6667126376997,None,976.6682604004163,None,976.6682604004163,None,976.6682604004163,None,976.6682604004163,None,976.6682604004163,None,976.6682604004163,None,976.6682604004163,None,977.6519927325426,None,,,,,,,,,,,,,,,,,,,,,,,,,,,,,,24286,2020_Feb_25_1243,Mmi_3levels,3.1.5,59.97769899057798,
,,,3,1,5.9,,,,,,,,,0,2,2,2,0,3,3,20,,,,,,,,,,,,,,,,,,,,,,,,,,,,,,,,,,,,,,,,,,,,,,,,,,,,,,,,,,,True,True,True,0.5,-0.5,-2.0,9.0,5.9,-3.0999999999999996,1.4000000000000004,gamble,win,5.9,51.10583333333337,979.6693909040187,None,979.6693909040187,None,979.6693909040187,None,979.6693909040187,None,979.6693909040187,None,979.6693909040187,None,979.6693909040187,None,1,1.50085211743135,979.6693909040187,None,981.2032762524323,None,981.2032762524323,None,981.2032762524323,None,981.2032762524323,None,981.2032762524323,None,981.2032762524323,None,981.2032762524323,None,985.2048704128829,None,985.2048704128829,None,985.2048704128829,None,985.2048704128829,None,985.2048704128829,None,985.2048704128829,None,985.2048704128829,None,994.6918800213607,None,986.1885553873144,None,987.1889720064937,None,0.5,7.502820339228492,990.1900945105008,None,None,990.1900945105008,None,,,,,,,,,,,,,,,,,,,24286,2020_Feb_25_1243,Mmi_3levels,3.1.5,59.97769899057798,
,,,3,1,9.5,,,,,,,,,0,2,2,2,0,4,4,22,,,,,,,,,,,,,,,,,,,,,,,,,,,,,,,,,,,,,,,,,,,,,,,,,,,,,,,,,,,True,True,True,0.5,-0.5,-2.5,9.5,9.5,0.0,0.0,gamble,win,9.5,60.60583333333337,996.7092977118446,None,996.7092977118446,None,996.7092977118446,None,996.7092977118446,None,996.7092977118446,None,996.7092977118446,None,996.7092977118446,None,1,1.9343325581285171,996.7092977118446,None,998.6767201381153,None,998.6767201381153,None,998.6767201381153,None,998.6767201381153,None,998.6767201381153,None,998.6767201381153,None,998.6767201381153,None,1002.6782631010865,None,1002.6782631010865,None,1002.6782631010865,None,1002.6782631010865,None,1002.6782631010865,None,1002.6782631010865,None,1002.6782631010865,None,1003.6619803939248,None,,,,,,,,,,,,,,,,,,,,,,,,,,,,,,24286,2020_Feb_25_1243,Mmi_3levels,3.1.5,59.97769899057798,
,,,3,1,3.7,,,,,,,,,0,2,2,2,0,5,5,8,,,,,,,,,,,,,,,,,,,,,,,,,,,,,,,,,,,,,,,,,,,,,,,,,,,,,,,,,,,True,True,False,0.5,-0.5,-3.0,10.0,3.7,-6.3,-1.2999999999999998,gamble,win,3.7,64.30583333333337,1005.6794393623713,None,1005.6794393623713,None,1005.6794393623713,None,1005.6794393623713,None,1005.6794393623713,None,1005.6794393623713,None,1005.6794393623713,None,None,,1005.6794393623713,None,1008.6805993044982,None,1008.6805993044982,None,1008.6805993044982,None,1008.6805993044982,None,1008.6805993044982,None,1008.6805993044982,None,1008.6805993044982,None,1012.6820961897611,None,1012.6820961897611,None,1012.6820961897611,None,1012.6820961897611,None,1012.6820961897611,None,1012.6820961897611,None,1012.6820961897611,None,1022.1691032383824,None,1013.6658522006474,None,1014.6662096228101,None,0.5,7.502802740084007,1017.6673852441018,None,None,1017.6673852441018,None,,,,,,,,,,,,,,,,,,,24286,2020_Feb_25_1243,Mmi_3levels,3.1.5,59.97769899057798,
,,,3,1,1.7,,,,,,,,,0,2,2,2,0,6,6,23,,,,,,,,,,,,,,,,,,,,,,,,,,,,,,,,,,,,,,,,,,,,,,,,,,,,,,,,,,,True,False,True,0.5,-0.5,-3.5,-2.0416666666666665,1.7,-0.34166666666666656,0.6791666666666667,gamble,lose,-0.34166666666666656,63.9641666666667,1024.1865234887227,None,1024.1865234887227,None,1024.1865234887227,None,1024.1865234887227,None,1024.1865234887227,None,1024.1865234887227,None,1024.1865234887227,None,1,1.93437479599379,1024.1865234887227,None,1026.1539939126233,None,1026.1539939126233,None,1026.1539939126233,None,1026.1539939126233,None,1026.1539939126233,None,1026.1539939126233,None,1026.1539939126233,None,1030.1555647142231,None,1030.1555647142231,None,1030.1555647142231,None,1030.1555647142231,None,1030.1555647142231,None,1030.1555647142231,None,1030.1555647142231,None,1031.1391591331922,None,,,,,,,,,,,,,,,,,,,,,,,,,,,,,,24286,2020_Feb_25_1243,Mmi_3levels,3.1.5,59.97769899057798,
,,,3,1,11.9,,,,,,,,,0,2,2,2,0,7,7,18,,,,,,,,,,,,,,,,,,,,,,,,,,,,,,,,,,,,,,,,,,,,,,,,,,,,,,,,,,,True,True,False,0.5,-0.5,-4.0,11.0,11.9,0.9000000000000004,0.4500000000000002,gamble,win,11.9,75.8641666666667,1033.1566078621545,None,1033.1566078621545,None,1033.1566078621545,None,1033.1566078621545,None,1033.1566078621545,None,1033.1566078621545,None,1033.1566078621545,None,1,1.6509703836054541,1033.1566078621545,None,1034.8405893977615,None,1034.8405893977615,None,1034.8405893977615,None,1034.8405893977615,None,1034.8405893977615,None,1034.8405893977615,None,1034.8405893977615,None,1038.8255037508789,None,1038.8255037508789,None,1038.8255037508789,None,1038.8255037508789,None,1038.8255037508789,None,1038.8255037508789,None,1038.8255037508789,None,1048.329112530686,None,1039.8258736524149,None,1040.8263043508632,None,0.5,7.502794740488753,1043.8274281347985,None,None,1043.8274281347985,None,,,,,,,,,,,,,,,,,,,24286,2020_Feb_25_1243,Mmi_3levels,3.1.5,59.97769899057798,
,,,3,1,10.5,,,,,,,,,0,2,2,2,0,8,8,12,,,,,,,,,,,,,,,,,,,,,,,,,,,,,,,,,,,,,,,,,,,,,,,,,,,,,,,,,,,True,False,True,0.5,-0.5,-4.5,-2.125,10.5,8.375,4.1875,gamble,lose,8.375,84.2391666666667,1050.3466348559596,None,1050.3466348559596,None,1050.3466348559596,None,1050.3466348559596,None,1050.3466348559596,None,1050.3466348559596,None,1050.3466348559596,None,1,1.2340443165157922,1050.3466348559596,None,1051.6137914395076,None,1051.6137914395076,None,1051.6137914395076,None,1051.6137914395076,None,1051.6137914395076,None,1051.6137914395076,None,1051.6137914395076,None,1055.6153046439867,None,1055.6153046439867,None,1055.6153046439867,None,1055.6153046439867,None,1055.6153046439867,None,1055.6153046439867,None,1055.6153046439867,None,1056.5990193769685,None,,,,,,,,,,,,,,,,,,,,,,,,,,,,,,24286,2020_Feb_25_1243,Mmi_3levels,3.1.5,59.97769899057798,
,,,3,1,11.1,,,,,,,,,0,2,2,2,0,9,9,21,,,,,,,,,,,,,,,,,,,,,,,,,,,,,,,,,,,,,,,,,,,,,,,,,,,,,,,,,,,True,True,False,0.5,-0.5,-5.0,12.0,11.1,-0.9000000000000004,-0.4500000000000002,gamble,win,11.1,95.3391666666667,1058.6164546665968,None,1058.6164546665968,None,1058.6164546665968,None,1058.6164546665968,None,1058.6164546665968,None,1058.6164546665968,None,1058.6164546665968,None,1,1.7342279873555526,1058.6164546665968,None,1060.3837482032832,None,1060.3837482032832,None,1060.3837482032832,None,1060.3837482032832,None,1060.3837482032832,None,1060.3837482032832,None,1060.3837482032832,None,1064.385343643662,None,1064.385343643662,None,1064.385343643662,None,1064.385343643662,None,1064.385343643662,None,1064.385343643662,None,1064.385343643662,None,1065.369073735841,None,,,,,,,,,,,,,,,,,,,,,,,,,,,,,,24286,2020_Feb_25_1243,Mmi_3levels,3.1.5,59.97769899057798,
,,,3,1,0.3,,,,,,,,,0,2,2,2,0,10,10,7,,,,,,,,,,,,,,,,,,,,,,,,,,,,,,,,,,,,,,,,,,,,,,,,,,,,,,,,,,,True,True,False,0.5,-0.5,-5.5,12.5,0.3,-12.2,-5.949999999999999,certain,certain,-5.949999999999999,89.3891666666667,1067.3865074255737,None,1067.3865074255737,None,1067.3865074255737,None,1067.3865074255737,None,1067.3865074255737,None,1067.3865074255737,None,1067.3865074255737,None,3,1.8509466407704167,1067.3865074255737,None,1069.2705624935334,None,1069.2705624935334,None,1069.2705624935334,None,1069.2705624935334,None,1069.2705624935334,None,1069.2705624935334,None,1069.2705624935334,None,1073.2721230555908,None,1073.2721230555908,None,1073.2721230555908,None,1073.2721230555908,None,1073.2721230555908,None,1073.2721230555908,None,1073.2721230555908,None,1082.759023549559,None,1074.2558041902375,None,1075.2562336088158,None,0.5,7.502710584667511,1078.2573333939072,None,None,1078.2573333939072,None,,,,,,,,,,,,,,,,,,,24286,2020_Feb_25_1243,Mmi_3levels,3.1.5,59.97769899057798,
,,,3,1,12.5,,,,,,,,,0,2,2,2,0,11,11,2,,,,,,,,,,,,,,,,,,,,,,,,,,,,,,,,,,,,,,,,,,,,,,,,,,,,,,,,,,,True,False,False,0.5,-0.5,-6.0,-2.25,12.5,10.25,5.125,gamble,lose,10.25,99.6391666666667,1084.776524755871,None,1084.776524755871,None,1084.776524755871,None,1084.776524755871,None,1084.776524755871,None,1084.776524755871,None,1084.776524755871,None,1,1.7342967838631012,1084.776524755871,None,1086.5438749297755,None,1086.5438749297755,None,1086.5438749297755,None,1086.5438749297755,None,1086.5438749297755,None,1086.5438749297755,None,1086.5438749297755,None,1090.5454364517936,None,1090.5454364517936,None,1090.5454364517936,None,1090.5454364517936,None,1090.5454364517936,None,1090.5454364517936,None,1090.5454364517936,None,1091.5290996673284,None,,,,,,,,,,,,,,,,,,,,,,,,,,,,,,24286,2020_Feb_25_1243,Mmi_3levels,3.1.5,59.97769899057798,
,,,3,1,4.3,,,,,,,,,0,2,2,2,0,12,12,1,,,,,,,,,,,,,,,,,,,,,,,,,,,,,,,,,,,,,,,,,,,,,,,,,,,,,,,,,,,True,True,True,0.5,-0.5,-6.5,13.5,4.3,-9.2,-2.4499999999999997,gamble,win,4.3,103.9391666666667,1093.54653559695,None,1093.54653559695,None,1093.54653559695,None,1093.54653559695,None,1093.54653559695,None,1093.54653559695,None,1093.54653559695,None,None,,1093.54653559695,None,1096.547672820161,None,1096.547672820161,None,1096.547672820161,None,1096.547672820161,None,1096.547672820161,None,1096.547672820161,None,1096.547672820161,None,1100.549212263315,None,1100.549212263315,None,1100.549212263315,None,1100.549212263315,None,1100.549212263315,None,1100.549212263315,None,1100.549212263315,None,1110.0362257116358,None,1101.5329605946317,None,1102.533368254255,None,0.5,7.502757942362223,1105.5344536400517,None,None,1105.5344536400517,None,,,,,,,,,,,,,,,,,,,24286,2020_Feb_25_1243,Mmi_3levels,3.1.5,59.97769899057798,
,,,3,1,4.5,,,,,,,,,0,2,2,2,0,13,13,3,,,,,,,,,,,,,,,,,,,,,,,,,,,,,,,,,,,,,,,,,,,,,,,,,,,,,,,,,,,True,True,False,0.5,-0.5,-7.0,14.0,4.5,-9.5,-2.5,gamble,win,4.5,108.4391666666667,1112.053683400096,None,1112.053683400096,None,1112.053683400096,None,1112.053683400096,None,1112.053683400096,None,1112.053683400096,None,1112.053683400096,None,1,2.818017724552192,1112.053683400096,None,1114.9548102558474,None,1114.9548102558474,None,1114.9548102558474,None,1114.9548102558474,None,1114.9548102558474,None,1114.9548102558474,None,1114.9548102558474,None,1118.9063544347882,None,1118.9063544347882,None,1118.9063544347882,None,1118.9063544347882,None,1118.9063544347882,None,1118.9063544347882,None,1118.9063544347882,None,1119.8900637280312,None,,,,,,,,,,,,,,,,,,,,,,,,,,,,,,24286,2020_Feb_25_1243,Mmi_3levels,3.1.5,59.97769899057798,
,,,3,1,2.5,,,,,,,,,0,2,2,2,0,14,14,15,,,,,,,,,,,,,,,,,,,,,,,,,,,,,,,,,,,,,,,,,,,,,,,,,,,,,,,,,,,True,False,True,0.5,-0.5,-7.5,-2.375,2.5,0.125,1.3125,gamble,lose,0.125,108.5641666666667,1121.9075044573983,None,1121.9075044573983,None,1121.9075044573983,None,1121.9075044573983,None,1121.9075044573983,None,1121.9075044573983,None,1121.9075044573983,None,1,1.2173933077137917,1121.9075044573983,None,1123.15797003411,None,1123.15797003411,None,1123.15797003411,None,1123.15797003411,None,1123.15797003411,None,1123.15797003411,None,1123.15797003411,None,1127.142859108455,None,1127.142859108455,None,1127.142859108455,None,1127.142859108455,None,1127.142859108455,None,1127.142859108455,None,1127.142859108455,None,1128.1432181305718,None,,,,,,,,,,,,,,,,,,,,,,,,,,,,,,24286,2020_Feb_25_1243,Mmi_3levels,3.1.5,59.97769899057798,
,,,3,1,5.5,,,,,,,,,0,2,2,2,0,15,15,14,,,,,,,,,,,,,,,,,,,,,,,,,,,,,,,,,,,,,,,,,,,,,,,,,,,,,,,,,,,True,False,False,0.5,-0.5,-8.0,-2.4166666666666665,5.5,3.0833333333333335,1.5416666666666667,gamble,lose,3.0833333333333335,111.64750000000002,1130.1606956580654,None,1130.1606956580654,None,1130.1606956580654,None,1130.1606956580654,None,1130.1606956580654,None,1130.1606956580654,None,1130.1606956580654,None,1,1.35051978204865,1130.1606956580654,None,1131.5445731349173,None,1131.5445731349173,None,1131.5445731349173,None,1131.5445731349173,None,1131.5445731349173,None,1131.5445731349173,None,1131.5445731349173,None,1135.5460946589592,None,1135.5460946589592,None,1135.5460946589592,None,1135.5460946589592,None,1135.5460946589592,None,1135.5460946589592,None,1135.5460946589592,None,1145.0330815485795,None,1136.529724276159,None,1137.5301140167285,None,0.0,7.502689785731491,1140.5313296359964,None,None,1140.5313296359964,None,,,,,,,,,,,,,,,,,,,24286,2020_Feb_25_1243,Mmi_3levels,3.1.5,59.97769899057798,
,,,3,1,9.1,,,,,,,,,0,2,2,2,0,16,16,17,,,,,,,,,,,,,,,,,,,,,,,,,,,,,,,,,,,,,,,,,,,,,,,,,,,,,,,,,,,True,True,True,0.0,-1.0,-9.0,23.0,9.1,-13.9,-2.4000000000000004,gamble,win,9.1,120.74750000000002,1147.0504803600488,None,1147.0504803600488,None,1147.0504803600488,None,1147.0504803600488,None,1147.0504803600488,None,1147.0504803600488,None,1147.0504803600488,None,None,,1147.0504803600488,None,1150.0516751803807,None,1150.0516751803807,None,1150.0516751803807,None,1150.0516751803807,None,1150.0516751803807,None,1150.0516751803807,None,1150.0516751803807,None,1154.053196384455,None,1154.053196384455,None,1154.053196384455,None,1154.053196384455,None,1154.053196384455,None,1154.053196384455,None,1154.053196384455,None,1155.0369101574179,None,,,,,,,,,,,,,,,,,,,,,,,,,,,,,,24286,2020_Feb_25_1243,Mmi_3levels,3.1.5,59.97769899057798,
,,,3,1,-1.3,,,,,,,,,0,2,2,2,0,17,17,26,,,,,,,,,,,,,,,,,,,,,,,,,,,,,,,,,,,,,,,,,,,,,,,,,,,,,,,,,,,True,True,False,0.0,-1.0,-10.0,24.0,-1.3,-25.3,-13.3,certain,certain,-13.3,107.44750000000002,1157.054353126674,None,1157.054353126674,None,1157.054353126674,None,1157.054353126674,None,1157.054353126674,None,1157.054353126674,None,1157.054353126674,None,3,2.117785800131969,1157.054353126674,None,1159.2051718378207,None,1159.2051718378207,None,1159.2051718378207,None,1159.2051718378207,None,1159.2051718378207,None,1159.2051718378207,None,1159.2051718378207,None,1163.206736239721,None,1163.206736239721,None,1163.206736239721,None,1163.206736239721,None,1163.206736239721,None,1163.206736239721,None,1163.206736239721,None,1172.693701050419,None,1164.1904884108226,None,1165.1908080748399,None,0.31,7.502816179418005,1168.1919552175677,None,None,1168.1919552175677,None,,,,,,,,,,,,,,,,,,,24286,2020_Feb_25_1243,Mmi_3levels,3.1.5,59.97769899057798,
,,,3,1,-0.7,,,,,,,,,0,2,2,2,0,18,18,0,,,,,,,,,,,,,,,,,,,,,,,,,,,,,,,,,,,,,,,,,,,,,,,,,,,,,,,,,,,True,True,True,0.31,-0.69,-10.69,20.35,-0.7,-21.05,-10.875,certain,certain,-10.875,96.57250000000002,1174.711170258408,None,1174.711170258408,None,1174.711170258408,None,1174.711170258408,None,1174.711170258408,None,1174.711170258408,None,1174.711170258408,None,3,2.401134855346754,1174.711170258408,None,1177.145417380787,None,1177.145417380787,None,1177.145417380787,None,1177.145417380787,None,1177.145417380787,None,1177.145417380787,None,1177.145417380787,None,1181.1468985868269,None,1181.1468985868269,None,1181.1468985868269,None,1181.1468985868269,None,1181.1468985868269,None,1181.1468985868269,None,1181.1468985868269,None,1182.1306507579284,None,,,,,,,,,,,,,,,,,,,,,,,,,,,,,,24286,2020_Feb_25_1243,Mmi_3levels,3.1.5,59.97769899057798,
,,,3,1,6.3,,,,,,,,,0,2,2,2,0,19,19,13,,,,,,,,,,,,,,,,,,,,,,,,,,,,,,,,,,,,,,,,,,,,,,,,,,,,,,,,,,,True,True,True,0.31,-0.69,-11.379999999999999,21.04,6.3,-14.739999999999998,-4.219999999999999,gamble,win,6.3,102.87250000000002,1184.1481474844622,None,1184.1481474844622,None,1184.1481474844622,None,1184.1481474844622,None,1184.1481474844622,None,1184.1481474844622,None,1184.1481474844622,None,1,1.5841493992484175,1184.1481474844622,None,1185.765408510808,None,1185.765408510808,None,1185.765408510808,None,1185.765408510808,None,1185.765408510808,None,1185.765408510808,None,1185.765408510808,None,1189.7669706728193,None,1189.7669706728193,None,1189.7669706728193,None,1189.7669706728193,None,1189.7669706728193,None,1189.7669706728193,None,1189.7669706728193,None,1199.25391692447,None,1190.7505894105998,None,1191.7510601070826,None,0.29,7.502739383256994,1194.7521925305482,None,None,1194.7521925305482,None,,,,,,,,,,,,,,,,,,,24286,2020_Feb_25_1243,Mmi_3levels,3.1.5,59.97769899057798,
,,,3,1,7.9,,,,,,,,,0,2,2,2,0,20,20,9,,,,,,,,,,,,,,,,,,,,,,,,,,,,,,,,,,,,,,,,,,,,,,,,,,,,,,,,,,,True,False,False,0.29,-0.71,-12.09,-3.4924999999999997,7.9,4.407500000000001,2.2037500000000003,gamble,lose,4.407500000000001,107.28000000000002,1201.27138837229,None,1201.27138837229,None,1201.27138837229,None,1201.27138837229,None,1201.27138837229,None,1201.27138837229,None,1201.27138837229,None,1,1.1504820879199542,1201.27138837229,None,1202.455174717703,None,1202.455174717703,None,1202.455174717703,None,1202.455174717703,None,1202.455174717703,None,1202.455174717703,None,1202.455174717703,None,1206.45670424134,None,1206.45670424134,None,1206.45670424134,None,1206.45670424134,None,1206.45670424134,None,1206.45670424134,None,1206.45670424134,None,1207.4404077748186,None,,,,,,,,,,,,,,,,,,,,,,,,,,,,,,24286,2020_Feb_25_1243,Mmi_3levels,3.1.5,59.97769899057798,
,,,3,1,11.7,,,,,,,,,0,2,2,2,0,21,21,10,,,,,,,,,,,,,,,,,,,,,,,,,,,,,,,,,,,,,,,,,,,,,,,,,,,,,,,,,,,True,False,True,0.29,-0.71,-12.8,-3.5516666666666667,11.7,8.148333333333333,4.074166666666667,gamble,lose,8.148333333333333,115.42833333333334,1209.457854263892,None,1209.457854263892,None,1209.457854263892,None,1209.457854263892,None,1209.457854263892,None,1209.457854263892,None,1209.457854263892,None,1,1.534147415368352,1209.457854263892,None,1211.0250931473565,None,1211.0250931473565,None,1211.0250931473565,None,1211.0250931473565,None,1211.0250931473565,None,1211.0250931473565,None,1211.0250931473565,None,1215.0100250995602,None,1215.0100250995602,None,1215.0100250995602,None,1215.0100250995602,None,1215.0100250995602,None,1215.0100250995602,None,1215.0100250995602,None,1216.0103214047267,None,,,,,,,,,,,,,,,,,,,,,,,,,,,,,,24286,2020_Feb_25_1243,Mmi_3levels,3.1.5,59.97769899057798,
,,,3,1,13.7,,,,,,,,,0,2,2,2,0,22,22,24,,,,,,,,,,,,,,,,,,,,,,,,,,,,,,,,,,,,,,,,,,,,,,,,,,,,,,,,,,,True,True,False,0.29,-0.71,-13.510000000000002,23.450000000000003,13.7,-9.750000000000004,1.9749999999999979,gamble,win,13.7,129.12833333333333,1218.0278184512863,None,1218.0278184512863,None,1218.0278184512863,None,1218.0278184512863,None,1218.0278184512863,None,1218.0278184512863,None,1218.0278184512863,None,1,1.384114265034441,1218.0278184512863,None,1219.4450209845672,None,1219.4450209845672,None,1219.4450209845672,None,1219.4450209845672,None,1219.4450209845672,None,1219.4450209845672,None,1219.4450209845672,None,1223.44651051017,None,1223.44651051017,None,1223.44651051017,None,1223.44651051017,None,1223.44651051017,None,1223.44651051017,None,1223.44651051017,None,1232.9335898751742,None,1224.4302866801154,None,1225.4307256981847,None,0.29,7.50318640092155,1228.4318066042033,None,None,1228.4318066042033,None,,,,,,,,,,,,,,,,,,,24286,2020_Feb_25_1243,Mmi_3levels,3.1.5,59.97769899057798,
,,,3,1,-0.1,,,,,,,,,0,2,2,2,0,23,23,19,,,,,,,,,,,,,,,,,,,,,,,,,,,,,,,,,,,,,,,,,,,,,,,,,,,,,,,,,,,True,False,False,0.29,-0.71,-14.220000000000002,-3.67,-0.1,-3.77,-1.935,gamble,lose,-3.77,125.35833333333333,1234.9509381291573,None,1234.9509381291573,None,1234.9509381291573,None,1234.9509381291573,None,1234.9509381291573,None,1234.9509381291573,None,1234.9509381291573,None,None,,1234.9509381291573,None,1237.9521755073802,None,1237.9521755073802,None,1237.9521755073802,None,1237.9521755073802,None,1237.9521755073802,None,1237.9521755073802,None,1237.9521755073802,None,1241.9536899917875,None,1241.9536899917875,None,1241.9536899917875,None,1241.9536899917875,None,1241.9536899917875,None,1241.9536899917875,None,1241.9536899917875,None,1242.93740568473,None,,,,,,,,,,,,,,,,,,,,,,,,,,,,,,24286,2020_Feb_25_1243,Mmi_3levels,3.1.5,59.97769899057798,
,,,3,1,8.7,,,,,,,,,0,2,2,2,0,24,24,16,,,,,,,,,,,,,,,,,,,,,,,,,,,,,,,,,,,,,,,,,,,,,,,,,,,,,,,,,,,True,True,True,0.29,-0.71,-14.930000000000003,24.870000000000005,8.7,-16.170000000000005,-3.735000000000003,gamble,win,8.7,134.05833333333334,1244.9548307348741,None,1244.9548307348741,None,1244.9548307348741,None,1244.9548307348741,None,1244.9548307348741,None,1244.9548307348741,None,1244.9548307348741,None,1,1.9176649102009833,1244.9548307348741,None,1246.9055650341907,None,1246.9055650341907,None,1246.9055650341907,None,1246.9055650341907,None,1246.9055650341907,None,1246.9055650341907,None,1246.9055650341907,None,1250.9071425554575,None,1250.9071425554575,None,1250.9071425554575,None,1250.9071425554575,None,1250.9071425554575,None,1250.9071425554575,None,1250.9071425554575,None,1260.3941422444186,None,1251.8907897718018,None,1252.8912575884024,None,0.27,7.502804020012263,1255.8923948116717,None,None,1255.8923948116717,None,,,,,,,,,,,,,,,,,,,24286,2020_Feb_25_1243,Mmi_3levels,3.1.5,59.97769899057798,
,,,3,1,8.9,,,,,,,,,0,2,2,2,0,25,25,4,,,,,,,,,,,,,,,,,,,,,,,,,,,,,,,,,,,,,,,,,,,,,,,,,,,,,,,,,,,True,False,True,0.27,-0.73,-15.660000000000004,-3.8600000000000003,8.9,5.04,2.52,gamble,lose,5.04,139.09833333333333,1262.4115653746412,None,1262.4115653746412,None,1262.4115653746412,None,1262.4115653746412,None,1262.4115653746412,None,1262.4115653746412,None,1262.4115653746412,None,1,1.5508525014738552,1262.4115653746412,None,1263.9954792656936,None,1263.9954792656936,None,1263.9954792656936,None,1263.9954792656936,None,1263.9954792656936,None,1263.9954792656936,None,1263.9954792656936,None,1267.9803916988312,None,1267.9803916988312,None,1267.9803916988312,None,1267.9803916988312,None,1267.9803916988312,None,1267.9803916988312,None,1267.9803916988312,None,1268.980749120994,None,,,,,,,,,,,,,,,,,,,,,,,,,,,,,,24286,2020_Feb_25_1243,Mmi_3levels,3.1.5,59.97769899057798,
,,,3,1,11.5,,,,,,,,,0,2,2,2,0,26,26,25,,,,,,,,,,,,,,,,,,,,,,,,,,,,,,,,,,,,,,,,,,,,,,,,,,,,,,,,,,,True,False,False,0.27,-0.73,-16.390000000000004,-3.9208333333333334,11.5,7.579166666666667,3.7895833333333333,gamble,lose,7.579166666666667,146.6775,1270.9981424927246,None,1270.9981424927246,None,1270.9981424927246,None,1270.9981424927246,None,1270.9981424927246,None,1270.9981424927246,None,1270.9981424927246,None,1,1.3341874773614109,1270.9981424927246,None,1272.3654348775162,None,1272.3654348775162,None,1272.3654348775162,None,1272.3654348775162,None,1272.3654348775162,None,1272.3654348775162,None,1272.3654348775162,None,1276.3669404023094,None,1276.3669404023094,None,1276.3669404023094,None,1276.3669404023094,None,1276.3669404023094,None,1276.3669404023094,None,1276.3669404023094,None,1285.853860095318,None,1277.350613537361,None,1278.3510547953192,None,0.26,7.5026961854309775,1281.3521747394116,None,None,1281.3521747394116,None,,,,,,,,,,,,,,,,,,,24286,2020_Feb_25_1243,Mmi_3levels,3.1.5,59.97769899057798,
,,,,,,,,,,,,,,,,,,,,,,,,,,,,,,0,0,0,0,,,,,,,,,,,,,,,,,,,,,,,,,,,,,,,,,,,,,,,,,,,,,,,,,,,,,,,,,,,,,,,,,,,,,,,,,,,,,,,,,,,,,,,,,,,,,,,,,,,,,,,,,,,,,,,,,,,,,,,,1287.8546830941923,None,4,1.6842103241942823,1287.8546830941923,None,146.6775,4,1289.5719996058033,None,1289.5719996058033,None,1289.5719996058033,None,4,15.589550729608163,1289.5719996058033,None,24286,2020_Feb_25_1243,Mmi_3levels,3.1.5,59.97769899057798,
