isHappyBlock,isCongruent,isWinOnTop,lastHappyRating,diff,sumDiff,RPE,winAmount,loseAmount,certainAmount,choice,outcome,outcomeAmount,currentWinnings,outcome1Box_started,choiceKey_keys,choiceKey_rt,outcome1Box_2_started,outcome1Box_3_started,fixCross_ITI_started,fixCross_ISI_started,happyText_started,happySlider_response,happySlider_rt,happySlider_started,trial_sample,choice_sample,outcome_sample,happyText_sample,happySlider_sample,fixCross_ITI_sample
True,True,False,0.93,-0.07,-0.07,1.05,4.7,3.65,1.825,gamble,win,4.7,4.7,51.2355670066754,1,1.66757893819886,52.9361400322377,56.9210803522146,57.9214432129374,NaN,NaN,NaN,NaN,NaN,0,0,0,0,0,0
True,True,False,0.93,-0.07,-0.14,1.12,6.5,5.38,2.69,gamble,win,6.5,11.2,59.9388848464296,1,1.26740755530773,61.2393264869752,65.224226489081,66.224618468259,NaN,NaN,NaN,NaN,NaN,0,0,0,0,0,0
True,True,True,0.93,-0.07,-0.21,1.19,3.1,1.91,0.955000000000001,gamble,win,3.1,14.3,68.241997385092,1,1.51755874727678,69.7925403002591,73.7775122985477,83.2810871486436,74.7778914783994,75.7782658585202,0.97,7.50278161223105,78.7793531607604,0,0,0,0,0,0
True,True,True,0.97,-0.03,-0.24,0.66,1.5,0.84,1.17,gamble,win,1.5,15.8,85.2985659001715,1,2.35116022636066,87.6828197286086,91.667672373238,92.6680512331222,NaN,NaN,NaN,NaN,NaN,0,0,0,0,0,0
True,True,True,0.97,-0.03,-0.27,0.69,6.1,5.41,2.705,gamble,win,6.1,21.9,94.6854899867758,1,1.13410807617765,95.852597590012,99.8541264687956,109.341081721737,100.837784936855,101.838213714087,0.97,7.5028043310449,104.839352533585,0,0,0,0,0,0
True,True,True,0.97,-0.03,-0.3,0.72,8.3,7.58,3.79,gamble,win,8.3,30.2,111.358524955154,1,1.56748857500497,112.95912825111,116.943979615797,117.944364555355,NaN,NaN,NaN,NaN,NaN,0,0,0,0,0,0
True,True,False,0.97,-0.03,-0.33,0.75,7.7,6.95,3.475,gamble,win,7.7,37.9,119.961805868865,1,1.03398763458245,121.028879425925,125.013725670884,126.014115090205,NaN,NaN,NaN,NaN,NaN,0,0,0,0,0,0
True,False,False,0.97,-0.03,-0.36,-0.135,10.7,10.565,5.2825,gamble,lose,10.565,48.465,128.031547764185,1,1.2173961319204,129.282025338805,133.283506220148,142.77050787062,134.267264202921,135.267648502515,0.99,7.50275409370079,138.268717245737,0,0,0,0,0,0
True,True,True,0.99,-0.01,-0.37,0.51,3.9,3.39,1.695,gamble,win,3.9,52.365,144.787949824109,1,1.16743238599156,145.988407015815,149.973211023025,150.973637240386,NaN,NaN,NaN,NaN,NaN,0,0,0,0,0,0
True,True,False,0.99,-0.01,-0.38,0.52,0.3,-0.22,0.0399999999999999,gamble,win,0.3,52.665,152.991021916911,1,2.0510776067531,155.075203685177,159.060027211352,168.563684297085,160.060442229311,161.06075581265,0.99,7.50277009286219,164.061953189041,0,0,0,0,0,0
True,True,False,0.99,-0.01,-0.39,0.53,8.7,8.17,4.085,gamble,win,8.7,61.365,170.581117931011,1,1.20072597744002,171.814926951076,175.799778955741,176.800161015446,NaN,NaN,NaN,NaN,NaN,0,0,0,0,0,0
True,True,False,0.99,-0.01,-0.4,0.54,11.9,11.36,5.68,gamble,win,11.9,73.265,178.8175997691,1,0.950428873227793,179.801313914199,183.786156639355,193.289790046343,184.786545418712,185.786929718292,0.98,7.5027816122456,188.787987262112,0,0,0,0,0,0
True,True,True,0.98,-0.02,-0.42,0.7,2.1,1.4,1.75,certain,certain,1.75,75.015,195.307224960212,3,1.51750179030932,196.857818752658,200.842675877051,201.843053776975,NaN,NaN,NaN,NaN,NaN,0,0,0,0,0,0
True,True,False,0.98,-0.02,-0.44,0.72,-0.3,-1.02,-0.66,certain,certain,-0.66,74.355,203.860496690409,3,2.33439695683774,206.228072684782,210.229591004128,211.213296829665,NaN,NaN,NaN,NaN,NaN,0,0,0,0,0,0
True,False,False,0.98,-0.02,-0.46,-0.108333333333333,13.1,12.9916666666667,6.49583333333333,gamble,lose,12.9916666666667,87.3466666666667,213.230733343444,1,1.06713883357588,214.331156808941,218.332680887994,227.819633901046,219.316392793218,220.316773892962,0.97,7.50274481420638,223.317903432966,0,0,0,0,0,0
True,False,True,0.97,-0.03,-0.49,-0.145833333333333,13.3,13.1541666666667,6.57708333333333,gamble,lose,13.1541666666667,100.500833333333,229.837072974682,1,0.967077268855064,230.837456634297,234.82230671907,235.822686218904,NaN,NaN,NaN,NaN,NaN,0,0,0,0,0,0
True,True,True,0.97,-0.03,-0.52,0.940000000000001,7.3,6.36,3.18,gamble,win,7.3,107.800833333333,237.840122412701,1,1.13408695730323,239.007238655482,242.992091620094,252.4957208673,243.992468560071,244.992854779557,0.97,7.50276785297319,247.994006398381,0,0,0,0,0,0
True,True,True,0.97,-0.03,-0.55,0.970000000000001,2.9,1.93,0.965,gamble,win,2.9,110.700833333333,254.513156421133,1,1.16736486958689,255.713615852728,259.698453778139,260.698847677209,NaN,NaN,NaN,NaN,NaN,0,0,0,0,0,0
True,False,True,0.97,-0.03,-0.58,-0.153333333333333,3.5,3.34666666666667,1.67333333333333,gamble,lose,3.34666666666667,114.0475,262.716284190989,1,0.967231180678937,263.716664970751,267.701404341395,268.701900315049,NaN,NaN,NaN,NaN,NaN,0,0,0,0,0,0
True,True,False,0.97,-0.03,-0.61,1.03,0.1,-0.930000000000001,-0.415,gamble,win,0.1,114.1475,270.719295231029,1,2.41769589199976,273.170214318219,277.171791834422,286.658758606747,278.155508539377,279.155873000025,0.96,7.50278769191937,282.157024298867,0,0,0,0,0,0
True,True,True,0.96,-0.04,-0.65,1.21,5.7,4.49,2.245,gamble,win,5.7,119.8475,288.676191920677,1,0.91723831629497,289.626550397646,293.61139728257,294.611789901712,NaN,NaN,NaN,NaN,NaN,0,0,0,0,0,0
True,True,True,0.96,-0.04,-0.69,1.25,9.9,8.65,4.325,gamble,win,9.9,129.7475,296.629224815581,1,1.26740947521466,297.92972437304,301.914568378124,311.418202745073,302.914953957647,303.915289299825,0.96,7.50275409370079,306.916471637029,0,0,0,0,0,0
True,True,False,0.96,-0.04,-0.73,1.29,2.7,1.41,0.705,gamble,win,2.7,132.4475,313.435633499146,1,0.950602623983286,314.419345724353,318.404194209201,319.404551630214,NaN,NaN,NaN,NaN,NaN,0,0,0,0,0,0
True,True,True,0.96,-0.04,-0.77,1.33,11.5,10.17,5.085,gamble,win,11.5,143.9475,321.421970544921,1,0.867296649201307,322.322365915927,326.323907594022,335.810838208272,327.307590380791,328.307974360403,0.96,7.50276145330281,331.309102620464,0,0,0,0,0,0
True,False,False,0.96,-0.04,-0.81,-0.2075,1.3,1.0925,1.19625,gamble,lose,1.0925,145.04,337.828241123832,1,0.917206637983327,338.778590641261,342.76349352322,343.763878142796,NaN,NaN,NaN,NaN,NaN,0,0,0,0,0,0
True,True,True,0.96,-0.04,-0.85,1.41,9.1,7.69,3.845,gamble,win,9.1,154.14,345.781308576887,1,1.30071490601404,347.115155482941,351.099976769226,352.100394347057,NaN,NaN,NaN,NaN,NaN,0,0,0,0,0,0
True,False,False,0.96,-0.04,-0.89,-0.214166666666667,12.3,12.0858333333333,6.04291666666667,gamble,lose,12.0858333333333,166.225833333333,354.117796942621,1,1.63421079072577,355.785108695025,359.7866660523,369.273621945205,360.770317480739,361.770747217903,0.95,7.50283952915925,364.771928595146,0,0,0,0,0,0
False,True,False,0.94,0.94,0.94,-14.1,0.5,-13.6,-6.55,gamble,lose,-13.6,152.625833333333,384.962907250359,1,2.78443417085509,387.780609094043,391.782195249791,392.7659298738,NaN,NaN,NaN,NaN,NaN,0,0,0,0,0,0
False,True,False,0.94,0.94,1.88,-15.04,13.9,-1.14,-0.569999999999999,certain,certain,-0.569999999999999,152.055833333333,394.78329183154,3,2.31785191570816,397.134204711037,401.119100553376,410.622719561128,402.119436535533,403.119826594804,0.89,7.50275377371872,406.120985573245,0,0,0,0,0,0
False,False,False,0.89,0.89,2.77,3.34583333333333,2.575,-0.770833333333333,0.902083333333333,gamble,win,2.575,154.630833333333,412.640162474563,NaN,NaN,415.641266735911,419.642753376931,420.626541758102,NaN,NaN,NaN,NaN,NaN,0,0,0,0,0,0
False,True,True,0.89,0.89,3.66,-16.12,0.1,-16.02,-7.96,certain,certain,-7.96,146.670833333333,422.643935714135,3,2.73462241685775,425.411697490621,429.413187651473,438.900138104655,430.396819560949,431.397323854151,0.92,7.50275057389808,434.398378838116,0,0,0,0,0,0
False,True,True,0.92,0.92,4.58,-17.46,10.1,-7.36,1.37,certain,certain,1.37,148.040833333333,440.917573018523,3,1.784243460992,442.734907521706,446.736462639106,447.720213902241,NaN,NaN,NaN,NaN,NaN,0,0,0,0,0,0
False,False,True,0.92,0.92,5.5,3.67833333333333,1.325,-2.35333333333333,-0.514166666666667,gamble,win,1.325,149.365833333333,449.737581299676,1,2.18444236242794,451.95511790413,455.94001150658,456.940352288482,NaN,NaN,NaN,NaN,NaN,0,0,0,0,0,0
False,True,False,0.92,0.92,6.42,-19.3,10.9,-8.4,1.25,certain,certain,1.25,150.615833333333,458.957788802261,3,1.70094772566517,460.691826290189,464.693302371772,474.180264664334,465.67701715685,466.67740561621,0.95,7.50274929395528,469.678574834106,0,0,0,0,0,0
False,True,True,0.95,0.95,7.37,-20.67,12.5,-8.17,-4.085,gamble,lose,-8.17,142.445833333333,476.197702778023,1,2.85134133674728,479.082130037248,483.08364611672,484.067415298894,NaN,NaN,NaN,NaN,NaN,0,0,0,0,0,0
False,True,True,0.95,0.95,8.32,-21.62,4.3,-17.32,-6.51,certain,certain,-6.51,135.935833333333,486.084808294981,3,1.23406820629316,487.351955384132,491.353477543264,500.840478233789,492.337145290847,493.337572468154,0.93,7.50278577202698,496.338624892247,0,0,0,0,0,0
False,True,True,0.93,0.93,9.25,-22.27,4.9,-17.37,-6.235,certain,certain,-6.235,129.700833333333,502.857865790167,3,1.50082555614063,504.391789108166,508.393352865096,509.377022532557,NaN,NaN,NaN,NaN,NaN,0,0,0,0,0,0
False,False,False,0.93,0.93,10.18,4.10333333333333,2.875,-1.22833333333333,0.823333333333333,gamble,win,2.875,132.575833333333,511.394481125157,1,1.43393150955671,512.861687667144,516.846539031845,517.846913731933,NaN,NaN,NaN,NaN,NaN,0,0,0,0,0,0
False,False,True,0.93,0.93,11.11,4.18083333333333,1.875,-2.30583333333333,-0.215416666666667,certain,certain,-0.215416666666667,132.360416666667,519.864359845204,3,2.21773915369704,522.11517180207,526.100055805029,535.603694971724,527.100491941863,528.100834003693,0.93,7.50291888494394,531.101966743518,0,0,0,0,0,0
False,False,True,0.93,0.93,12.04,4.25833333333333,2.175,-2.08333333333333,0.0458333333333329,certain,certain,0.0458333333333329,132.40625,537.621127645703,3,1.38422087019717,539.038374921525,543.039926519108,544.023614745587,NaN,NaN,NaN,NaN,NaN,0,0,0,0,0,0
False,True,True,0.93,0.93,12.97,-25.99,9.3,-16.69,-3.695,gamble,lose,-16.69,115.71625,546.040969023728,NaN,NaN,549.042156800628,553.043742316411,562.530591015005,554.027391504962,555.027815162452,0.87,7.50275345373666,558.028927743362,0,0,0,0,0,0
False,True,True,0.87,0.87,13.84,-26.02,11.9,-14.12,-1.11,certain,certain,-1.11,114.60625,564.548119683881,3,1.61747727960756,566.198680646077,570.200276081334,571.183934869376,NaN,NaN,NaN,NaN,NaN,0,0,0,0,0,0
False,True,False,0.87,0.87,14.71,-26.89,12.9,-13.99,-0.544999999999998,certain,certain,-0.544999999999998,114.06125,573.201373943011,3,1.56747737560363,574.80198011882,578.803550595389,588.290521207513,579.78720938343,580.7876260013,0.9,7.5028283297579,583.788693144612,0,0,0,0,0,0
False,True,False,0.9,0.9,15.61,-28.21,0.7,-27.51,-13.405,certain,certain,-13.405,100.65625,590.307890524855,3,1.9843691503047,592.325330558437,596.326857197346,597.310566222717,NaN,NaN,NaN,NaN,NaN,0,0,0,0,0,0
False,True,True,0.9,0.9,16.51,-29.11,6.1,-23.01,-8.455,certain,certain,-8.455,92.20125,599.328054573736,3,1.56758840969997,600.928617871818,604.930141310891,605.913887454299,NaN,NaN,NaN,NaN,NaN,0,0,0,0,0,0
False,True,True,0.9,0.9,17.41,-30.01,-0.1,-30.11,-15.105,gamble,lose,-30.11,62.09125,607.931256771641,NaN,NaN,610.932433349139,614.933965747739,624.420957158756,615.917661653817,616.918048833249,0.82,7.50273745458981,619.919219971038,0,0,0,0,0,0
False,True,False,0.82,0.82,18.23,-29.71,6.7,-23.01,-8.155,certain,certain,-8.155,53.93625,626.438347594973,3,1.73429155442864,628.255707376826,632.207212032896,633.190986974776,NaN,NaN,NaN,NaN,NaN,0,0,0,0,0,0
False,False,True,0.82,0.82,19.05,4.4575,2.625,-1.8325,0.39625,gamble,win,2.625,56.56125,635.208360771867,1,1.7509738682711,636.992376724942,640.977264887682,650.480849657266,641.977610789312,642.97797684987,0.91,7.50278993179381,645.979121429074,0,0,0,0,0,0
False,True,True,0.91,0.91,19.96,-32.7,2.7,-30,-13.65,certain,certain,-13.65,42.91125,652.498287130991,3,1.53416234529868,654.065553957771,658.067122834429,659.050752824012,NaN,NaN,NaN,NaN,NaN,0,0,0,0,0,0
False,True,True,0.91,0.91,20.87,-33.61,8.5,-25.11,-8.305,certain,certain,-8.305,34.60625,661.068226775795,3,1.51755202763889,662.618811288747,666.603706811089,676.107339578113,667.604092710593,668.604433172513,0.92,7.50279729141039,671.605564632409,0,0,0,0,0,0
False,True,False,0.92,0.92,21.79,-34.67,0.9,-33.77,-16.435,gamble,lose,-33.77,0.836249999999971,678.124728734401,1,2.61788557791442,680.775692235227,684.777274871158,685.760897501124,NaN,NaN,NaN,NaN,NaN,0,0,0,0,0,0
False,True,True,0.92,0.92,22.71,-35.59,3.1,-32.49,-14.695,certain,certain,-14.695,-13.85875,687.778398971437,3,1.25078923808178,689.062240213796,693.063765892759,694.047474598148,NaN,NaN,NaN,NaN,NaN,0,0,0,0,0,0
False,True,False,0.92,0.92,23.63,-36.51,13.7,-22.81,-4.555,certain,certain,-4.555,-18.41375,696.064919751458,3,2.35093399838661,698.44915086111,702.433959028087,711.93765771162,703.434381725645,704.434809862898,0.93,7.50278833188349,707.435895565228,0,0,0,0,0,0
False,True,True,0.93,0.93,24.56,-37.58,8.3,-29.28,-10.49,certain,certain,-10.49,-28.90375,713.955054547507,3,1.33409009313618,715.322249122124,719.323764881614,720.307488626204,NaN,NaN,NaN,NaN,NaN,0,0,0,0,0,0
True,True,True,0.94,-0.0600000000000001,-0.0600000000000001,0.900000000000001,4.5,3.6,1.8,gamble,win,4.5,-24.40375,759.055533370061,1,1.31753257266246,760.406087868614,764.39096739181,773.894551201432,765.391300494113,766.391756469893,0.94,7.5028020911559,769.392857851388,15850,17471,22253,24654,28255,33678
True,True,False,0.94,-0.0600000000000001,-0.12,0.960000000000001,13.3,12.34,6.17,gamble,win,13.3,-11.10375,775.912063551179,1,1.15064127792721,777.095814750312,781.08065779545,782.081034095463,NaN,NaN,NaN,NaN,NaN,36078,37499,42281,0,0,43502
True,False,True,0.94,-0.0600000000000001,-0.18,-0.225,5.5,5.275,2.6375,gamble,lose,5.275,-5.82875000000003,784.098478608808,1,0.783867160978843,784.915507848214,788.900349613425,789.90075855171,NaN,NaN,NaN,NaN,NaN,45902,46882,51664,0,0,52886
True,True,True,0.94,-0.0600000000000001,-0.24,1.08,11.5,10.42,5.21,gamble,win,11.5,5.67124999999997,791.918123069307,1,0.93398366679321,792.885210257635,796.886692738874,806.373606074048,797.870467680754,798.870826701677,0.93,7.50288432677917,801.871869206312,55286,56446,61248,63629,67230,72653
True,True,False,0.93,-0.07,-0.31,1.29,2.1,0.81,1.455,gamble,win,2.1,7.77124999999997,808.391090265286,1,1.63420439106994,810.058396257984,814.059841621216,815.043663280609,NaN,NaN,NaN,NaN,NaN,75053,77054,81856,0,0,83058
True,True,True,0.93,-0.07,-0.38,1.36,4.7,3.34,1.67,gamble,win,4.7,12.47125,817.06105691666,1,0.967354374137358,818.06143737644,822.046316579654,831.549920228237,823.046672080774,824.047056380368,0.95,7.50270449633535,827.048152002157,85458,86658,91440,93841,97442,102865
True,True,False,0.95,-0.05,-0.43,1.13,13.1,11.97,5.985,gamble,win,13.1,25.57125,833.567366981457,1,1.08393762123887,834.684423163446,838.669297566914,839.669721224403,NaN,NaN,NaN,NaN,NaN,105265,106606,111388,0,0,112609
True,True,False,0.95,-0.05,-0.48,1.18,9.7,8.52,4.26,gamble,win,9.7,35.27125,841.687112620581,1,0.983964371815091,842.704152995386,846.689025798943,856.192645766656,847.68940497881,848.689823516572,0.96,7.50277329268283,851.690967455812,115009,116230,121011,123412,127014,132437
True,True,True,0.96,-0.04,-0.52,1.08,8.1,7.02,3.51,gamble,win,8.1,43.37125,858.210093479836,1,1.28404955129372,859.527251032428,863.512091197714,864.512486376727,NaN,NaN,NaN,NaN,NaN,134837,136417,141199,0,0,142421
True,True,True,0.96,-0.04,-0.56,1.12,0.3,-0.820000000000001,-0.26,certain,certain,-0.26,43.11125,866.52997696762,3,2.53449224776705,869.097570497048,873.099100975756,874.082789522217,NaN,NaN,NaN,NaN,NaN,144821,147902,152704,0,0,153905
True,True,True,0.96,-0.04,-0.6,1.16,3.7,2.54,1.27,gamble,win,3.7,46.81125,876.100221556233,1,2.13425526836363,878.267719538737,882.252577303094,891.756218709663,883.252968642308,884.253436457453,0.96,7.50274289429944,887.2544917614,156305,158906,163688,166089,169691,175114
True,True,False,0.96,-0.04,-0.64,1.2,2.3,1.1,1.7,gamble,win,2.3,49.11125,893.773657463316,1,1.23405156718218,895.040804552453,899.025697834935,900.026036696931,NaN,NaN,NaN,NaN,NaN,177514,179034,183816,0,0,185037
True,False,False,0.96,-0.04,-0.68,-0.196666666666667,-0.9,-1.09666666666667,-0.998333333333334,gamble,lose,-1.09666666666667,48.0145833333333,902.043434172781,1,2.76799728399783,904.844550657464,908.846061617209,918.332988711642,909.829772562472,910.830139902959,0.95,7.50275281377253,913.831327679873,187437,190799,195601,197982,201583,207006
True,True,True,0.95,-0.05,-0.73,1.43,6.9,5.47,2.735,gamble,win,6.9,54.9145833333333,920.350455623789,1,1.20071797785931,921.584249924636,925.585822641093,926.569493588497,NaN,NaN,NaN,NaN,NaN,209406,210887,215689,0,0,216890
True,True,True,0.95,-0.05,-0.78,1.48,6.3,4.82,2.41,gamble,win,6.3,61.2145833333333,928.586932022168,1,1.16736550953647,929.787380894326,933.788969289948,934.772657516427,NaN,NaN,NaN,NaN,NaN,219290,220731,225532,0,0,226734
True,True,False,0.95,-0.05,-0.830000000000001,1.53,4.1,2.57,1.285,gamble,win,4.1,65.3145833333333,936.79001211455,1,1.33413777060923,938.157240607383,942.142100611614,951.645767296839,943.142484911194,944.142857371407,0.96,7.50275281377253,947.143965152572,229134,230775,235556,237957,241559,246982
True,True,False,0.96,-0.04,-0.870000000000001,1.43,6.5,5.07,2.535,gamble,win,6.5,71.8145833333333,953.66316477269,1,0.933939509137417,954.630201403692,958.631786279511,959.615424588643,NaN,NaN,NaN,NaN,NaN,249382,250542,255344,0,0,256546
True,False,False,0.96,-0.04,-0.910000000000001,-0.215833333333333,5.7,5.48416666666667,2.74208333333333,gamble,lose,5.48416666666667,77.29875,961.63286782206,1,0.917269034660421,962.583224059141,966.568079583609,976.071711070705,967.568458443478,968.568847542818,0.95,7.50286896759644,971.570012600932,258946,260086,264868,267269,270870,276293
True,True,False,0.95,-0.05,-0.960000000000001,1.66,5.9,4.24,2.12,gamble,win,5.9,83.19875,978.089121025885,1,1.21722782085999,979.339614919649,983.324476523805,984.324846104166,NaN,NaN,NaN,NaN,NaN,278693,280194,284976,0,0,286197
True,False,True,0.95,-0.05,-1.01,-0.259166666666667,11.7,11.4408333333333,5.72041666666667,gamble,lose,11.4408333333333,94.6395833333333,986.3422928574,1,1.01730468077585,987.392691780216,991.377539625086,1000.8811707922,992.377921044827,993.378348862112,0.97,7.50277105279383,996.379433284499,288597,289858,294640,297041,300642,306065
True,True,False,0.97,-0.03,-1.04,1.46,3.5,2.04,1.02,gamble,win,3.5,98.1395833333333,1002.89860282622,1,0.917271914513549,1003.84896066321,1007.83381682765,1008.83420400709,NaN,NaN,NaN,NaN,NaN,308465,309605,314387,0,0,315609
True,False,False,0.97,-0.03,-1.07,-0.194166666666667,3.3,3.10583333333333,1.55291666666667,gamble,lose,3.10583333333333,101.245416666667,1010.85165332018,1,0.700488550050068,1011.56857043754,1015.57010027627,1016.57048649575,NaN,NaN,NaN,NaN,NaN,318009,318869,323671,0,0,324892
True,True,True,0.97,-0.03,-1.1,1.52,1.7,0.179999999999999,0.939999999999999,gamble,win,1.7,102.945416666667,1018.58792300953,1,0.900593760467018,1019.52166572912,1023.50646653649,1033.01008778413,1024.50688379433,1025.5072306559,0.96,7.50286928757851,1028.50827988017,327292,328413,333195,335596,339197,344620
True,False,True,0.96,-0.04,-1.14,-0.235,5.1,4.865,2.4325,gamble,lose,4.865,107.810416666667,1035.02752269799,1,1.51750307023758,1036.57811521052,1040.57968088734,1041.56333679555,NaN,NaN,NaN,NaN,NaN,347020,348881,353683,0,0,354884
True,False,True,0.96,-0.04,-1.18,-0.238333333333334,3.9,3.66166666666667,1.83083333333333,gamble,lose,3.66166666666667,111.472083333333,1043.58084626544,1,1.10060905564751,1044.6978819685,1048.69932061208,1058.20308329222,1049.69978394748,1050.7001580076,0.98,7.50269457686227,1053.70129682712,357284,358625,363427,365827,369429,374852
True,True,False,0.98,-0.02,-1.2,1.48,1.5,0.0199999999999989,0.759999999999999,certain,certain,0.759999999999999,112.232083333333,1060.22046572885,3,1.8010025707481,1062.05446302693,1066.03940238694,1067.0397383691,NaN,NaN,NaN,NaN,NaN,377252,379453,384235,0,0,385456
True,False,True,0.98,-0.02,-1.22,-0.171666666666667,2.9,2.72833333333333,1.36416666666667,gamble,lose,2.72833333333333,114.960416666667,1069.05717200303,1,1.35076824719727,1070.44103385227,1074.42590793577,1083.94613886109,1075.42626919659,1076.4266528562,0.98,7.51942584809149,1079.42777791644,387856,389517,394299,396700,400301,405724
