lifeHappySlider_response,blockHappySlider_response,isHappyBlock,isCongruent,isWinOnTop,lastHappyRating,diff,sumDiff,RPE,winAmount,loseAmount,certainAmount,choice,outcome,outcomeAmount,currentWinnings,outcome1Box_started,choiceKey_keys,choiceKey_rt,outcome1Box_2_started,outcome1Box_3_started,fixCross_ITI_started,fixCross_ISI_started,happyText_started,happySlider_response,happySlider_rt,happySlider_started,trial_sample,choice_sample,outcome_sample,happyText_sample,happySlider_sample,fixCross_ITI_sample
0.72,0.78,True,True,True,0.78,-0.22,-0.22,3.3,8.5,5.2,2.6,gamble,win,8.5,8.5,117.963606837904,1,2.9013424848672,120.898037709761,124.882928156061,125.883331013378,NaN,NaN,NaN,NaN,NaN,14440,17961,22743,0,0,23965
NaN,NaN,True,False,True,0.78,-0.22,-0.44,-0.806666666666667,4.7,3.89333333333333,1.94666666666667,gamble,lose,3.89333333333333,12.3933333333333,127.900703160558,1,1.73422992322594,129.668039069744,133.669573383871,134.653245658148,NaN,NaN,NaN,NaN,NaN,26365,28485,33287,0,0,34489
NaN,NaN,True,True,False,0.78,-0.22,-0.66,3.74,12.7,8.96,4.48,gamble,win,12.7,25.0933333333333,136.670691401232,1,2.0843805547338,138.78816610272,142.789735294878,152.276589310961,143.773439567303,144.773763389327,0.75,7.5027590454556,147.774885566439,36889,39430,44232,46613,50214,55637
NaN,NaN,True,True,True,0.75,-0.25,-0.91,4.41,4.1,-0.31,1.895,gamble,win,4.1,29.1933333333333,154.29407953145,1,2.55118577345274,156.87835945189,160.879920964362,161.863622997189,NaN,NaN,NaN,NaN,NaN,58037,61138,65940,0,0,67141
NaN,NaN,True,True,False,0.75,-0.25,-1.16,4.66,2.9,-1.76,0.57,gamble,win,2.9,32.0933333333333,163.881049221149,NaN,NaN,166.882139720256,170.86699336837,180.370579887414,171.867407105165,172.867732526967,0.76,7.50284480070695,175.868912300793,69541,73143,77925,80326,83928,89350
NaN,NaN,True,True,False,0.76,-0.24,-1.4,4.76,7.3,2.54,1.27,gamble,win,7.3,39.3933333333333,182.387994272402,1,1.88436711532995,184.305400497513,188.29023974645,189.290619245265,NaN,NaN,NaN,NaN,NaN,91750,94051,98833,0,0,100055
NaN,NaN,True,False,True,0.76,-0.24,-1.64,-0.976666666666667,-0.9,-1.87666666666667,-1.38833333333333,gamble,lose,-1.87666666666667,37.5166666666667,191.308037149953,NaN,NaN,194.309188125422,198.310704520438,199.294467669679,NaN,NaN,NaN,NaN,NaN,102455,106056,110858,0,0,112059
NaN,NaN,True,False,True,0.76,-0.24,-1.88,-0.996666666666667,11.5,10.5033333333333,5.25166666666667,gamble,lose,10.5033333333333,48.02,201.31184077682,1,1.85098306485452,203.195929507958,207.197405585321,216.684380874736,208.181159135187,209.181529994356,0.74,7.50277792452835,212.182631052565,114459,116720,121522,123903,127505,132927
NaN,NaN,True,True,True,0.74,-0.26,-2.14,5.78,12.3,6.52,3.26,gamble,win,12.3,60.32,218.701814138331,1,1.36747350147925,220.102289311821,224.087176558096,225.087528858334,NaN,NaN,NaN,NaN,NaN,135327,137008,141790,0,0,143012
NaN,NaN,True,True,True,0.74,-0.26,-2.4,6.04,-1.1,-7.14,-4.12,certain,certain,-4.12,56.2,227.104934923584,3,2.85132896550931,229.989351956174,233.990923388163,243.477808122756,234.974641740089,235.974963641958,0.74,7.50276320520788,238.976141816005,145412,148873,153674,156055,159657,165080
NaN,NaN,True,True,False,0.74,-0.26,-2.66,6.3,12.1,5.8,2.9,gamble,win,12.1,68.3,245.495243946323,1,1.93445071065798,247.462654731236,251.46416664659,252.447921476327,NaN,NaN,NaN,NaN,NaN,167480,169841,174643,0,0,175844
NaN,NaN,True,True,True,0.74,-0.26,-2.92,6.56,2.1,-4.46,-1.18,gamble,win,2.1,70.4,254.465303862933,NaN,NaN,257.466486196732,261.467999391956,270.954862687737,262.451656627236,263.452043165453,0.78,7.50283456128091,266.453158303164,178244,181846,186648,189029,192630,198053
NaN,NaN,True,True,True,0.78,-0.22,-3.14,6.22,10.5,4.28,2.14,gamble,win,10.5,80.9,272.97235994786,1,1.30069580115378,274.306146375835,278.290994904237,279.291367363418,NaN,NaN,NaN,NaN,NaN,200453,202054,206835,0,0,208117
NaN,NaN,True,True,True,0.78,-0.22,-3.36,6.44,5.7,-0.739999999999998,-0.369999999999999,gamble,win,5.7,86.6,281.358807746787,1,1.83434783644043,283.226245570229,287.227757805493,288.211464317981,NaN,NaN,NaN,NaN,NaN,210517,212758,217559,0,0,218761
NaN,NaN,True,True,False,0.78,-0.22,-3.58,6.66,6.1,-0.559999999999999,-0.279999999999999,gamble,win,6.1,92.7,290.22888318263,1,2.26779364352114,292.529753373703,296.53123425087,306.01815162343,297.514941403177,298.515293063596,0.78,7.50269792904146,301.516437319573,221161,223922,228724,231105,234706,240129
NaN,NaN,True,True,False,0.78,-0.22,-3.8,6.88,11.9,5.02,2.51,gamble,win,11.9,104.6,308.03563992423,1,1.41728031216189,309.486180133885,313.470971065573,314.471406881232,NaN,NaN,NaN,NaN,NaN,242529,244270,249052,0,0,250273
NaN,NaN,True,True,False,0.78,-0.22,-4.02,7.1,13.9,6.8,3.4,gamble,win,13.9,118.5,316.488780308282,1,0.900602046400309,317.422472341452,321.42403993383,330.910962746013,322.407739406684,323.408068028279,0.73,7.50296255410649,326.409229243174,252673,253794,258596,260976,264578,270001
NaN,NaN,True,True,True,0.73,-0.27,-4.29,8.07,2.7,-5.37,-1.335,certain,certain,-1.335,117.165,332.928387370193,3,2.50114697567187,335.462609933922,339.447422624333,340.447852040175,NaN,NaN,NaN,NaN,NaN,272401,275442,280224,0,0,281446
NaN,NaN,True,False,True,0.73,-0.27,-4.56,-1.325,-1.5,-2.825,-2.1625,gamble,lose,-2.825,114.34,342.465307702776,NaN,NaN,345.466390522197,349.4679379554,350.451639668085,NaN,NaN,NaN,NaN,NaN,283846,287447,292249,0,0,293450
NaN,NaN,True,True,True,0.73,-0.27,-4.83,8.61,1.5,-7.11,-2.805,certain,certain,-2.805,111.535,352.469111649785,3,2.0509606662672,354.553167742677,358.554788451875,368.041652387474,359.538434807677,360.538797987392,0.72,7.50291071692482,363.539924964076,295850,298352,303153,305534,309135,314559
NaN,NaN,True,False,False,0.72,-0.28,-5.11,-1.40583333333333,9.9,8.49416666666667,4.24708333333333,gamble,lose,8.49416666666667,120.029166666667,370.059086611029,1,1.15049205254763,371.242885278305,375.244382794481,376.228142104112,NaN,NaN,NaN,NaN,NaN,316959,318379,323181,0,0,324383
NaN,NaN,True,True,False,0.72,-0.28,-5.39,9.31,0.9,-8.41,-3.755,gamble,win,0.9,120.929166666667,378.24549601227,NaN,NaN,381.246675466187,385.231521754758,394.735042357584,386.231872135075,387.232255793642,0.8,7.50265921093524,390.233319094172,326783,330384,335166,337567,341168,346591
NaN,NaN,True,True,False,0.8,-0.2,-5.59,8.39,6.5,-1.89,-0.944999999999999,gamble,win,6.5,127.429166666667,396.75252361875,1,1.73423792258836,398.519810250495,402.504645659821,403.505028038519,NaN,NaN,NaN,NaN,NaN,348991,351112,355894,0,0,357116
NaN,NaN,True,True,True,0.8,-0.2,-5.79,8.59,0.7,-7.89,-3.595,gamble,win,0.7,128.129166666667,405.52245490253,NaN,NaN,408.523642675951,412.508442887105,422.012086683186,413.508815346286,414.509193245089,0.77,7.50301503110677,417.510366619565,359516,363117,367898,370299,373901,379324
NaN,NaN,True,True,True,0.77,-0.23,-6.02,9.24,10.3,1.06,0.530000000000001,gamble,win,10.3,138.429166666667,424.02951866691,1,1.18380186706781,425.246589070885,429.231485276716,430.23186381557,NaN,NaN,NaN,NaN,NaN,381724,383184,387966,0,0,389188
NaN,NaN,True,False,False,0.77,-0.23,-6.25,-1.32583333333333,6.3,4.97416666666667,2.48708333333333,gamble,lose,4.97416666666667,143.403333333333,432.24928619992,1,1.31737006735057,433.599758093478,437.584594462765,438.584967241855,NaN,NaN,NaN,NaN,NaN,391588,393208,397990,0,0,399212
NaN,NaN,True,True,False,0.77,-0.23,-6.48,9.7,1.9,-7.8,-2.95,certain,certain,-2.95,140.453333333333,440.602404665435,3,2.15112721687183,442.786611309741,446.788108825916,456.275018519023,447.771781420335,448.772161878878,0.74,7.50280352286063,451.773336533224,401612,404233,409035,411416,415017,420420
NaN,0.7,False,False,True,0.7,0.7,0.7,2.50833333333333,3.125,0.616666666666667,1.87083333333333,gamble,win,3.125,143.578333333333,477.166264609201,1,1.68424424226396,478.883615477476,482.868454406504,483.86888862215,NaN,NaN,NaN,NaN,NaN,445489,447550,452332,0,0,453553
NaN,NaN,False,True,True,0.7,0.7,1.4,-11.2,12.9,1.7,0.850000000000001,gamble,lose,1.7,145.278333333333,485.886268128874,1,1.5174967800267,487.436799219111,491.438340572873,500.925230427179,492.422036845936,493.42244898295,0.76,7.50271488795988,496.423529562308,455953,457814,462616,464997,468598,474021
NaN,NaN,False,False,False,0.76,0.76,2.16,2.84,0.725,-2.115,-0.695,gamble,win,0.725,146.003333333333,502.942695049103,1,2.05105506093241,505.02679433953,509.028323533945,510.012062044581,NaN,NaN,NaN,NaN,NaN,476421,478922,483724,0,0,484925
NaN,NaN,False,True,True,0.76,0.76,2.92,-13.56,12.1,-1.46,-0.73,gamble,lose,-1.46,144.543333333333,512.029441871215,1,1.70089226984419,513.763429887826,517.764945643023,527.251916772686,518.748695353046,519.749078691471,0.71,7.50272480747662,522.750149991596,487325,489406,494208,496589,500190,505614
NaN,NaN,False,True,False,0.71,0.71,3.63,-13.57,9.9,-3.67,-1.835,gamble,lose,-3.67,140.873333333333,529.269365395419,1,1.86740390537307,531.170073355781,535.171535354108,536.155241226545,NaN,NaN,NaN,NaN,NaN,508014,510295,515096,0,0,516298
NaN,NaN,False,False,True,0.71,0.71,4.34,2.84666666666667,2.425,-0.421666666666667,1.00166666666667,certain,certain,1.00166666666667,141.875,538.172669050517,3,1.73430063901469,539.940055516781,543.924874926917,544.925220827572,NaN,NaN,NaN,NaN,NaN,518698,520819,525600,0,0,526822
NaN,NaN,False,False,False,0.71,0.71,5.05,2.90583333333333,0.575,-2.33083333333333,-0.877916666666667,certain,certain,-0.877916666666667,140.997083333333,546.942712008022,3,1.86769732879475,548.843442687299,552.828217619797,562.331812778488,553.828646075912,554.829026534455,0.76,7.5026857694611,557.830109033966,529222,531503,536285,538686,542287,547710
NaN,NaN,False,True,True,0.76,0.76,5.81,-16.45,7.9,-8.55,-0.324999999999999,certain,certain,-0.324999999999999,140.672083333333,564.349297879264,3,1.66734630870633,566.049923924264,570.051447998965,571.035107474076,NaN,NaN,NaN,NaN,NaN,550110,552151,556953,0,0,558154
NaN,NaN,False,True,False,0.76,0.76,6.57,-17.21,2.7,-14.51,-5.905,certain,certain,-5.905,134.767083333333,573.052586175269,3,2.20108729903586,575.286742982455,579.288230899023,588.775159791112,580.271988608642,581.272365867393,0.75,7.50269088940695,584.273452526657,560554,563235,568037,570418,574020,579442
NaN,NaN,False,False,False,0.75,0.75,7.32,3.235,2.075,-1.16,0.4575,certain,certain,0.4575,135.224583333333,590.792584415292,3,1.50084267277271,592.326523154741,596.311388642294,597.311718543759,NaN,NaN,NaN,NaN,NaN,581842,583683,588465,0,0,589686
NaN,NaN,False,True,False,0.75,0.75,8.07,-18.57,-1.1,-19.67,-10.385,certain,certain,-10.385,124.839583333333,599.329240762396,3,1.78420984419063,601.146561392583,605.148062748369,606.131775340531,NaN,NaN,NaN,NaN,NaN,592086,594267,599069,0,0,600271
NaN,NaN,False,True,False,0.75,0.75,8.82,-19.32,1.5,-17.82,-8.16,certain,certain,-8.16,116.679583333333,608.149207324488,3,1.76753365807235,609.949871287216,613.951364003588,623.438273056643,614.935079475632,615.935427936027,0.73,7.50279840338044,618.936552993022,602671,604831,609633,612014,615615,621039
NaN,NaN,False,True,False,0.73,0.73,9.55,-19.77,-1.5,-21.27,-11.385,certain,certain,-11.385,105.294583333333,625.455704080639,3,2.38453462603502,627.873313014396,631.874848928535,632.858560560504,NaN,NaN,NaN,NaN,NaN,623439,626340,631142,0,0,632343
NaN,NaN,False,True,True,0.73,0.73,10.28,-20.5,1.1,-19.4,-9.15,certain,certain,-9.15,96.1445833333334,634.875995744253,3,1.95097234565765,636.860077915713,640.861534794094,650.348450566642,641.845355859958,642.845620165346,0.77,7.50276032532565,645.846769860946,634743,637124,641926,644307,647908,653332
NaN,NaN,False,True,False,0.77,0.77,11.05,-21.83,7.5,-14.33,-3.415,gamble,lose,-14.33,81.8145833333334,652.365885750391,1,1.700953386724,654.099951522658,658.101397201652,659.085110113723,NaN,NaN,NaN,NaN,NaN,655732,657812,662614,0,0,663815
NaN,NaN,False,False,True,0.77,0.77,11.82,3.68,3.375,-0.305,1.535,gamble,win,3.375,85.1895833333334,661.102554576937,1,2.11775052594021,663.253377810819,667.254927164176,676.74178086035,668.238638156326,669.238938299473,0.74,7.50268768961541,672.240090554813,666215,668796,673598,675979,679581,685004
NaN,NaN,False,False,True,0.74,0.74,12.56,3.63666666666667,1.525,-2.11166666666667,-0.293333333333333,gamble,win,1.525,86.7145833333334,678.759210284101,1,1.68422888312489,680.476525954437,684.478042349685,685.461747582071,NaN,NaN,NaN,NaN,NaN,687404,689465,694267,0,0,695468
NaN,NaN,False,True,False,0.74,0.74,13.3,-23.66,6.7,-16.96,-5.13,certain,certain,-5.13,81.5845833333334,687.479172206251,3,2.58438007463701,690.096936651506,694.098346812651,695.082085323287,NaN,NaN,NaN,NaN,NaN,697868,701009,705811,0,0,707012
NaN,NaN,False,True,False,0.74,0.74,14.04,-24.4,3.7,-20.7,-8.5,gamble,lose,-20.7,60.8845833333334,697.099495228147,1,2.13443055190146,699.266970649594,703.26853600191,712.755459774286,704.252309390577,705.252569216071,0.66,7.50282176188193,708.253749629948,709412,712013,716815,719196,722797,728221
NaN,NaN,False,False,False,0.66,0.66,14.7,3.535,2.825,-0.71,1.0575,certain,certain,1.0575,61.9420833333334,714.772892398061,3,1.73430703859776,716.540203668643,720.525017319014,721.525404497283,NaN,NaN,NaN,NaN,NaN,730621,732741,737524,0,0,738745
NaN,NaN,False,True,False,0.66,0.66,15.36,-24.6,13.7,-10.9,1.4,certain,certain,1.4,63.3420833333334,723.542877758853,3,1.91764237196185,725.493568520062,729.49513771222,738.982000048039,730.4787821481,731.479212844046,0.69,7.50270400871523,734.480341740884,741145,743486,748288,750669,754270,759693
NaN,NaN,False,True,True,0.69,0.69,16.05,-25.71,0.3,-25.41,-12.555,gamble,lose,-25.41,37.9320833333334,740.999481629115,1,1.85090562934056,742.883503483841,746.88511139364,747.868718711659,NaN,NaN,NaN,NaN,NaN,762093,764354,769156,0,0,770357
NaN,NaN,False,False,True,0.69,0.69,16.74,3.81,1.275,-2.535,-0.63,certain,certain,-0.63,37.3020833333334,749.886133416556,3,1.75091506890021,751.670135592343,755.671754381852,765.158616077388,756.655362019781,757.655793035636,0.73,7.50271008838899,760.656892494066,772757,774898,779700,782081,785682,791105
NaN,NaN,False,True,True,0.73,0.73,17.47,-27.69,0.7,-26.99,-13.145,certain,certain,-13.145,24.1570833333334,767.176057660719,3,1.98428152035922,769.193441327196,773.194998360006,774.178658795077,NaN,NaN,NaN,NaN,NaN,793505,795927,800728,0,0,801930
NaN,NaN,False,True,True,0.73,0.73,18.2,-28.42,5.9,-22.52,-8.31,certain,certain,-8.31,15.8470833333334,776.196114137536,3,1.81762653286569,778.046845056582,782.048354092054,783.032009727322,NaN,NaN,NaN,NaN,NaN,804330,806551,811352,0,0,812554
NaN,NaN,False,True,True,0.73,0.73,18.93,-29.15,10.1,-19.05,-4.475,certain,certain,-4.475,11.3720833333334,785.049434991553,3,1.45079395547509,786.533373971004,790.534888446331,800.021825337783,791.518604558194,792.518984056776,0.73,7.50273728673346,795.520088634919,814954,816735,821536,823917,827519,832942
NaN,NaN,False,True,True,0.73,0.73,19.66,-29.88,12.7,-17.18,-2.24,gamble,lose,-17.18,-5.80791666666663,802.039252521936,1,2.85132736572996,804.923684593756,808.925197468838,809.908924780088,NaN,NaN,NaN,NaN,NaN,835342,838803,843605,0,0,844787
NaN,0.72,True,True,False,0.72,-0.28,-0.28,4.2,11.1,6.9,3.45,gamble,win,11.1,5.29208333333337,830.516711864155,1,1.28404585341923,831.833869463298,835.835351620335,845.322306430899,836.81908693118,837.819416192593,0.73,7.50277280458249,840.820539969718,869515,871096,875898,878279,881880,887303
NaN,NaN,True,False,False,0.73,-0.27,-0.55,-0.990833333333333,3.9,2.90916666666667,1.45458333333333,gamble,lose,2.90916666666667,8.20125000000003,847.339711216046,1,1.35076627717353,848.723567480221,852.708437447436,853.708790067816,NaN,NaN,NaN,NaN,NaN,889703,891364,896146,0,0,897367
NaN,NaN,True,False,False,0.73,-0.27,-0.82,-1.01333333333333,7.9,6.88666666666667,3.44333333333333,gamble,lose,6.88666666666667,15.0879166666667,855.726244450314,1,1.71753229829483,857.476852976251,861.461743102409,862.462073963834,NaN,NaN,NaN,NaN,NaN,899767,901868,906650,0,0,907871
NaN,NaN,True,True,True,0.73,-0.27,-1.09,4.87,3.3,-1.57,0.865,certain,certain,0.865,15.9529166666667,864.479562584544,3,2.0676899694372,866.580302543007,870.581868535373,880.068716471782,871.565517450916,872.565948786912,0.73,7.50253793783486,875.567066804273,910271,912792,917594,919975,923577,928999
NaN,NaN,True,False,True,0.73,-0.27,-1.36,-1.05833333333333,7.1,6.04166666666667,3.02083333333333,gamble,lose,6.04166666666667,21.9945833333334,882.08616701467,1,1.80104538146406,883.920257905498,887.905087874969,888.905435375636,NaN,NaN,NaN,NaN,NaN,931399,933600,938382,0,0,939604
NaN,NaN,True,False,True,0.73,-0.27,-1.63,-1.08083333333333,1.5,0.419166666666667,0.959583333333333,gamble,lose,0.419166666666667,22.41375,890.922870559152,1,1.36744406307116,892.323401409434,896.30820226064,905.811839017086,897.308646075893,898.309028774267,0.74,7.50291775655933,901.310117033543,942004,943685,948466,950867,954468,959892
NaN,NaN,True,False,True,0.74,-0.26,-1.89,-1.0675,8.1,7.0325,3.51625,gamble,lose,7.0325,29.44625,907.829301399179,NaN,NaN,910.830493972404,914.832012287341,915.815657363273,NaN,NaN,NaN,NaN,NaN,962292,965893,970695,0,0,971896
NaN,NaN,True,True,False,0.74,-0.26,-2.15,5.79,0.5,-5.29,-2.395,certain,certain,-2.395,27.05125,917.833033990115,3,2.21761277364567,920.083925540093,924.085445135133,933.572323150001,925.069105250062,926.069493708434,0.7,7.5027196877636,929.070632524556,974296,976998,981800,984181,987782,993205
NaN,NaN,True,False,False,0.7,-0.3,-2.45,-1.25416666666667,-0.5,-1.75416666666667,-1.12708333333333,certain,certain,-1.12708333333333,25.9241666666667,935.589804091025,3,2.30112009728327,937.924029534217,941.92548929248,942.909191325307,NaN,NaN,NaN,NaN,NaN,995605,998405,1003208,0,0,1004409
NaN,NaN,True,True,True,0.7,-0.3,-2.75,6.95,-0.1,-7.05,-3.575,gamble,win,-0.1,25.8241666666667,944.926671946421,NaN,NaN,947.927797643235,951.929276280571,952.91305382899,NaN,NaN,NaN,NaN,NaN,1006809,1010411,1015212,0,0,1016414
NaN,NaN,True,True,True,0.7,-0.3,-3.05,7.25,4.7,-2.55,1.075,gamble,win,4.7,30.5241666666667,954.930460534291,1,1.53417648607865,956.497721887659,960.482572975801,969.98616269487,961.482891998021,962.483266697032,0.74,7.50278304424137,965.484391113976,1018814,1020695,1025477,1027878,1031479,1036902
NaN,NaN,True,True,True,0.74,-0.26,-3.31,6.95,11.3,4.35,2.175,gamble,win,11.3,41.8241666666667,972.003533882089,1,1.21739262598567,973.254016175168,977.238853824092,978.239281960297,NaN,NaN,NaN,NaN,NaN,1039302,1040802,1045584,0,0,1046806
NaN,NaN,True,True,False,0.74,-0.26,-3.57,7.21,10.9,3.69,1.845,gamble,win,10.9,52.7241666666667,980.256727703148,1,1.70085931173526,981.990651403554,985.992182517657,995.479087731102,986.975876550889,987.976345964707,0.67,7.50271360808983,990.977392625995,1049206,1051287,1056089,1058469,1062071,1067494
NaN,NaN,True,True,True,0.67,-0.33,-3.9,8.52,0.7,-7.82,-3.56,certain,certain,-3.56,49.1641666666667,997.496575071709,3,2.46767653012648,999.997519498924,1003.9990416537,1004.98273888649,NaN,NaN,NaN,NaN,NaN,1069894,1072895,1077697,0,0,1078899
NaN,NaN,True,True,True,0.67,-0.33,-4.23,8.85,12.5,3.65,1.825,gamble,win,12.5,61.6641666666667,1007.00012095319,1,1.95111473742872,1008.9842562417,1012.9857102402,1013.96947786934,NaN,NaN,NaN,NaN,NaN,1081299,1083679,1088481,0,0,1089683
NaN,NaN,True,True,True,0.67,-0.33,-4.56,9.18,1.1,-8.08,-3.49,gamble,win,1.1,62.7641666666667,1015.98685193621,1,2.73465965921059,1018.75459134276,1022.75607925956,1032.24305966869,1023.73978641187,1024.74016431067,0.72,7.50281088240445,1027.74126472906,1092083,1095404,1100206,1102587,1106188,1111611
NaN,NaN,True,False,True,0.72,-0.28,-4.84,-1.38333333333333,11.9,10.5166666666667,5.25833333333333,gamble,lose,10.5166666666667,73.2808333333334,1034.26050573168,1,1.06728711212054,1035.36087899073,1039.3624369835,1040.3460785395,NaN,NaN,NaN,NaN,NaN,1114011,1115332,1120133,0,0,1121335
NaN,NaN,True,True,False,0.72,-0.28,-5.12,9.04,6.5,-2.54,1.98,gamble,win,6.5,79.7808333333334,1042.36353260209,1,1.7676104537677,1044.16418600548,1048.16570784035,1057.65262649301,1049.14946171013,1050.1497800923,0.72,7.50268576969393,1053.15090802917,1123735,1125896,1130698,1133079,1136680,1142103
NaN,NaN,True,True,False,0.72,-0.28,-5.4,9.32,9.3,-0.0199999999999996,-0.00999999999999979,gamble,win,9.3,89.0808333333334,1059.6701202332,1,1.93430831865408,1061.63752205879,1065.63904133369,1066.62268544966,NaN,NaN,NaN,NaN,NaN,1144503,1146864,1151666,0,0,1152867
NaN,NaN,True,False,False,0.72,-0.28,-5.68,-1.45333333333333,13.1,11.6466666666667,5.82333333333333,gamble,lose,11.6466666666667,100.7275,1068.64017343032,1,1.10068940138444,1069.77394737885,1073.77543625562,1083.26234786841,1074.75912292907,1075.75955362502,0.82,7.50264193210751,1078.76063068467,1155267,1156628,1161430,1163811,1167412,1172835
NaN,NaN,True,True,True,0.82,-0.18,-5.86,8.38,12.1,3.72,1.86,gamble,win,12.1,112.8275,1085.27980257105,1,0.900622845161706,1086.21348980465,1090.21505451691,1091.19872647128,NaN,NaN,NaN,NaN,NaN,1175235,1176355,1181158,0,0,1182359
NaN,NaN,True,True,False,0.82,-0.18,-6.04,8.56,7.7,-0.86,-0.43,gamble,win,7.7,120.5275,1093.21613829629,1,1.96764853177592,1095.2168825746,1099.21838585031,1100.20206516422,NaN,NaN,NaN,NaN,NaN,1184759,1187160,1191961,0,0,1193163
NaN,NaN,True,True,True,0.82,-0.18,-6.22,8.74,12.9,4.16,2.08,gamble,win,12.9,133.4275,1102.21953266626,1,0.833743710303679,1103.08654523338,1107.08805618878,1116.57490764512,1108.07175790146,1109.07208620314,0.74,7.50302143068984,1112.07321094023,1195563,1196603,1201406,1203786,1207388,1212811
NaN,NaN,True,False,True,0.74,-0.26,-6.48,-1.45,4.5,3.05,1.525,gamble,lose,3.05,136.4775,1118.59235498821,1,2.517876598984,1121.14337597089,1125.14485716796,1126.12854384142,NaN,NaN,NaN,NaN,NaN,1215211,1218272,1223074,0,0,1224275
NaN,NaN,True,True,True,0.74,-0.26,-6.74,10.38,8.5,-1.88,-0.94,gamble,win,8.5,144.9775,1128.14597102557,1,2.25111905741505,1130.43018550961,1134.43168750545,1143.91860743798,1135.41544457502,1136.41576903686,0.73,7.50280736270361,1139.41689409385,1226675,1229416,1234218,1236600,1240201,1245623
NaN,NaN,True,True,True,0.73,-0.27,-7.01,10.79,10.7,-0.0899999999999999,-0.0449999999999999,gamble,win,10.7,155.6775,1145.93604006176,1,1.61755165713839,1147.58668586565,1151.5881846617,1152.57192221237,NaN,NaN,NaN,NaN,NaN,1248023,1250004,1254807,0,0,1256008
NaN,NaN,True,True,True,0.73,-0.27,-7.28,11.06,1.9,-9.16,-3.63,gamble,win,1.9,157.5775,1154.58937627496,NaN,NaN,1157.59048309294,1161.59202220663,1171.07888614247,1162.57567240228,1163.57607749966,0.73,7.50268928939477,1166.57717471826,1258408,1262009,1266811,1269192,1272793,1278196
