lifeHappySlider_response,blockHappySlider_response,isHappyBlock,isCongruent,isWinOnTop,lastHappyRating,diff,sumDiff,RPE,winAmount,loseAmount,certainAmount,choice,outcome,outcomeAmount,currentWinnings,outcome1Box_started,choiceKey_keys,choiceKey_rt,outcome1Box_2_started,outcome1Box_3_started,fixCross_ITI_started,fixCross_ISI_started,happyText_started,happySlider_response,happySlider_rt,happySlider_started,trial_sample,choice_sample,outcome_sample,happyText_sample,happySlider_sample,fixCross_ITI_sample
0.24,0.43,True,False,False,0.43,-0.57,-0.57,-2.0425,-0.9,-2.9425,-1.92125,gamble,lose,-2.9425,-2.9425,93.7857639291087,1,2.86797928800843,96.6868373509587,100.671760295359,101.672165396432,NaN,NaN,NaN,NaN,NaN,10977,14457,19240,0,0,20461
NaN,NaN,True,True,True,0.43,-0.57,-1.14,9.12,2.3,-6.82,-2.26,gamble,win,2.3,-0.6425,103.689602661763,1,2.08439701697171,105.807089012802,109.808646380041,110.792358181026,NaN,NaN,NaN,NaN,NaN,22861,25402,30204,0,0,31405
NaN,NaN,True,True,True,0.43,-0.57,-1.71,9.69,4.7,-4.99,-0.145,gamble,win,4.7,4.0575,112.809809525699,1,2.8013398414023,115.644252460525,119.645806627914,129.132811715037,120.629504989527,121.629908170689,0.46,7.50283986732211,124.63105691702,33805,37207,42009,44390,47991,53414
NaN,NaN,True,True,True,0.46,-0.54,-2.25,9.81,2.9,-6.91,-2.005,gamble,win,2.9,6.9575,131.150271059336,1,2.3344787731512,133.517851645971,137.502761470983,138.50311665439,NaN,NaN,NaN,NaN,NaN,55814,58655,63437,0,0,64658
NaN,NaN,True,True,False,0.46,-0.54,-2.79,10.35,11.1,0.749999999999998,0.374999999999999,gamble,win,11.1,18.0575,140.520520001306,1,1.90104014340432,142.454648838806,146.439477387616,155.943225052526,147.439920886896,148.440314788493,0.52,7.50288402525985,151.441460974944,67058,69379,74161,76562,80163,85587
NaN,NaN,True,True,True,0.52,-0.48,-3.27,9.99,5.5,-4.49,0.505,gamble,win,5.5,23.5575,157.960696556256,1,1.98434569136953,159.978120382215,163.979670069813,164.963395310171,NaN,NaN,NaN,NaN,NaN,87987,90407,95209,0,0,96411
NaN,NaN,True,True,True,0.52,-0.48,-3.75,10.47,7.9,-2.57,-1.285,gamble,win,7.9,31.4575,166.980843454994,1,2.06771491635845,169.081658584912,173.066539611269,174.066924553284,NaN,NaN,NaN,NaN,NaN,98811,101332,106114,0,0,107335
NaN,NaN,True,True,False,0.52,-0.48,-4.23,10.95,13.5,2.55,1.275,gamble,win,13.5,44.9575,176.084374938002,1,1.56753956455213,177.685001276741,181.669869503698,191.173531412613,182.670268205069,183.670607389222,0.55,7.50289202488602,186.671799013549,109735,111656,116438,118839,122440,127863
NaN,NaN,True,False,False,0.55,-0.45,-4.68,-1.965,12.1,10.135,5.0675,gamble,lose,10.135,55.0925,193.191016035731,1,1.41746465605138,194.641575465594,198.643132192863,199.626795996091,NaN,NaN,NaN,NaN,NaN,130263,132004,136806,0,0,138007
NaN,NaN,True,False,True,0.55,-0.45,-5.13,-2.0025,7.5,5.4975,2.74875,gamble,lose,5.4975,60.59,201.644300778267,1,1.43414643667893,203.111534629103,207.096406695879,216.600098363404,208.09682683625,209.097190019282,0.59,7.50282130818778,212.098287568006,140407,142168,146949,149351,152952,158375
NaN,NaN,True,True,True,0.59,-0.41,-5.54,11.28,11.7,0.419999999999998,0.209999999999999,gamble,win,11.7,72.29,218.617537548645,1,1.48400714718628,220.134805541886,224.119676328723,225.120075030094,NaN,NaN,NaN,NaN,NaN,160775,162596,167378,0,0,168599
NaN,NaN,True,True,False,0.59,-0.41,-5.95,11.69,11.3,-0.390000000000001,-0.195,gamble,win,11.3,83.59,227.137517415187,1,1.850802170522,229.021581071733,233.023138118988,242.510153765616,234.006856959642,235.007243181599,0.59,7.50276467083313,238.008390967974,170999,173260,178062,180443,184044,189467
NaN,NaN,True,True,False,0.59,-0.41,-6.36,12.1,6.3,-5.8,0.249999999999999,gamble,win,6.3,89.89,244.527608950109,1,1.23406618442823,245.794762548694,249.796316396098,250.78001603765,NaN,NaN,NaN,NaN,NaN,191867,193388,198190,0,0,199391
NaN,NaN,True,True,True,0.59,-0.41,-6.77,12.51,1.3,-11.21,-4.955,gamble,win,1.3,91.19,252.797479861742,1,2.75131177871299,255.581893453938,259.566768720566,260.567150782716,NaN,NaN,NaN,NaN,NaN,201791,205132,209914,0,0,211135
NaN,NaN,True,True,True,0.59,-0.41,-7.18,12.92,9.9,-3.02,-1.51,gamble,win,9.9,101.09,262.584614286821,1,1.41746049624453,264.035173396698,268.036728204059,277.523734251135,269.020433925327,270.020829426849,0.64,7.50283218767981,273.021979773104,213535,215276,220078,222459,226061,231484
NaN,NaN,True,True,False,0.64,-0.36,-7.54,12.58,10.9,-1.68,-0.840000000000001,gamble,win,10.9,111.99,279.541189115644,1,1.50085244017464,281.075126410095,285.076666178156,286.060385338797,NaN,NaN,NaN,NaN,NaN,233884,235724,240526,0,0,241728
NaN,NaN,True,True,False,0.64,-0.36,-7.9,12.94,0.5,-12.44,-5.97,certain,certain,-5.97,106.02,288.077834763561,3,1.91765056736403,290.028586184453,294.030139711873,303.517107360743,295.013855032692,296.014198376652,0.6,7.5028584264528,299.015394800756,244128,246469,251270,253652,257253,262676
NaN,NaN,True,True,False,0.6,-0.4,-8.3,13.9,7.7,-6.2,0.749999999999999,gamble,win,7.7,113.72,305.534612142921,1,1.48416809966693,307.051859657116,311.053418944266,312.037140664788,NaN,NaN,NaN,NaN,NaN,265076,266897,271698,0,0,272900
NaN,NaN,True,True,True,0.6,-0.4,-8.7,14.3,13.1,-1.2,-0.600000000000002,gamble,win,13.1,126.82,314.054580170014,1,1.28408752743053,315.371760871332,319.373314078766,320.357000280947,NaN,NaN,NaN,NaN,NaN,275300,276881,281683,0,0,282883
NaN,NaN,True,False,True,0.6,-0.4,-9.1,-2.15833333333333,8.7,6.54166666666667,3.27083333333333,gamble,lose,6.54166666666667,133.361666666667,322.374426666785,1,1.16743409747869,323.574942098705,327.559819605229,337.063507432933,328.560209667005,329.560590449215,0.62,7.50283730744195,332.561756474737,285283,286724,291506,293907,297509,302932
NaN,NaN,True,False,True,0.62,-0.38,-9.48,-2.12,9.7,7.58,3.79,gamble,lose,7.58,140.941666666667,339.08091781952,1,1.23411418218529,340.348116535995,344.332986362877,345.333385384234,NaN,NaN,NaN,NaN,NaN,305332,306852,311634,0,0,312855
NaN,NaN,True,False,False,0.62,-0.38,-9.86,-2.15166666666667,4.3,2.14833333333333,1.07416666666667,gamble,lose,2.14833333333333,143.09,347.350807610268,1,1.16722226737511,348.551268324743,352.536138151625,362.039834938912,353.536559251952,354.53696211313,0.56,7.50281106866714,357.538032783108,315255,316696,321478,323879,327480,332903
NaN,NaN,True,True,True,0.56,-0.44,-10.3,16.46,3.1,-13.36,-5.13,certain,certain,-5.13,137.96,364.057279883884,3,2.06773411546055,366.158103973383,370.159653980965,371.14336642192,NaN,NaN,NaN,NaN,NaN,335303,337824,342626,0,0,343828
NaN,NaN,True,True,False,0.56,-0.44,-10.74,16.9,-0.5,-17.4,-8.95,gamble,win,-0.5,137.46,373.160857124754,1,2.51768749364055,375.711807384359,379.713359311852,389.200405037076,380.697066633047,381.697462134569,0.63,7.50252916183854,384.698555523486,346228,349289,354091,356472,360073,365496
NaN,NaN,True,False,True,0.63,-0.37,-11.11,-2.22083333333333,-0.7,-2.92083333333333,-1.81041666666667,certain,certain,-1.81041666666667,135.649583333333,391.217823423289,3,1.78422544098794,393.035144918029,397.020081621786,398.020460484086,NaN,NaN,NaN,NaN,NaN,367896,370077,374859,0,0,376080
NaN,NaN,True,True,True,0.63,-0.37,-11.48,16.66,-1.3,-17.96,-9.63,gamble,win,-1.3,134.349583333333,400.037855191405,1,1.78433519585997,401.855281001272,405.856830048901,406.840583127956,NaN,NaN,NaN,NaN,NaN,378480,380661,385463,0,0,386664
NaN,NaN,True,True,False,0.63,-0.37,-11.85,17.03,2.5,-14.53,-6.015,gamble,win,2.5,136.849583333333,408.858059431463,1,1.33405031316943,410.225192359012,414.226745886432,423.713798971312,415.210458967356,416.210853188939,0.6,7.50283698745625,419.211999055404,389064,390705,395507,397888,401489,406892
NaN,0.57,False,True,False,0.57,0.57,0.57,-8.55,0.5,-8.05,-3.775,gamble,lose,-8.05,128.799583333333,441.370608925152,1,1.78429231786322,443.187975217797,447.189531625083,448.173292383779,NaN,NaN,NaN,NaN,NaN,428079,430260,435062,0,0,436264
NaN,NaN,False,True,True,0.57,0.57,1.14,-9.12,9.1,-0.0199999999999996,-0.00999999999999979,gamble,lose,-0.0199999999999996,128.779583333333,450.190638773356,1,2.18453505852267,452.408220607933,456.409777975174,465.896780502415,457.393479856621,458.393922395946,0.52,7.50284498708243,461.394991785985,438664,441325,446127,448508,452109,457532
NaN,NaN,False,False,True,0.52,0.52,1.66,1.95833333333333,-0.325,-2.28333333333333,-1.30416666666667,certain,certain,-1.30416666666667,127.475416666667,467.914236966848,3,2.21759591391856,470.165107806164,474.149998432073,475.183727736239,NaN,NaN,NaN,NaN,NaN,459932,462633,467415,0,0,468676
NaN,NaN,False,True,True,0.52,0.52,2.18,-9.46,13.5,4.04,2.02,gamble,lose,4.04,131.515416666667,477.201220358984,1,1.25073708556192,478.485012860199,482.486590386497,491.973607633052,483.470266669141,484.470658970813,0.56,7.50285522660306,487.471766439072,471076,472617,477419,479800,483401,488824
NaN,NaN,False,False,False,0.56,0.56,2.74,2.18833333333333,1.875,-0.313333333333333,0.780833333333333,gamble,win,1.875,133.390416666667,493.991029859086,1,2.05105169486342,496.075160648494,500.07671641581,501.060433336554,NaN,NaN,NaN,NaN,NaN,491224,493725,498527,0,0,499729
NaN,NaN,False,True,False,0.56,0.56,3.3,-11.14,0.9,-10.24,-4.67,certain,certain,-4.67,128.720416666667,503.077885321198,3,1.76763805594965,504.878577192874,508.880083042521,509.863851800843,NaN,NaN,NaN,NaN,NaN,502129,504290,509092,0,0,510293
NaN,NaN,False,True,False,0.56,0.56,3.86,-11.7,13.1,1.4,0.699999999999999,gamble,lose,1.4,130.120416666667,511.881292586011,1,1.15077375584951,513.065127517242,517.066686804392,526.553650933429,518.050398925363,519.050748029053,0.58,7.50294738229786,522.051884935936,512693,514114,518915,521296,524898,530321
NaN,NaN,False,False,True,0.58,0.58,4.44,2.4,0.925,-1.475,-0.275,certain,certain,-0.275,129.845416666667,528.571099398236,3,2.28449166854989,530.888655122033,534.890238728047,535.873932289884,NaN,NaN,NaN,NaN,NaN,532721,535502,540304,0,0,541505
NaN,NaN,False,False,True,0.58,0.58,5.02,2.44833333333333,2.175,-0.273333333333333,0.950833333333333,gamble,win,2.175,132.020416666667,537.891382674601,1,2.03438687344351,539.958851522457,543.960405049876,553.44745653483,544.944159088887,545.944506912638,0.61,7.50278642981903,548.945650539206,543905,546386,551188,553568,557170,562593
NaN,NaN,False,True,True,0.61,0.61,5.63,-14.17,10.7,-3.47,-1.735,gamble,lose,-3.47,128.550416666667,555.464867561388,1,1.91766464670764,557.415544105779,561.417176349521,562.400913109339,NaN,NaN,NaN,NaN,NaN,564993,567334,572136,0,0,573337
NaN,NaN,False,True,False,0.61,0.61,6.24,-14.78,6.1,-8.68,-1.29,certain,certain,-1.29,127.260416666667,564.418329255657,3,1.90099502551311,566.352421614862,570.337306801026,571.337679903594,NaN,NaN,NaN,NaN,NaN,575737,578059,582841,0,0,584062
NaN,NaN,False,True,False,0.61,0.61,6.85,-15.39,7.3,-8.09,-0.395,certain,certain,-0.395,126.865416666667,573.35514276773,3,2.33449733228372,575.7227204745,579.724275921828,589.211296048248,580.708027080975,581.708383864307,0.53,7.50279154957934,584.709524611009,586462,589303,594105,596486,600087,605510
NaN,NaN,False,True,True,0.53,0.53,7.38,-14.8,13.7,-1.1,-0.550000000000001,gamble,lose,-1.1,125.765416666667,591.228726273908,1,1.4841690596204,592.745994907118,596.747543634761,597.731266955208,NaN,NaN,NaN,NaN,NaN,607910,609731,614533,0,0,615734
NaN,NaN,False,True,False,0.53,0.53,7.91,-15.33,11.3,-4.03,-2.015,gamble,lose,-4.03,121.735416666667,599.74870870033,1,2.3178206714183,602.099623825574,606.101169033383,615.588184040042,607.084888194024,608.085266736338,0.52,7.50283762742583,611.08642508222,618134,620956,625757,628138,631740,637163
NaN,NaN,False,False,True,0.52,0.52,8.43,2.5225,1.675,-0.8475,0.41375,gamble,win,1.675,123.410416666667,617.605636984639,1,2.16759121014002,619.806482961116,623.808042248265,624.791756929117,NaN,NaN,NaN,NaN,NaN,639563,642203,647005,0,0,648207
NaN,NaN,False,False,False,0.52,0.52,8.95,2.56583333333333,-0.275,-2.84083333333333,-1.55791666666667,gamble,win,-0.275,123.135416666667,626.809207313834,1,2.8013456011322,629.643643208989,633.645190016723,643.132201503546,634.628890618231,635.629245161666,0.56,7.50290002451038,638.630441265785,650607,654008,658810,661191,664792,670215
NaN,NaN,False,True,False,0.56,0.56,9.51,-17.35,8.1,-9.25,-0.575000000000001,certain,certain,-0.575000000000001,122.560416666667,645.14962564949,3,2.66791151517464,647.850697215426,651.852251382816,652.835965423696,NaN,NaN,NaN,NaN,NaN,672615,675857,680659,0,0,681860
NaN,NaN,False,True,False,0.56,0.56,10.07,-17.91,11.7,-6.21,-3.105,gamble,lose,-6.21,116.350416666667,654.853420928173,1,2.40118093682759,657.287735037018,661.289250486217,662.272955887502,NaN,NaN,NaN,NaN,NaN,684260,687181,691983,0,0,693184
NaN,NaN,False,True,False,0.56,0.56,10.63,-18.47,8.9,-9.57,-0.335000000000001,gamble,lose,-9.57,106.780416666667,664.290414271845,1,1.96772726778181,666.291224473993,670.29273480343,679.77969733254,671.276454924026,672.276849145608,0.53,7.50279314950421,675.277996611998,695584,697986,702787,705168,708770,714192
NaN,NaN,False,True,False,0.53,0.53,11.16,-18.58,12.3,-6.28,-3.14,gamble,lose,-6.28,100.500416666667,681.797197634927,1,1.86765130332969,683.697940192234,687.699528918009,688.683199120936,NaN,NaN,NaN,NaN,NaN,716592,718874,723675,0,0,724877
NaN,NaN,False,False,False,0.53,0.53,11.69,2.82916666666667,0.825,-2.00416666666667,-0.589583333333333,gamble,win,0.825,101.325416666667,690.700652705505,1,2.28430799712987,693.018220588734,697.019764196617,706.50678016323,698.003480477391,699.003869259228,0.52,7.50295506194016,702.00499720653,727277,730058,734860,737241,740842,746265
NaN,NaN,False,True,False,0.52,0.52,12.21,-19.49,10.5,-8.99,0.754999999999999,gamble,lose,-8.99,92.3354166666666,708.524237907604,1,2.06764515961731,710.625103275175,714.62660272512,715.610313246165,NaN,NaN,NaN,NaN,NaN,748665,751186,755988,0,0,757189
NaN,NaN,False,True,False,0.52,0.52,12.73,-20.01,-0.7,-20.71,-10.705,certain,certain,-10.705,81.6304166666666,717.62777419039,3,2.43433106805242,720.095445780773,724.096941070913,733.583949997856,725.080650951988,726.081042933674,0.53,7.5028270679195,729.082200319601,759589,762551,767353,769733,773335,778758
NaN,NaN,False,True,True,0.53,0.53,13.26,-20.68,4.7,-15.98,-5.64,certain,certain,-5.64,75.9904166666666,735.601399742603,3,2.08440117677674,737.718897933088,741.720451780493,742.704158141731,NaN,NaN,NaN,NaN,NaN,781158,783699,788501,0,0,789702
NaN,NaN,False,False,True,0.53,0.53,13.79,3.00416666666667,1.975,-1.02916666666667,0.472916666666667,gamble,win,1.975,77.9654166666666,744.721618126001,1,1.4508861346003,746.205508798628,750.190390464957,751.190781486688,NaN,NaN,NaN,NaN,NaN,792102,793883,798665,0,0,799886
NaN,NaN,False,True,False,0.53,0.53,14.32,-21.74,6.5,-15.24,-4.37,certain,certain,-4.37,73.5954166666666,753.208234431288,3,2.15113341904726,755.392407266732,759.394003992133,768.880980600587,760.377684754569,761.378069376598,0.55,7.50276211095297,764.379215883035,802286,804908,809709,812090,815692,821115
NaN,NaN,False,False,True,0.55,0.55,14.87,3.16416666666667,0.325,-2.83916666666667,-1.25708333333333,certain,certain,-1.25708333333333,72.3383333333333,770.898490182539,3,1.83422534499186,772.765810941313,776.750697087433,777.751091628999,NaN,NaN,NaN,NaN,NaN,823515,825755,830537,0,0,831739
NaN,0.53,True,True,True,0.53,-0.47,-0.47,7.05,12.5,5.45,2.725,gamble,win,12.5,84.8383333333333,795.524687806586,1,1.55082226558261,797.10859396649,801.093465073312,810.597118342632,802.093810337181,803.094276235413,0.61,7.50282962779966,806.09540002291,853067,854967,859749,862150,865751,871174
NaN,NaN,True,True,False,0.61,-0.39,-0.86,6.32,6.7,0.38,0.19,gamble,win,6.7,91.5383333333333,812.614612565301,1,1.73409018330676,814.381963914646,818.36688205927,819.367248122167,NaN,NaN,NaN,NaN,NaN,873574,875695,880477,0,0,881699
NaN,NaN,True,False,False,0.61,-0.39,-1.25,-1.46916666666667,12.9,11.4308333333333,5.71541666666667,gamble,lose,11.4308333333333,102.969166666667,821.384674508006,1,1.40079567482462,822.818571036361,826.803444063093,827.803841804511,NaN,NaN,NaN,NaN,NaN,884099,885819,890601,0,0,891822
NaN,NaN,True,True,False,0.61,-0.39,-1.64,7.1,-1.3,-8.4,-4.85,gamble,win,-1.3,101.669166666667,829.821283229647,1,2.08435413897496,831.938775660401,835.940329187821,845.427340354658,836.924036509014,837.924436170342,0.66,7.50295922174519,840.925616275208,894222,896763,901565,903946,907548,912971
NaN,NaN,True,False,True,0.66,-0.34,-1.98,-1.355,7.9,6.545,3.2725,gamble,lose,6.545,108.214166666667,847.444787859511,1,1.16738097996131,848.645262013359,852.630090882154,853.630517422225,NaN,NaN,NaN,NaN,NaN,915371,916811,921593,0,0,922814
NaN,NaN,True,True,True,0.66,-0.34,-2.32,7.08,11.1,4.02,2.01,gamble,win,11.1,119.314166666667,855.64797708651,1,1.20052983124697,856.881780883197,860.883338570422,870.370395175138,861.867082049926,862.867436913348,0.63,7.50285746649934,865.868587259603,925214,926696,931497,933878,937479,942902
NaN,NaN,True,True,True,0.63,-0.37,-2.69,7.87,3.3,-4.57,-0.635,gamble,win,3.3,122.614166666667,872.387798842037,1,1.96750839800916,874.388581525471,878.390126413295,879.373840134189,NaN,NaN,NaN,NaN,NaN,945302,947703,952505,0,0,953707
NaN,NaN,True,False,False,0.63,-0.37,-3.06,-1.55,9.9,8.35,4.175,gamble,lose,8.35,130.964166666667,881.391333076919,1,1.06734501364008,882.491720066839,886.476590853676,895.98028060129,887.476934517619,888.477319459635,0.63,7.50287602563185,891.478525163304,956107,957427,962209,964610,968211,973634
NaN,NaN,True,False,True,0.63,-0.37,-3.43,-1.58083333333333,7.5,5.91916666666667,2.95958333333333,gamble,lose,5.91916666666667,136.883333333333,897.99773610577,1,1.033993611818,899.064835370891,903.049679278984,904.050084060073,NaN,NaN,NaN,NaN,NaN,976034,977315,982097,0,0,983318
NaN,NaN,True,True,True,0.63,-0.37,-3.8,8.98,4.5,-4.48,0.00999999999999979,certain,certain,0.00999999999999979,136.893333333333,906.067530284985,3,2.70131411460534,908.801925734029,912.803466782032,913.787229460639,NaN,NaN,NaN,NaN,NaN,985718,989000,993801,0,0,995003
NaN,NaN,True,False,False,0.63,-0.37,-4.17,-1.6425,9.1,7.4575,3.72875,gamble,lose,7.4575,144.350833333333,915.804661606209,1,1.11732315866175,916.955087218324,920.939961844982,930.443648072762,921.940350306833,922.940735888818,0.65,7.50273587217998,925.941891354836,997403,998784,1003565,1005966,1009568,1014990
NaN,NaN,True,True,False,0.65,-0.35,-4.52,9.42,1.9,-7.52,-2.81,gamble,win,1.9,146.250833333333,932.461094937644,1,2.45120643963492,934.945395191136,938.946944878735,939.930658599631,NaN,NaN,NaN,NaN,NaN,1017390,1020372,1025174,0,0,1026375
NaN,NaN,True,False,False,0.65,-0.35,-4.87,-1.63083333333333,10.3,8.66916666666667,4.33458333333333,gamble,lose,8.66916666666667,154.92,941.948119223869,1,1.06733381416416,943.048541412145,947.050089819804,956.537144824593,948.03380930043,949.034202882041,0.64,7.50283378760469,952.035342348805,1028775,1030096,1034898,1037279,1040880,1046303
NaN,NaN,True,True,False,0.64,-0.36,-5.23,10.27,4.9,-5.37,-0.234999999999999,gamble,win,4.9,159.82,958.554595209313,1,1.93430130944216,960.52198073306,964.523534260479,965.507255981,NaN,NaN,NaN,NaN,NaN,1048703,1051064,1055866,0,0,1057067
NaN,NaN,True,True,True,0.64,-0.36,-5.59,10.63,-1.1,-11.73,-6.415,gamble,win,-1.1,158.72,967.524736444313,1,2.11775161864534,969.675554038115,973.677094446148,974.660791847804,NaN,NaN,NaN,NaN,NaN,1059467,1062048,1066850,0,0,1068052
NaN,NaN,True,False,False,0.64,-0.36,-5.95,-1.75583333333333,2.1,0.344166666666667,1.22208333333333,certain,certain,1.22208333333333,159.942083333333,976.678253751985,3,1.56751780556806,978.262204069826,982.263752477484,991.767438705263,983.26413805947,984.264523001486,0.63,7.50284754696258,987.265683267278,1070452,1072352,1077154,1079555,1083156,1088579
NaN,NaN,True,False,True,0.63,-0.37,-6.32,-1.82166666666667,9.7,7.87833333333333,3.93916666666667,gamble,lose,7.87833333333333,167.820416666667,993.784887170072,1,1.26742014613046,995.085394730359,999.070274796761,1000.07065237912,NaN,NaN,NaN,NaN,NaN,1090979,1092540,1097322,0,0,1098543
NaN,NaN,True,True,True,0.63,-0.37,-6.69,11.87,6.5,-5.37,0.565,gamble,win,6.5,174.320416666667,1002.08816196107,1,1.66751729359203,1003.78876538888,1007.79036147431,1017.27733200305,1008.77401791788,1009.7744242989,0.63,7.50278994965265,1012.77557752502,1100943,1102984,1107786,1110167,1113769,1119191
NaN,NaN,True,True,False,0.63,-0.37,-7.06,12.24,5.9,-6.34,-0.22,gamble,win,5.9,180.220416666667,1019.29478622759,1,1.28406800834273,1020.61197332861,1024.61350797691,1025.5972239377,NaN,NaN,NaN,NaN,NaN,1121591,1123172,1127974,0,0,1129176
NaN,NaN,True,True,True,0.63,-0.37,-7.43,12.61,11.5,-1.11,-0.555,gamble,win,11.5,191.720416666667,1027.61472488005,1,1.9842948137466,1029.63217974456,1033.61700733342,1043.12069228126,1034.61738683569,1035.61777305764,0.61,7.50284210721657,1038.61893748324,1131576,1133996,1138778,1141179,1144780,1150204
NaN,NaN,True,True,False,0.61,-0.39,-7.82,13.28,6.1,-7.18,-0.540000000000001,gamble,win,6.1,197.820416666667,1045.13809434823,1,1.55090770159222,1046.72209170388,1050.72361899252,1051.70734711274,NaN,NaN,NaN,NaN,NaN,1152604,1154504,1159307,0,0,1160508
NaN,NaN,True,True,False,0.61,-0.39,-8.21,13.67,13.7,0.0299999999999976,0.0149999999999988,gamble,win,13.7,211.520416666667,1053.7248330158,1,0.933926606949171,1054.69184575697,1058.69339544456,1059.67712612467,NaN,NaN,NaN,NaN,NaN,1162908,1164068,1168870,0,0,1170071
NaN,NaN,True,True,False,0.61,-0.39,-8.6,14.06,5.1,-8.96,-1.93,gamble,win,5.1,216.620416666667,1061.69460882787,1,1.15059520419345,1062.87832600461,1066.87987889206,1076.36691597769,1067.86356733413,1068.86400603364,0.62,7.50284402712714,1071.86515797982,1172471,1173892,1178694,1181075,1184676,1190099
NaN,NaN,True,True,False,0.62,-0.38,-8.98,14.3,11.3,-3,-1.5,gamble,win,11.3,227.920416666667,1078.38436348254,1,1.11736027692677,1079.53481117362,1083.5363698208,1084.52008002186,NaN,NaN,NaN,NaN,NaN,1192499,1193880,1198681,0,0,1199883
NaN,NaN,True,True,False,0.62,-0.38,-9.36,14.68,4.3,-10.38,-3.04,gamble,win,4.3,232.220416666667,1086.53753072656,1,1.20072854196223,1087.77138156105,1091.7729174893,1101.25990881706,1092.75660497142,1093.75699439322,0.67,7.50285202675332,1096.75814153963,1202283,1203763,1208566,1210947,1214548,1219971
NaN,NaN,True,False,False,0.67,-0.33,-9.69,-1.9625,-0.9,-2.8625,-1.88125,gamble,lose,-2.8625,229.357916666667,1103.27736016173,1,2.2678518059638,1105.57829042227,1109.57980043172,1110.56351735247,NaN,NaN,NaN,NaN,NaN,1222371,1225132,1229934,0,0,1231135
NaN,NaN,True,True,True,0.67,-0.33,-10.02,14.64,-0.7,-15.34,-8.02,certain,certain,-8.02,221.337916666667,1112.58096613726,3,2.03437791386386,1114.64843210525,1118.65002275094,1128.13699807945,1119.63369839361,1120.63408525554,0.54,7.5028136285473,1123.63523208196,1233535,1236016,1240819,1243199,1246800,1252203
