isCongruent,isWinOnTop,lastHappyRating,diff,sumDiff,RPE,winAmount,loseAmount,certainAmount,choice,outcome,outcomeAmount,currentWinnings,fixCross_started,outcome1Box_stopped,choiceKey_started,choiceKey_stopped,outcome2Box_2_started,outcome2Box_3_started,choiceKey_rt,fixCross_ISI_stopped,happyText_stopped,happySlider_rt,happySlider_started,happySlider_stopped,trial_sample,choice_sample,outcome_sample,happyText_sample,happySlider_sample,fixCross_ITI_sample
True,False,0.66,-0.34,-0.34,5.1,4.7,-0.399999999999999,-0.2,gamble,win,4.7,4.7,148.958413596003,None,148.958413596003,None,151.959576097986,155.944437013706,NaN,,,NaN,NaN,,13124,16725,21507,0,0,22728
True,False,0.66,-0.34,-0.68,5.44,12.5,7.06,3.53,gamble,win,12.5,17.2,158.962283482833,None,158.962283482833,None,161.963374948333,165.964969428751,NaN,,,NaN,NaN,,25128,28730,33532,0,0,34733
True,False,0.66,-0.34,-1.02,5.78,13.5,7.72,3.86,gamble,win,13.5,30.7,168.966115611518,None,168.966115611518,None,171.850513062411,175.852056665346,2.8513111025386,None,None,7.50307248660829,180.837281402928,None,37133,40595,45397,47777,51379,56802
True,True,0.69,-0.31,-1.33,5.67,-1.3,-6.97,-4.135,gamble,win,-1.3,29.4,187.356532921898,None,187.356532921898,None,190.357679424662,194.359182389628,NaN,,,NaN,NaN,,59202,62803,67605,0,0,68806
True,False,0.69,-0.31,-1.64,5.98,13.1,7.12,3.56,gamble,win,13.1,42.5,197.360413048184,None,197.360413048184,None,198.960963868711,202.96249211242,1.56745103283902,None,None,7.50276818181737,207.947781486757,None,71206,73127,77929,80310,83911,89335
False,False,0.7,-0.3,-1.94,-1.21166666666667,7.7,6.48833333333333,3.24416666666667,gamble,lose,6.48833333333333,48.9883333333333,214.466974128678,None,214.466974128678,None,216.30095649627,220.285872449254,1.80090817864402,,,NaN,NaN,,91735,93936,98717,0,0,99939
False,False,0.7,-0.3,-2.24,-1.23666666666667,10.1,8.86333333333333,4.43166666666667,gamble,lose,8.86333333333333,57.8516666666667,223.303706438979,None,223.303706438979,None,224.754210349842,228.739079585153,1.41741852246923,,,NaN,NaN,,102339,104079,108861,0,0,110083
True,False,0.7,-0.3,-2.54,6.74,7.9,1.16,0.58,certain,certain,0.58,58.4316666666667,231.756951013027,None,231.756951013027,None,234.691422764183,238.676278880157,2.90138252297766,None,None,7.50274098315276,243.67814726691,None,112483,116004,120786,123187,126788,132211
True,False,0.75,-0.25,-2.79,6.29,-1.1,-7.39,-4.245,gamble,win,-1.1,57.3316666666667,250.197388866363,None,250.197388866363,None,253.198543368722,257.200084091804,NaN,,,NaN,NaN,,134611,138213,143015,0,0,144216
True,False,0.75,-0.25,-3.04,6.54,0.3,-6.24,-2.97,certain,certain,-2.97,54.3616666666667,260.201232834457,None,260.201232834457,None,262.968921231455,266.953785347054,2.73458892930648,None,None,7.50286097716889,271.95570045145,None,146616,149937,154720,157120,160722,166145
True,True,0.79,-0.21,-3.25,6.19,12.1,5.91,2.955,gamble,win,12.1,66.4616666666667,278.474855655222,None,278.474855655222,None,280.842438265507,284.827365737903,2.33457945779082,,,NaN,NaN,,168545,171386,176168,0,0,177389
True,True,0.79,-0.21,-3.46,6.4,9.1,2.7,1.35,gamble,win,9.1,75.5616666666667,287.845210287109,None,287.845210287109,None,290.362786049722,294.364387889771,2.4846004487481,None,None,7.50215797228157,299.34957774909,None,179789,182810,187612,189993,193595,199018
True,True,0.81,-0.19,-3.65,6.31,9.7,3.39,1.695,gamble,win,9.7,85.2616666666667,305.868762391387,None,305.868762391387,None,308.153015081509,312.154557404516,2.25125465737074,,,NaN,NaN,,201418,204159,208961,0,0,210222
True,True,0.81,-0.19,-3.84,6.5,0.1,-6.4,-3.15,gamble,win,0.1,85.3616666666667,315.205719010526,None,315.205719010526,None,317.873436718044,321.874902564887,2.63458080173586,,,NaN,NaN,,212622,215823,220625,0,0,221826
True,True,0.81,-0.19,-4.03,6.69,4.5,-2.19,1.155,gamble,win,4.5,89.8616666666667,324.87608970562,None,324.87608970562,None,326.81019155524,330.795075509843,1.90107597829774,None,None,7.5028836960264,335.796920537745,None,224226,226547,231329,233730,237332,242755
True,True,0.75,-0.25,-4.28,7.78,-0.5,-8.28,-4.39,certain,certain,-4.39,85.4716666666666,342.316094940557,None,342.316094940557,None,344.200148728589,348.201737769268,1.85098695874331,,,NaN,NaN,,245155,247416,252218,0,0,253419
False,False,0.75,-0.25,-4.53,-1.2525,2.5,1.2475,1.87375,gamble,lose,1.2475,86.7191666666667,351.202922990109,None,351.202922990109,None,352.103250845743,356.088169998577,0.867254626675276,None,None,7.50267698636162,361.090000307187,None,255819,256900,261681,264082,267684,273107
False,True,0.77,-0.23,-4.76,-1.20166666666667,2.1,0.898333333333333,1.49916666666667,gamble,lose,0.898333333333333,87.6175,367.609182709624,None,367.609182709624,None,369.143135894672,373.127964812011,1.50096699173446,,,NaN,NaN,,275507,277347,282129,0,0,283351
True,False,0.77,-0.23,-4.99,8.21,5.3,-2.91,1.195,gamble,win,5.3,92.9175,376.14583144011,None,376.14583144011,None,378.246634088049,382.231502363429,2.06775117787765,,,NaN,NaN,,285751,288272,293054,0,0,294275
False,True,0.77,-0.23,-5.22,-1.24,-0.7,-1.94,-1.32,certain,certain,-1.32,91.5975,385.249276516115,None,385.249276516115,None,387.150065788737,391.151587312779,1.86764948692871,None,None,7.50262226909399,396.136787091615,None,296675,298956,303758,306139,309740,315163
False,True,0.78,-0.22,-5.44,-1.22333333333333,12.7,11.4766666666667,5.73833333333333,gamble,lose,11.4766666666667,103.074166666667,402.656035090738,None,402.656035090738,None,404.023169723368,408.024739565008,1.33412284060614,,,NaN,NaN,,317563,319204,324006,0,0,325207
True,False,0.78,-0.22,-5.66,8.74,-1.5,-10.24,-5.87,certain,certain,-5.87,97.2041666666667,411.02592030607,None,411.02592030607,None,412.326360988081,416.327925069985,1.26734281424433,None,None,7.50280657989788,421.313199405093,None,327607,329168,333970,336351,339953,345375
False,False,0.81,-0.19,-5.85,-1.1525,8.3,7.1475,3.57375,gamble,lose,7.1475,104.351666666667,427.832388527167,None,427.832388527167,None,428.816044063104,432.800964815862,0.950575587252388,,,NaN,NaN,,347775,348956,353738,0,0,354959
True,False,0.81,-0.19,-6.04,8.7,7.5,-1.2,-0.6,certain,certain,-0.6,103.751666666667,435.818773526844,None,435.818773526844,None,437.185952317261,441.187475761224,1.33408668238553,None,None,7.50278354104375,446.17271073829,None,357359,359000,363801,366182,369784,375206
True,False,0.76,-0.24,-6.28,9.64,5.7,-3.94,0.880000000000001,gamble,win,5.7,109.451666666667,452.691955537593,None,452.691955537593,None,454.625990510569,458.627495715424,1.90093742520548,,,NaN,NaN,,377606,379928,384730,0,0,385931
False,False,0.76,-0.24,-6.52,-1.38333333333333,1.5,0.116666666666667,0.808333333333333,gamble,lose,0.116666666666667,109.568333333333,461.628707814933,None,461.628707814933,None,462.595734100963,466.580606216157,0.933932898071362,,,NaN,NaN,,388331,389492,394273,0,0,395495
True,True,0.76,-0.24,-6.76,10.12,6.7,-3.42,1.64,gamble,win,6.7,116.268333333333,469.598517642007,None,469.598517642007,None,471.149061998847,475.150596322259,1.51747816748684,None,None,7.50279154066811,480.135839938885,None,397895,399756,404558,406939,410540,415943
False,False,0.8,0.8,0.8,2.86666666666667,2.125,-0.741666666666667,0.691666666666666,gamble,win,2.125,118.393333333333,499.226531731547,None,499.226531731547,None,501.577433574537,505.562357527117,2.3177994954749,,,NaN,NaN,,433449,436270,441052,0,0,442273
False,False,0.8,0.8,1.6,2.93333333333333,3.225,0.291666666666667,1.75833333333333,gamble,win,3.225,121.618333333333,508.580078562489,None,508.580078562489,None,509.463837965217,513.448659202957,0.850626656698296,None,None,7.50275218262686,518.450582306948,None,444673,445734,450516,452916,456518,461941
True,False,0.76,0.76,2.36,-13,2.7,-10.3,-3.8,certain,certain,-3.8,117.818333333333,524.969767269242,None,524.969767269242,None,526.720445955347,530.721951160202,1.71753186080605,,,NaN,NaN,,464341,466442,471243,0,0,472445
False,True,0.76,0.76,3.12,2.92,-0.375,-3.295,-1.835,certain,certain,-1.835,115.983333333333,533.723120061855,None,533.723120061855,None,535.123665186635,539.125188310602,1.36745717655867,None,None,7.50276914177812,544.110456886003,None,474845,476525,481328,483708,487310,492733
True,True,0.77,0.77,3.89,-14.67,8.3,-6.37,0.965,gamble,lose,-6.37,109.613333333333,550.629602490255,None,550.629602490255,None,553.163949575654,557.165441021207,2.50130009511486,,,NaN,NaN,,495133,498174,502976,0,0,504178
True,True,0.77,0.77,4.66,-15.44,5.7,-9.74,-2.02,certain,certain,-2.02,107.593333333333,560.166642241238,None,560.166642241238,None,562.467528660985,566.469072583917,2.26782279030886,,,NaN,NaN,,506578,509338,514141,0,0,515342
True,False,0.77,0.77,5.43,-16.21,6.5,-9.71,-1.605,certain,certain,-1.605,105.988333333333,569.470187728235,None,569.470187728235,None,571.487640617008,575.489210778615,1.98439533897908,None,None,7.50276370203937,580.474449275498,None,517742,520162,524965,527346,530947,536370
True,False,0.69,0.69,6.12,-15.78,1.1,-14.68,-6.79,certain,certain,-6.79,99.1983333333333,586.993557121634,None,586.993557121634,None,589.211195857119,593.212686662708,2.18453318809043,,,NaN,NaN,,538770,541431,546233,0,0,547435
True,False,0.69,0.69,6.81,-16.47,12.3,-4.17,-2.085,gamble,lose,-4.17,95.0283333333333,596.213849164662,None,596.213849164662,None,597.647659828828,601.632598820666,1.40078447281849,None,None,7.50279986023088,606.634572802141,None,549835,551555,556337,558738,562339,567763
True,False,0.61,0.61,7.42,-15.96,3.5,-12.46,-4.48,gamble,lose,-12.46,82.5683333333333,613.15370912684,None,613.15370912684,None,614.971049125248,618.972560729773,1.78422805131413,,,NaN,NaN,,570163,572344,577145,0,0,578347
True,True,0.61,0.61,8.03,-16.57,9.1,-7.47,0.815,gamble,lose,-7.47,75.0983333333333,621.973765789618,None,621.973765789618,None,623.891131514742,627.892714795686,1.88432065470261,,,NaN,NaN,,580747,583047,587849,0,0,589051
True,False,0.61,0.61,8.64,-17.18,4.5,-12.68,-4.09,certain,certain,-4.09,71.0083333333333,630.893880817486,None,630.893880817486,None,633.161353545234,637.162870269531,2.23439693890396,None,None,7.50280977974762,642.148174363159,None,591451,594172,598974,601355,604956,610379
False,True,0.52,0.52,9.16,2.58333333333333,1.925,-0.658333333333333,0.633333333333334,gamble,win,1.925,72.9333333333333,648.667337566527,None,648.667337566527,None,650.551403193967,654.536265709641,1.85077608926804,,,NaN,NaN,,612779,615040,619822,0,0,621044
True,False,0.52,0.52,9.68,-16.96,8.7,-8.26,0.220000000000001,gamble,lose,-8.26,64.6733333333333,657.554116978485,None,657.554116978485,None,660.021698436816,664.006596470717,2.43451078922953,None,None,7.50281585942139,669.008465497405,None,623444,626405,631187,633587,637189,642612
False,True,0.59,0.59,10.27,2.92083333333333,0.075,-2.84583333333333,-1.38541666666667,gamble,win,0.075,64.7483333333333,675.527704856999,None,675.527704856999,None,678.528813281649,682.513698516181,NaN,,,NaN,NaN,,645012,648613,653395,0,0,654617
True,True,0.59,0.59,10.86,-19.12,5.1,-14.02,-4.46,certain,certain,-4.46,60.2883333333333,685.531558424613,None,685.531558424613,None,687.799093869253,691.80058179496,2.23428430454805,None,None,7.50281745934626,696.785870529362,None,657017,659738,664539,666920,670522,675945
True,False,0.58,0.58,11.44,-19.56,13.3,-6.25999999999999,-3.13,gamble,lose,-6.25999999999999,54.0283333333333,703.305061571329,None,703.305061571329,None,705.539226201829,709.540798603353,2.20108788169455,,,NaN,NaN,,678345,681026,685828,0,0,687029
False,True,0.58,0.58,12.02,3.03166666666667,2.975,-0.0566666666666662,1.45916666666667,gamble,win,2.975,57.0033333333333,712.541934226669,None,712.541934226669,None,714.576063722925,718.560979675909,2.00103130852222,,,NaN,NaN,,689429,691870,696652,0,0,697873
False,False,0.58,0.58,12.6,3.08,2.475,-0.605,0.935,gamble,win,2.475,59.4783333333333,721.57870199121,None,721.57870199121,None,723.562849022594,727.547674100118,1.9510619629873,None,None,7.50287473649951,732.549584084773,None,700273,702654,707437,709837,713439,718862
True,True,0.56,0.56,13.16,-21,12.7,-8.3,-4.15,gamble,lose,-8.3,51.1783333333333,739.068782806367,None,739.068782806367,None,741.569845473336,745.571325719444,2.46792608115356,,,NaN,NaN,,721262,724263,729065,0,0,730266
True,True,0.56,0.56,13.72,-21.56,4.9,-16.66,-5.88,certain,certain,-5.88,45.2983333333333,748.572425184539,None,748.572425184539,None,750.4731590999,754.474760939949,1.86764148736256,None,None,7.50274130314938,759.459930960264,None,732666,734947,739749,742130,745731,751154
True,False,0.44,0.44,14.16,-20.32,0.1,-20.22,-10.06,certain,certain,-10.06,35.2383333333333,765.979149520863,None,765.979149520863,None,768.463440865045,772.448301780794,2.45122611479019,,,NaN,NaN,,753554,756536,761318,0,0,762539
True,True,0.44,0.44,14.6,-20.76,2.9,-17.86,-7.48,certain,certain,-7.48,27.7583333333333,775.46613353063,None,775.46613353063,None,777.333519670705,781.335059113859,1.83429051222629,None,None,7.5027889807825,786.32026689229,None,764939,767180,771981,774363,777964,783387
True,True,0.54,0.54,15.14,-22.7,13.5,-9.2,-4.6,gamble,lose,-9.2,18.5583333333333,792.839500172151,None,792.839500172151,None,794.756886376243,798.758463257516,1.88431233511074,,,NaN,NaN,,785787,788088,792890,0,0,794091
True,False,0.54,0.54,15.68,-23.24,1.3,-21.94,-10.32,certain,certain,-10.32,8.23833333333334,801.759582241677,None,801.759582241677,None,803.877018939238,807.878600620257,2.08445306410431,,,NaN,NaN,,796491,799033,803834,0,0,805036
True,False,0.54,0.54,16.22,-23.78,13.1,-10.68,1.21,gamble,lose,-10.68,-2.44166666666666,810.87975672257,None,810.87975672257,None,813.447447743412,817.449035184167,2.53460051273578,None,None,7.50291473450488,822.434209684259,None,807436,810517,815319,817699,821301,826724
True,True,0.38,0.38,16.6,-21.92,10.5,-11.42,-0.459999999999997,gamble,lose,-11.42,-13.8616666666667,828.953412565665,None,828.953412565665,None,831.954565148131,835.956073552836,NaN,,,NaN,NaN,,829124,832726,837527,0,0,838709
False,True,0.33,-0.67,-0.67,-2.40083333333333,10.1,7.69916666666667,3.84958333333333,gamble,lose,7.69916666666667,-6.16249999999999,849.527949964744,None,849.527949964744,None,851.011825649679,855.013399651099,1.45083509432152,None,None,7.50293521347339,859.998675906099,None,853814,855595,860396,862777,866379,871802
True,False,0.58,-0.42,-1.09,6.97,12.1,5.13,2.565,gamble,win,12.1,5.93750000000001,866.517841669352,None,866.517841669352,None,868.368564641278,872.353397078434,1.8176171045634,,,NaN,NaN,,874202,876422,881204,0,0,882426
True,False,0.58,-0.42,-1.51,7.39,8.5,1.11,0.555,gamble,win,8.5,14.4375,875.371245147457,None,875.371245147457,None,876.705126400106,880.689954037516,1.30078722469625,,,NaN,NaN,,884826,886427,891209,0,0,892430
True,True,0.58,-0.42,-1.93,7.81,4.5,-3.31,0.595,gamble,win,4.5,18.9375,883.70786290351,None,883.70786290351,None,886.525517446193,890.510442998697,2.78457107421127,None,None,7.50282449900988,895.512339864013,None,894830,898212,902994,905394,908995,914418
False,False,0.68,-0.32,-2.25,-1.3075,8.9,7.5925,3.79625,gamble,lose,7.5925,26.53,902.031520666496,None,902.031520666496,None,903.915596853418,907.917133096722,1.85097959908308,,,NaN,NaN,,916818,919079,923881,0,0,925083
True,True,0.68,-0.32,-2.57,7.05,11.7,4.65,2.325,gamble,win,11.7,38.23,910.918278959522,None,910.918278959522,None,911.951993436494,915.936882830836,1.00064668772393,None,None,7.50273746333551,920.938795695343,None,927483,928723,933505,935906,939507,944931
True,True,0.77,-0.23,-2.8,6.02,6.5,0.48,0.24,gamble,win,6.5,44.73,927.457988657232,None,927.457988657232,None,928.341643105203,932.326466902799,0.85055338035454,,,NaN,NaN,,947331,948391,953173,0,0,954394
True,True,0.77,-0.23,-3.03,6.25,2.7,-3.55,-0.424999999999999,certain,certain,-0.424999999999999,44.305,935.344300572528,None,935.344300572528,None,937.028337465395,941.013215340296,1.65076015406521,None,None,7.50281041971175,946.015074127499,None,956794,958815,963597,965998,969599,975023
True,True,0.75,-0.25,-3.28,6.78,8.3,1.52,0.760000000000001,gamble,win,8.3,52.605,952.534325646469,None,952.534325646469,None,953.384630079294,957.386167922523,0.817355677601881,,,NaN,NaN,,977423,978443,983245,0,0,984446
False,True,0.75,-0.25,-3.53,-1.16916666666667,7.3,6.13083333333333,3.06541666666667,gamble,lose,6.13083333333333,58.7358333333334,960.387321784918,None,960.387321784918,None,961.837873053388,965.839433295507,1.41751099785324,,,NaN,NaN,,986846,988587,993388,0,0,994590
True,False,0.75,-0.25,-3.78,7.28,-1.5,-8.78,-5.14,certain,certain,-5.14,53.5958333333334,968.840526680928,None,968.840526680928,None,970.474537271104,974.476050475583,1.60092008206993,None,None,7.50272466396564,979.461313611246,None,996990,998951,1003753,1006134,1009735,1015158
False,False,0.73,-0.27,-4.05,-1.2825,11.3,10.0175,5.00875,gamble,lose,10.0175,63.6133333333334,985.98047393476,None,985.98047393476,None,987.330975477729,991.315861032228,1.31739343571826,,,NaN,NaN,,1017558,1019179,1023961,0,0,1025182
True,True,0.73,-0.27,-4.32,8.1,-0.7,-8.8,-4.75,certain,certain,-4.75,58.8633333333334,994.333686062397,None,994.333686062397,None,996.067685901129,1000.06921062502,1.70090293092653,None,None,7.50281041968265,1005.05447888043,None,1027582,1029663,1034465,1036846,1040447,1045870
True,False,0.76,-0.24,-4.56,7.92,7.7,-0.219999999999998,-0.109999999999999,gamble,win,7.7,66.5633333333333,1011.57363056438,None,1011.57363056438,None,1013.67444217185,1017.65935972478,2.06771533965366,,,NaN,NaN,,1048270,1050791,1055573,0,0,1056794
True,False,0.76,-0.24,-4.8,8.16,5.3,-2.86,1.22,gamble,win,5.3,71.8633333333333,1020.67717675536,None,1020.67717675536,None,1022.2777266159,1026.26272128496,1.5676487829769,,,NaN,NaN,,1059194,1061115,1065897,0,0,1067119
True,False,0.76,-0.24,-5.04,8.4,3.5,-4.9,-0.699999999999999,certain,certain,-0.699999999999999,71.1633333333333,1029.28045543967,None,1029.28045543967,None,1030.78104901005,1034.78257053409,1.46755457966356,None,None,7.50280721986201,1039.76782535017,None,1069519,1071319,1076121,1078502,1082103,1087527
True,False,0.72,-0.28,-5.32,9.24,-0.3,-9.54,-4.92,certain,certain,-4.92,66.2433333333333,1046.28704199087,None,1046.28704199087,None,1048.00437354168,1052.00586658716,1.68404873227701,,,NaN,NaN,,1089927,1091988,1096789,0,0,1097990
False,True,0.72,-0.28,-5.6,-1.44666666666667,1.5,0.0533333333333332,0.776666666666667,gamble,lose,0.0533333333333332,66.2966666666667,1055.00708988609,None,1055.00708988609,None,1056.25754138356,1060.24238885997,1.21718243826763,None,None,7.50286417701864,1065.24434780216,None,1100390,1101891,1106673,1109074,1112675,1118098
True,False,0.76,-0.24,-5.84,9.2,5.1,-4.1,0.5,gamble,win,5.1,71.3966666666667,1071.76350748571,None,1071.76350748571,None,1073.84766200473,1077.8324838824,2.05103393239551,,,NaN,NaN,,1120498,1123000,1127781,0,0,1129003
True,False,0.76,-0.24,-6.08,9.44,12.9,3.46,1.73,gamble,win,12.9,84.2966666666667,1080.85034571076,None,1080.85034571076,None,1082.01745640859,1086.0189766527,1.13402498947107,None,None,7.50281681938213,1091.00421578955,None,1131403,1132803,1137605,1139986,1143588,1149011
True,True,0.77,-0.23,-6.31,9.53,0.9,-8.63,-3.865,certain,certain,-3.865,80.4316666666667,1097.52339851196,None,1097.52339851196,None,1100.42451544819,1104.42609136953,2.86786131636472,,,NaN,NaN,,1151411,1154892,1159694,0,0,1160895
True,True,0.77,-0.23,-6.54,9.76,11.1,1.34,0.669999999999999,gamble,win,11.1,91.5316666666667,1107.42720395399,None,1107.42720395399,None,1109.67809862932,1113.67961343372,2.21781408673269,,,NaN,NaN,,1163295,1165997,1170798,0,0,1171999
True,False,0.77,-0.23,-6.77,9.99,0.3,-9.69,-4.695,certain,certain,-4.695,86.8366666666667,1116.68078233534,None,1116.68078233534,None,1119.26512500498,1123.26661133076,2.55124864165555,None,None,7.50281777934288,1128.25190678483,None,1174399,1177501,1182303,1184684,1188285,1193708
True,False,0.78,-0.22,-6.99,10.07,9.5,-0.57,-0.285,gamble,win,9.5,96.3366666666667,1134.77106550842,None,1134.77106550842,None,1137.77225328912,1141.77371049637,NaN,,,NaN,NaN,,1196108,1199710,1204511,0,0,1205713
False,False,0.78,-0.22,-7.21,-1.37083333333333,9.7,8.32916666666667,4.16458333333333,gamble,lose,8.32916666666667,104.665833333333,1144.77489507725,None,1144.77489507725,None,1145.7919835042,1149.77683578036,0.984007198334439,None,None,7.50272626391961,1154.77875152475,None,1208113,1209333,1214115,1216516,1220118,1225541
True,False,0.77,-0.23,-7.44,10.66,8.7,-1.96,-0.98,certain,certain,-0.98,103.685833333333,1161.29795024634,None,1161.29795024634,None,1163.99897797103,1168.00049661522,2.66795865548193,,,NaN,NaN,,1227941,1231182,1235984,0,0,1237186
True,False,0.77,-0.23,-7.67,10.89,13.7,2.81,1.405,gamble,win,13.7,117.385833333333,1171.00170199506,None,1171.00170199506,None,1172.76905184894,1176.75391500458,1.73425550595857,None,None,7.5027486627805,1181.75579843056,None,1239586,1241706,1246488,1248889,1252490,1257893
