isHappyBlock,isCongruent,isWinOnTop,lastHappyRating,diff,sumDiff,RPE,winAmount,loseAmount,certainAmount,choice,outcome,outcomeAmount,currentWinnings,outcome1Box_started,choiceKey_keys,outcome1Box_2_started,outcome1Box_3_started,fixCross_ITI_started,choiceKey_rt,fixCross_ISI_started,happyText_started,happySlider_response,happySlider_rt,happySlider_started,trial_sample,choice_sample,outcome_sample,happyText_sample,happySlider_sample,fixCross_ITI_sample
True,True,True,0.51,-0.49,-0.49,7.35,0.1,-7.25,-3.575,gamble,win,0.1,0.1,161.86518357863,NaN,164.866403681634,168.86789097212,169.851626132033,NaN,NaN,NaN,NaN,NaN,NaN,14738,18340,23141,0,0,24343
True,False,True,0.51,-0.49,-0.98,-1.79666666666667,13.7,11.9033333333333,5.95166666666667,certain,certain,5.95166666666667,6.05166666666667,171.869075876777,3,174.503485917114,178.488323745492,179.488701327879,2.60131974634714,NaN,NaN,NaN,NaN,NaN,26743,29904,34686,0,0,35907
True,False,False,0.51,-0.49,-1.47,-1.8375,11.9,10.0625,5.03125,certain,certain,5.03125,11.0829166666667,181.506160992139,3,184.057149329979,188.058713416918,197.562401884585,2.53455518558621,189.059142836835,190.059524579032,0.64,7.50280690885847,193.060670765466,38307,41369,46171,48571,52173,57616
True,True,False,0.64,-0.36,-1.83,6.87,6.5,-0.37,-0.185,gamble,win,6.5,17.5829166666667,199.601133195043,1,201.764082062058,205.765637509408,206.749308032333,2.12988609168679,NaN,NaN,NaN,NaN,NaN,60016,62617,67419,0,0,68620
True,False,False,0.64,-0.36,-2.19,-1.4425,3.3,1.8575,0.92875,gamble,lose,1.8575,19.4404166666667,208.766755217221,1,211.584571728832,215.569439955754,225.073140902852,2.78473517717794,216.569790019421,217.570183600998,0.72,7.50289138493827,220.571365305805,71020,74402,79184,81584,85186,90609
True,True,False,0.72,-0.28,-2.47,6.39,0.5,-5.89,-2.695,gamble,win,0.5,19.9404166666667,227.090531770373,1,228.507769876975,232.509326284286,233.493036805303,1.38414813257987,NaN,NaN,NaN,NaN,NaN,93009,94710,99512,0,0,100713
True,True,False,0.72,-0.28,-2.75,6.67,1.5,-5.17,-1.835,gamble,win,1.5,21.4404166666667,235.510473430681,1,236.794368647097,240.779156877776,241.779642295092,1.25080940214684,NaN,NaN,NaN,NaN,NaN,103113,104654,109435,0,0,110657
True,True,True,0.72,-0.28,-3.03,6.95,0.9,-6.05,-2.575,certain,certain,-2.575,18.8654166666667,243.797028362809,3,246.514767630084,250.516325317265,260.003349923471,2.68465409299824,251.500088315865,252.500433899753,0.58,7.50251380255213,255.501579446194,113057,116318,121120,123501,127102,132525
True,True,True,0.58,-0.42,-3.45,9.33,7.7,-1.63,-0.815000000000001,gamble,win,7.7,26.5654166666667,262.020847345993,1,263.37132441171,267.372876019217,268.35659421992,1.31738805165514,NaN,NaN,NaN,NaN,NaN,134925,136546,141348,0,0,142549
True,True,False,0.58,-0.42,-3.87,9.75,11.5,1.75,0.875,gamble,win,11.5,38.0654166666667,270.374111481535,1,271.841286135139,275.826166521525,285.329861068865,1.43408595951041,276.826556903252,277.826950804854,0.82,7.50285202672239,280.828189786989,144949,146710,151492,153893,157494,162917
True,True,False,0.82,-0.18,-4.05,6.57,11.3,4.73,2.365,gamble,win,11.3,49.3654166666667,287.347313053557,1,288.531148624723,292.532647114713,293.516382274625,1.15075359679759,NaN,NaN,NaN,NaN,NaN,165317,166738,171540,0,0,172741
True,True,True,0.82,-0.18,-4.23,6.75,3.9,-2.85,0.525,gamble,win,3.9,53.2654166666667,295.533824979677,1,297.117796416569,301.102636804804,310.606314073026,1.55096145905554,302.103069104603,303.103460446349,0.84,7.50277971016476,306.104588713613,175141,177042,181824,184225,187826,193269
True,False,True,0.84,-0.16,-4.39,-0.925833333333333,8.1,7.17416666666667,3.58708333333333,gamble,lose,7.17416666666667,60.4395833333333,312.645089861413,1,313.774258546648,317.759119733935,318.759576032578,1.09608127112733,NaN,NaN,NaN,NaN,NaN,195669,197030,201812,0,0,203033
True,True,False,0.84,-0.16,-4.55,6.79,4.7,-2.09,1.305,gamble,win,4.7,65.1395833333333,320.776964340243,1,322.394323657209,326.395833986637,327.379530428327,1.58426934294403,NaN,NaN,NaN,NaN,NaN,205433,207374,212176,0,0,213377
True,True,True,0.84,-0.16,-4.71,6.95,1.7,-5.25,-1.775,certain,certain,-1.775,63.3645833333333,329.397001932084,3,331.7645805988,335.766140845895,345.253172171768,2.3345018120599,336.749858406605,337.750251668214,0.67,7.50272691261489,340.751402334485,215777,218618,223420,225801,229403,234826
True,True,False,0.67,-0.33,-5.04,9.66,6.1,-3.56,1.27,gamble,win,6.1,69.4645833333333,347.270614236884,1,348.954594761308,352.939531785087,353.93987704895,1.65091102942824,NaN,NaN,NaN,NaN,NaN,237226,239247,244028,0,0,245250
True,False,False,0.67,-0.33,-5.37,-1.6025,2.5,0.8975,1.69875,gamble,lose,0.8975,70.3620833333333,355.957328073622,1,357.641318837588,361.64282340731,371.129892811412,1.65094494784717,362.626598565315,363.626989587035,0.58,7.50285746646114,366.62819273083,247650,249671,254473,256854,260455,265898
True,True,False,0.58,-0.42,-5.79,11.67,8.5,-3.17,-1.585,gamble,win,8.5,78.8620833333333,373.168624441838,1,374.514556439943,378.499426586786,379.499818568467,1.31265579268802,NaN,NaN,NaN,NaN,NaN,268298,269919,274701,0,0,275922
True,False,True,0.58,-0.42,-6.21,-1.9875,5.9,3.9125,1.95625,gamble,lose,3.9125,82.7745833333333,381.517307991395,1,382.751128427277,386.735949296446,387.736353117565,1.2007221422391,NaN,NaN,NaN,NaN,NaN,278322,279803,284584,0,0,285806
True,True,True,0.58,-0.42,-6.63,12.51,4.3,-8.21,-1.955,gamble,win,4.3,87.0745833333333,389.753844780382,1,391.554550411412,395.556108418619,405.043082467164,1.76758013863582,396.539775101701,397.540164843493,0.68,7.50283378764288,400.541316149698,288206,290367,295169,297550,301151,306574
True,True,True,0.68,-0.32,-6.95,11.43,10.9,-0.529999999999999,-0.265,gamble,win,10.9,97.9745833333333,407.06057636987,1,408.361086810008,412.362596819468,413.346299020923,1.2674233459984,NaN,NaN,NaN,NaN,NaN,308974,310535,315337,0,0,316538
True,True,False,0.68,-0.32,-7.27,11.75,10.1,-1.65,-0.825,gamble,win,10.1,108.074583333333,415.363755805301,1,416.93108161987,420.932593229227,430.419635754602,1.53424384008395,421.916292870825,422.916693172068,0.84,7.50325904774945,425.917915834987,318938,320819,325621,328002,331603,337046
True,True,True,0.84,-0.16,-7.43,9.67,9.1,-0.570000000000002,-0.285000000000001,gamble,win,9.1,117.174583333333,432.458418262715,1,433.587524870818,437.589068158763,438.572789879283,1.09599231526954,NaN,NaN,NaN,NaN,NaN,339446,340807,345608,0,0,346810
True,False,False,0.84,-0.16,-7.59,-1.1925,1.3,0.1075,0.70375,gamble,lose,0.1075,117.282083333333,440.590236424177,1,442.124165079033,446.109062104602,455.612771691289,1.50084252061788,447.109411848302,448.10982942878,0.59,7.50288050540257,451.110978495097,349210,351051,355833,358233,361835,367258
True,False,True,0.59,-0.41,-8,-2.10166666666667,6.9,4.79833333333333,2.39916666666667,gamble,lose,4.79833333333333,122.080416666667,457.630212796445,1,458.897334076522,462.88224806136,463.882609644497,1.23402938613435,NaN,NaN,NaN,NaN,NaN,369658,371179,375960,0,0,377182
True,True,True,0.59,-0.41,-8.41,14.15,5.3,-8.85,-1.775,gamble,win,5.3,127.380416666667,465.900125626125,1,467.083898480283,471.068729268969,472.069117090839,1.15068224014249,NaN,NaN,NaN,NaN,NaN,379582,381002,385784,0,0,387006
True,True,False,0.59,-0.41,-8.82,14.56,6.7,-7.86,-0.58,gamble,win,6.7,134.080416666667,474.086612913467,1,475.437142456707,479.438696624071,488.925682832079,1.31739413132891,480.422405225225,481.4227786478,0.79,7.50289266486652,484.423965152353,389406,391026,395828,398209,401811,407214
False,True,False,0.74,0.74,0.74,-11.1,1.325,-9.775,-4.225,gamble,lose,-9.775,124.305416666667,507.549596082885,1,510.050560517819,514.052185401903,515.035840565513,2.46789238008205,NaN,NaN,NaN,NaN,NaN,429561,432563,437365,0,0,438566
False,True,False,0.74,0.74,1.48,-11.84,2.775,-9.065,-3.145,gamble,lose,-9.065,115.240416666667,517.053297669918,1,519.104150654108,523.105662263464,532.592731987534,2.01777132967254,524.089394223527,525.089779805508,0.39,7.50288146536332,528.09094327112,440966,443427,448229,450610,454211,459654
False,False,False,0.39,0.39,1.87,1.52083333333333,1.875,0.354166666666667,1.11458333333333,gamble,win,1.875,117.115416666667,534.631388741545,1,535.943955898401,539.928851004108,540.929259944998,1.27952518058009,NaN,NaN,NaN,NaN,NaN,462054,463635,468417,0,0,469638
False,True,False,0.39,0.39,2.26,-7.72,2.925,-4.795,-0.935,certain,certain,-0.935,116.180416666667,542.946732408658,3,544.880845886888,548.832345432835,558.319368439086,1.85100600100122,549.816020115511,550.816406657454,0.5,7.50286386621883,553.817600841692,472038,474359,479101,481482,485083,490507
False,True,True,0.5,0.5,2.76,-9.76,0.475,-9.285,-4.405,gamble,lose,-9.285,106.895416666667,560.336851782282,1,562.437594595598,566.439222359506,567.422898002202,2.06772451591678,NaN,NaN,NaN,NaN,NaN,492907,495428,500229,0,0,501431
False,True,True,0.5,0.5,3.26,-10.26,0.675,-9.585,-4.455,certain,certain,-4.455,102.440416666667,569.440345827024,3,570.874209076923,574.875813162012,575.859476645244,1.40082607342629,NaN,NaN,NaN,NaN,NaN,503831,505551,510353,0,0,511555
False,True,False,0.5,0.5,3.76,-10.76,2.625,-8.135,-2.755,certain,certain,-2.755,99.6854166666666,577.876923830132,3,580.161240786838,584.16275591607,593.649726764765,2.25121674319962,585.146454917616,586.146812660911,0.36,7.50294482242316,589.148082681582,513955,516696,521498,523879,527480,532923
False,True,True,0.36,0.36,4.12,-9.16,2.875,-6.285,-1.705,gamble,lose,-6.285,93.4004166666666,595.688521432283,1,597.901386687241,601.902941174572,602.886704173172,2.17982327868231,NaN,NaN,NaN,NaN,NaN,535323,537984,542786,0,0,543988
False,True,False,0.36,0.36,4.48,-9.52,2.275,-7.245,-2.485,certain,certain,-2.485,90.9154166666666,604.904151678027,3,607.188321121619,611.189883288636,620.676955252653,2.25113002723083,612.173645647301,613.17398611136,0.36,7.50324560835725,616.175152136886,546388,549129,553931,556311,559913,565336
False,True,True,0.36,0.36,4.84,-9.88,0.425,-9.455,-4.515,gamble,lose,-9.455,81.4604166666666,622.69439827773,1,624.011533861165,628.013136026275,628.996811028977,1.28387121751439,NaN,NaN,NaN,NaN,NaN,567736,569317,574118,0,0,575320
False,True,False,0.36,0.36,5.2,-10.24,0.225,-10.015,-4.895,certain,certain,-4.895,76.5654166666666,631.014308771468,3,632.631600891589,636.633112180978,637.616826221871,1.5841928665177,NaN,NaN,NaN,NaN,NaN,577720,579661,584463,0,0,585664
False,True,True,0.36,0.36,5.56,-10.6,2.575,-8.025,-2.725,gamble,lose,-8.025,68.5404166666666,639.6343230044,NaN,642.635496069619,646.637000639341,656.124031965213,NaN,647.620726839639,648.621132260712,0.31,7.50290450430475,651.622274607304,588064,591665,596467,598848,602450,607893
False,False,False,0.31,0.31,5.87,1.57416666666667,3.425,1.85083333333333,0.925416666666667,gamble,win,3.425,71.9654166666666,658.162873990543,1,659.275325376773,663.260128966765,664.260560946597,1.07933581341058,NaN,NaN,NaN,NaN,NaN,610293,611633,616415,0,0,617637
False,True,True,0.31,0.31,6.18,-10.52,1.675,-8.845,-3.585,gamble,lose,-8.845,63.1204166666666,666.277971333184,1,668.11202644615,672.096893073176,681.600606819673,1.80100801691879,673.097319613211,674.097687276022,0.32,7.50286930595757,677.098876980483,620037,622237,627019,629420,633022,638445
False,False,False,0.32,0.32,6.5,1.66166666666667,0.575,-1.08666666666667,-0.255833333333333,certain,certain,-0.255833333333333,62.8645833333333,683.618056884385,3,685.652171450551,689.65372913779,690.637438698846,2.00107514980482,NaN,NaN,NaN,NaN,NaN,640845,643286,648088,0,0,649289
False,True,False,0.32,0.32,6.82,-11.3,0.775,-10.525,-4.875,certain,certain,-4.875,57.9895833333333,692.654894203355,3,694.922451943043,698.924032349198,708.411032316566,2.23428345430875,699.907763029332,700.908111493045,0.42,7.50289298483403,703.909319756553,651689,654410,659212,661593,665194,670637
False,True,False,0.42,0.42,7.24,-13.12,2.675,-10.445,-3.885,certain,certain,-3.885,54.1045833333333,710.449754027475,3,712.546003290743,716.54751586006,717.531278538692,2.06316760880873,NaN,NaN,NaN,NaN,NaN,673037,675558,680360,0,0,681562
False,True,True,0.42,0.42,7.66,-13.54,2.225,-11.315,-4.545,gamble,lose,-11.315,42.7895833333333,719.548684125475,1,721.549510006909,725.551031855808,726.534782694944,1.96777686546557,NaN,NaN,NaN,NaN,NaN,683962,686363,691165,0,0,692366
False,True,False,0.42,0.42,8.08,-13.96,1.075,-12.885,-5.905,certain,certain,-5.905,36.8845833333333,728.552187321824,3,730.169491601351,734.17106944765,743.658102373476,1.58420982572716,735.154747330176,736.155182509858,0.31,7.50279890920501,739.156357174972,694766,696707,701509,703890,707491,712914
False,False,False,0.31,0.31,8.39,1.78416666666667,0.975,-0.809166666666667,0.0829166666666666,gamble,win,0.975,37.8595833333333,745.675553078181,1,747.709677563864,751.711233651149,752.694904814067,2.00103643158218,NaN,NaN,NaN,NaN,NaN,715314,717755,722557,0,0,723758
False,True,False,0.31,0.31,8.7,-13.04,2.425,-10.615,-4.095,certain,certain,-4.095,33.7645833333333,754.712354558811,3,756.613138714165,760.614698641293,770.101689649047,1.86784297437407,761.598374283931,762.598783544847,0.41,7.50284850690514,765.599933891091,726158,728439,733241,735622,739224,744647
False,False,False,0.41,0.41,9.11,2.19416666666667,0.125,-2.06916666666667,-0.972083333333333,gamble,win,0.125,33.8895833333333,772.119117634837,1,774.920212047698,778.921812612913,779.905484735733,2.768056916364,NaN,NaN,NaN,NaN,NaN,747047,750408,755210,0,0,756411
False,True,False,0.41,0.41,9.52,-15.26,-0.225,-15.485,-7.855,gamble,lose,-15.485,18.4045833333333,781.922963599151,NaN,784.924151383631,788.92566907272,798.412675759813,NaN,789.909371594142,790.909799734131,0.19,7.50279666937422,793.910977599153,758811,762413,767215,769595,773197,778620
False,True,True,0.19,0.19,9.71,-12.37,2.725,-9.645,-3.46,gamble,lose,-9.645,8.7595833333333,800.430157503055,1,801.513920309662,805.515482156654,806.499156519421,1.05046964203939,NaN,NaN,NaN,NaN,NaN,781020,782321,787122,0,0,788324
False,False,True,0.19,0.19,9.9,1.49,-0.025,-1.515,-0.77,gamble,win,-0.025,8.7345833333333,808.516609464015,1,810.95093605225,814.952453101403,815.93615946261,2.40127053268952,NaN,NaN,NaN,NaN,NaN,790724,793645,798447,0,0,799648
False,True,False,0.19,0.19,10.09,-12.75,0.175,-12.575,-6.2,certain,certain,-6.2,2.5345833333333,817.953607927426,3,819.821048680576,823.822595488338,833.309624574322,1.83435941871721,824.806315288937,825.806711430429,0.36,7.50288402527804,828.807827858254,802048,804289,809091,811472,815073,820516
False,True,True,0.36,0.36,10.45,-15.49,2.075,-13.415,-5.67,certain,certain,-5.67,-3.13541666666671,835.348348525178,3,837.311175541894,841.312690991093,842.29643543053,1.92975176201435,NaN,NaN,NaN,NaN,NaN,822916,825277,830079,0,0,831261
True,False,True,0.41,-0.59,-0.59,-2.11416666666667,13.5,11.3858333333333,5.69291666666667,gamble,lose,11.3858333333333,8.25041666666663,857.919218174124,1,859.936661199201,863.9215137469,873.425220133737,1.98434025165625,864.921899968816,865.922271151503,0.6,7.50289138493827,868.923451256356,850007,852428,857210,859611,863212,868635
True,True,False,0.6,-0.4,-0.99,6.59,13.7,7.11,3.555,gamble,win,13.7,21.9504166666666,875.442678198102,1,876.426355440693,880.432510033133,881.411615969322,0.950608387589455,NaN,NaN,NaN,NaN,NaN,871035,872216,877018,0,0,878219
True,False,True,0.6,-0.4,-1.39,-1.51583333333333,3.9,2.38416666666667,1.19208333333333,gamble,lose,2.38416666666667,24.3345833333333,883.429127471172,1,885.246453765663,889.231402948848,890.23176101211,1.78426735900575,NaN,NaN,NaN,NaN,NaN,880619,882800,887582,0,0,888803
True,True,False,0.6,-0.4,-1.79,7.39,3.3,-4.09,-0.395,gamble,win,3.3,27.6345833333333,892.249240835488,1,893.799808072974,897.801332161762,907.28838492668,1.51750670204638,898.785030203406,899.785424424976,0.67,7.50290450430475,902.786592050397,891203,893064,897866,900247,903848,909271
True,True,True,0.67,-0.33,-2.12,6.74,12.7,5.96,2.98,gamble,win,12.7,40.3345833333333,909.305795953202,1,910.689661859011,914.674613922019,915.674934547045,1.35082936927211,NaN,NaN,NaN,NaN,NaN,911671,913332,918114,0,0,919335
True,True,False,0.67,-0.33,-2.45,7.07,13.9,6.83,3.415,gamble,win,13.9,54.2345833333333,917.692428449751,1,919.309728569468,923.29456063814,932.798254225578,1.58424374414608,924.294952939788,925.295337881835,0.79,7.50285266677383,928.296502627374,921735,923676,928458,930859,934460,939883
True,False,False,0.79,-0.21,-2.66,-0.956666666666667,7.7,6.74333333333333,3.37166666666667,gamble,lose,6.74333333333333,60.9779166666666,934.815748128225,1,935.582671337586,939.567554923822,940.567922586633,0.73384027503198,NaN,NaN,NaN,NaN,NaN,942283,943204,947986,0,0,949207
True,True,False,0.79,-0.21,-2.87,5.81,6.3,0.49,0.245,gamble,win,6.3,67.2779166666666,942.585440808209,1,943.785861204553,947.770750550553,957.274439338187,1.16738161991816,948.771135492541,949.77157099219,0.74,7.50284690700937,952.77274181752,951607,953048,957830,960231,963832,969255
True,True,False,0.74,-0.26,-3.13,6.77,2.7,-4.07,-0.685,gamble,win,2.7,69.9779166666666,959.291932280932,1,960.575732141791,964.577324067417,965.56102434895,1.25071276666131,NaN,NaN,NaN,NaN,NaN,971655,973196,977998,0,0,979199
True,True,True,0.74,-0.26,-3.39,7.03,10.7,3.67,1.835,gamble,win,10.7,80.6779166666666,967.578448174929,1,968.578832156956,972.563720542996,973.564151242841,0.967293048044667,NaN,NaN,NaN,NaN,NaN,981599,982800,987581,0,0,988803
True,True,False,0.74,-0.26,-3.65,7.29,0.7,-6.59,-2.945,gamble,win,0.7,81.3779166666666,975.581531550852,1,976.865385489189,980.86700013373,990.353966502706,1.25062413082924,981.850703615113,982.851046639087,0.81,7.50289682467701,985.852217784384,991203,992743,997545,999926,1003528,1008971
True,True,False,0.81,-0.19,-3.84,6.5,-1.3,-7.8,-4.55,gamble,win,-1.3,80.0779166666666,992.392700053053,1,994.672357707459,998.673868996848,999.657664313912,2.24655712081585,NaN,NaN,NaN,NaN,NaN,1011371,1014112,1018914,0,0,1020115
True,True,False,0.81,-0.19,-4.03,6.69,12.5,5.81,2.905,gamble,win,12.5,92.5779166666666,1001.6750811002,1,1002.69209214544,1006.67702276952,1016.18071987678,0.98392395110568,1007.67736867332,1008.67775905511,0.88,7.50290482427226,1011.67894651962,1022515,1023736,1028518,1030919,1034520,1040023
True,False,True,0.88,-0.12,-4.15,-0.765833333333333,6.7,5.93416666666667,2.96708333333333,gamble,lose,5.93416666666667,98.5120833333333,1018.26486858533,1,1019.26525448728,1023.266759697,1024.25047981757,0.967343605705537,NaN,NaN,NaN,NaN,NaN,1042423,1043623,1048425,0,0,1049627
True,True,False,0.88,-0.12,-4.27,5.95,12.1,6.15,3.075,gamble,win,12.1,110.612083333333,1026.26794044184,1,1027.40172427142,1031.4032857985,1032.38697168068,1.10069257562282,NaN,NaN,NaN,NaN,NaN,1052027,1053387,1058189,0,0,1059391
True,True,True,0.88,-0.12,-4.39,6.07,10.3,4.23,2.115,gamble,win,10.3,120.912083333333,1034.40442526527,1,1035.3881393061,1039.3896915536,1048.87676063774,0.950682624068577,1040.37347951106,1041.37380013603,0.84,7.50288498523878,1044.37498024094,1061791,1062971,1067773,1070154,1073755,1079178
True,True,False,0.84,-0.16,-4.55,6.79,1.1,-5.69,-2.295,gamble,win,1.1,122.012083333333,1050.89416622458,1,1052.96164179209,1056.94651641877,1057.94694199885,2.0344345511985,NaN,NaN,NaN,NaN,NaN,1081578,1084059,1088841,0,0,1090063
True,True,True,0.84,-0.16,-4.71,6.95,4.7,-2.25,1.225,gamble,win,4.7,126.712083333333,1059.96435974509,1,1062.01516217162,1066.01671377913,1075.50373070571,2.01774253108306,1067.00045757863,1068.00091323734,0.77,7.50281202862971,1071.00198486727,1092463,1094924,1099726,1102107,1105708,1111131
True,True,False,0.77,-0.23,-4.94,8.16,1.7,-6.46,-2.38,gamble,win,1.7,128.412083333333,1077.5212284482,1,1080.08890016656,1084.09040281636,1085.07412005711,2.53458558412967,NaN,NaN,NaN,NaN,NaN,1113531,1116612,1121414,0,0,1122616
True,False,False,0.77,-0.23,-5.17,-1.23583333333333,11.5,10.2641666666667,5.13208333333333,gamble,lose,10.2641666666667,138.67625,1087.09161939955,1,1088.04198907828,1092.04359572323,1101.53062128939,0.917269465164281,1093.02726592612,1094.02760447032,0.86,7.50288882502355,1097.02877465566,1125016,1126156,1130958,1133339,1136940,1142363
True,True,True,0.86,-0.14,-5.31,7.27,5.1,-2.17,1.465,gamble,win,5.1,143.77625,1103.54801919655,1,1104.86514358048,1108.85007772438,1109.8504681061,1.284036329831,NaN,NaN,NaN,NaN,NaN,1144763,1146344,1151126,0,0,1152347
True,True,False,0.86,-0.14,-5.45,7.41,0.9,-6.51,-2.805,gamble,win,0.9,144.67625,1111.86791529099,NaN,1114.86903971847,1118.87061724474,1119.85431720631,NaN,NaN,NaN,NaN,NaN,NaN,1154747,1158349,1163151,0,0,1164352
True,True,False,0.86,-0.14,-5.59,7.55,0.3,-7.25,-3.475,certain,certain,-3.475,141.20125,1121.87179798959,3,1124.32275740075,1128.3243112482,1137.81132849475,2.41786399733974,1129.30799937027,1130.308369593,0.72,7.50291122397175,1133.30954073824,1166752,1169693,1174495,1176876,1180477,1185921
True,True,True,0.72,-0.28,-5.87,9.79,10.5,0.710000000000001,0.355,gamble,win,10.5,151.70125,1139.8500358063,1,1140.79581305961,1144.78070240561,1145.78105374915,0.917304663511459,NaN,NaN,NaN,NaN,NaN,1188321,1189461,1194243,0,0,1195464
True,True,True,0.72,-0.28,-6.15,10.07,-1.5,-11.57,-6.535,gamble,win,-1.5,150.20125,1147.79850509384,1,1149.89938198088,1153.90087791096,1163.38794891501,2.06831680826144,1154.88460347132,1155.88502969139,0.83,7.50286578614032,1158.8861601986,1197864,1200385,1205187,1207568,1211170,1216593
True,True,False,0.83,-0.17,-6.32,8.7,0.5,-8.2,-3.85,gamble,win,0.5,150.70125,1165.40537242102,1,1168.05637784605,1172.04127231176,1173.04169981176,2.61795256927144,NaN,NaN,NaN,NaN,NaN,1218993,1222174,1226956,0,0,1228177
True,True,True,0.83,-0.17,-6.49,8.87,9.7,0.829999999999998,0.414999999999999,gamble,win,9.7,160.40125,1175.05910379865,1,1176.15957462467,1180.14446013083,1189.64815243834,1.06735429319087,1181.144798995,1182.14523641457,0.82,7.50297906080959,1185.15099486551,1230577,1231898,1236680,1239080,1242682,1248085
