isCongruent,isWinOnTop,lastHappyRating,diff,sumDiff,RPE,winAmount,loseAmount,certainAmount,choice,outcome,outcomeAmount,currentWinnings,fixCross_started,outcome1Box_stopped,choiceKey_started,choiceKey_stopped,outcome2Box_2_started,outcome2Box_3_started,choiceKey_rt,fixCross_ISI_stopped,happyText_stopped,happySlider_rt,happySlider_started,happySlider_stopped,trial_sample,choice_sample,outcome_sample,happyText_sample,happySlider_sample,fixCross_ITI_sample
True,True,0.47,-0.53,-0.53,7.95,10.7,2.75,1.375,gamble,win,10.7,10.7,188.203871143283,None,188.203871143283,None,191.205008999561,195.189855288132,NaN,,,NaN,NaN,,12338,15939,20721,0,0,21942
False,True,0.47,-0.53,-1.06,-1.94333333333333,6.3,4.35666666666667,2.17833333333333,gamble,lose,4.35666666666667,15.0566666666667,198.207668370567,None,198.207668370567,None,199.641544553568,203.626381882583,1.40078939578962,,,NaN,NaN,,24342,26063,30845,0,0,32066
True,True,0.47,-0.53,-1.59,9.01,12.7,3.69,1.845,gamble,win,12.7,27.7566666666667,206.644192405278,None,206.644192405278,None,208.144816210261,212.129583143396,1.46752645843662,None,None,7.50274560623802,217.131533754175,None,34466,36267,41049,43450,47052,52475
False,True,0.5,-0.5,-2.09,-1.92416666666667,12.3,10.3758333333333,5.18791666666667,gamble,lose,10.3758333333333,38.1325,223.650686441571,None,223.650686441571,None,225.217947155004,229.219414912746,1.53422768320888,,,NaN,NaN,,54875,56755,61557,0,0,62758
True,False,0.5,-0.5,-2.59,9.59,4.9,-4.69,0.105,certain,certain,0.105,38.2375,232.220602686284,None,232.220602686284,None,234.38803618995,238.372928875964,2.1343559960369,None,None,7.50270208867732,243.374758853577,None,65158,67759,72541,74942,78543,83967
False,True,0.5,-0.5,-3.09,-2.0075,12.1,10.0925,5.04625,gamble,lose,10.0925,48.33,249.893919860478,None,249.893919860478,None,251.144435431692,255.145897749695,1.21742430422455,,,NaN,NaN,,86367,87868,92669,0,0,93871
False,True,0.5,-0.5,-3.59,-2.04916666666667,10.1,8.05083333333333,4.02541666666667,gamble,lose,8.05083333333333,56.3808333333333,258.147088403115,None,258.147088403115,None,259.214101930265,263.215601046337,1.03392993996385,,,NaN,NaN,,96271,97551,102353,0,0,103555
True,True,0.5,-0.5,-4.09,11.09,1.7,-9.39,-3.845,gamble,win,1.7,58.0808333333333,266.21675682161,None,266.21675682161,None,267.750674122246,271.735514011234,1.50082475389354,None,None,7.50278144422919,276.7374006256,None,105955,107795,112577,114978,118580,124003
False,False,0.49,-0.51,-4.6,-2.16833333333333,4.1,1.93166666666667,0.965833333333333,gamble,lose,1.93166666666667,60.0125,283.256595870596,None,283.256595870596,None,284.457055044943,288.45856568031,1.16736630746163,,,NaN,NaN,,126403,127843,132645,0,0,133846
False,True,0.49,-0.51,-5.11,-2.21083333333333,1.1,-1.11083333333333,-0.00541666666666663,gamble,lose,-1.11083333333333,58.9016666666667,291.459649139666,None,291.459649139666,None,292.810163270915,296.795053716982,1.31740814517252,None,None,7.50273504678626,301.796868335339,None,136246,137867,142649,145050,148651,154074
False,True,0.49,-0.51,-5.62,-2.25333333333333,-1.5,-3.75333333333333,-2.62666666666667,certain,certain,-2.62666666666667,56.275,308.316069020191,None,308.316069020191,None,309.933309974615,313.934811330633,1.58415384730324,,,NaN,NaN,,156474,158415,163217,0,0,164418
True,True,0.49,-0.51,-6.13,13.27,-0.1,-13.37,-6.735,certain,certain,-6.735,49.54,316.935961026233,None,316.935961026233,None,318.986766821123,322.971580471494,2.01767421024852,None,None,7.50274624617305,327.973464205978,None,166818,169280,174061,176462,180064,185487
True,False,0.48,-0.52,-6.65,13.93,12.9,-1.03,-0.515,gamble,win,12.9,62.44,334.492612733738,None,334.492612733738,None,335.759764173185,339.761322805891,1.23408833111171,,,NaN,NaN,,187887,189407,194209,0,0,195411
True,True,0.48,-0.52,-7.17,14.45,3.3,-11.15,-3.925,certain,certain,-3.925,58.515,342.762391226133,None,342.762391226133,None,344.196286287974,348.181212892057,1.4008121144725,,,NaN,NaN,,197811,199531,204313,0,0,205535
True,False,0.48,-0.52,-7.69,14.97,-1.1,-16.07,-8.585,certain,certain,-8.585,49.93,351.198946938966,None,351.198946938966,None,353.166318686213,357.16787827888,1.93427216075361,None,None,7.50268832943402,362.153074627859,None,207935,210295,215097,217478,221079,226503
True,False,0.48,-0.52,-8.21,15.49,7.9,-7.59,0.155000000000001,certain,certain,0.155000000000001,50.085,368.672192757251,None,368.672192757251,None,370.739758573589,374.724481349112,2.0343711952446,,,NaN,NaN,,228903,231384,236166,0,0,237387
False,False,0.48,-0.52,-8.73,-2.5475,13.3,10.7525,5.37625,gamble,lose,10.7525,60.8375,377.742321950034,None,377.742321950034,None,379.02615149552,383.027708528331,1.25068804144394,None,None,7.50271136814263,388.012869359343,None,239787,241327,246130,248510,252112,257535
True,False,0.49,-0.51,-9.24,16.38,13.7,-2.68,-1.34,gamble,win,13.7,74.5375,394.532041565748,None,394.532041565748,None,396.032554656966,400.017437423579,1.46744294313248,,,NaN,NaN,,259935,261736,266518,0,0,267739
False,True,0.49,-0.51,-9.75,-2.5975,2.3,-0.2975,1.00125,gamble,lose,-0.2975,74.24,403.035206988454,None,403.035206988454,None,404.218991576461,408.203856743989,1.15074067853857,,,NaN,NaN,,270139,271559,276341,0,0,277563
True,False,0.49,-0.51,-10.26,17.4,11.7,-5.7,-2.85,gamble,win,11.7,85.94,411.221637188341,None,411.221637188341,None,412.505458414322,416.490331261419,1.25077443663031,None,None,7.50277792441193,421.492177878041,None,279963,281503,286285,288686,292287,297710
False,False,0.46,-0.54,-10.8,-2.79,12.5,9.71,4.855,gamble,lose,9.71,95.65,428.011331205489,None,428.011331205489,None,429.145093314815,433.146663466818,1.1004958122503,,,NaN,NaN,,300110,301471,306273,0,0,307474
False,True,0.46,-0.54,-11.34,-2.835,4.3,1.465,0.7325,gamble,lose,1.465,97.115,436.147741806461,None,436.147741806461,None,437.148124185042,441.133014631225,0.967111601727083,None,None,7.50268032983877,446.134843968786,None,309874,311075,315857,318258,321859,327282
True,True,0.47,-0.53,-11.87,19.29,9.3,-9.98999999999999,-0.344999999999997,certain,certain,-0.344999999999997,96.77,452.6539902566,None,452.6539902566,None,454.32134552463,458.306188933435,1.63423168298323,,,NaN,NaN,,329682,331683,336465,0,0,337686
False,False,0.47,-0.53,-12.4,-2.88833333333333,5.5,2.61166666666667,1.30583333333333,gamble,lose,2.61166666666667,99.3816666666667,461.323947938974,None,461.323947938974,None,462.207612053724,466.192503779777,0.850597486482002,None,None,7.50273504690267,471.194390074234,None,340086,341147,345929,348330,351931,357354
True,True,0.46,-0.54,-12.94,20.5,7.3,-13.2,-2.95,certain,certain,-2.95,96.4316666666667,477.71348292497,None,477.71348292497,None,479.147409025114,483.148913580808,1.40076923696324,,,NaN,NaN,,359754,361475,366276,0,0,367478
True,True,0.46,-0.54,-13.48,21.04,2.7,-18.34,-7.82,certain,certain,-7.82,88.6116666666667,486.150025198585,None,486.150025198585,None,487.400495012291,491.402048205375,1.21738686633762,,,NaN,NaN,,369878,371379,376181,0,0,377382
True,False,0.46,-0.54,-14.02,21.58,3.7,-17.88,-7.09,certain,certain,-7.09,81.5216666666667,494.403185101692,None,494.403185101692,None,495.953717791825,499.938617197447,1.51750221988186,None,None,7.50278144422919,504.94044109527,None,379782,381642,386424,388825,392427,397830
True,False,0.48,0.48,0.48,-7.2,10.3,3.1,1.55,gamble,lose,3.1,84.6216666666667,528.399338277057,None,528.399338277057,None,529.866605230141,533.851399361622,1.43418784555979,,,NaN,NaN,,420578,422338,427121,0,0,428342
True,False,0.48,0.48,0.96,-7.68,5.9,-1.78,-0.89,gamble,lose,-1.78,82.8416666666667,536.869209564291,None,536.869209564291,None,538.436524674646,542.421314646374,1.53416080691386,None,None,7.502674250165,547.423190701287,None,430742,432623,437404,439806,443407,448830
True,True,0.46,0.46,1.42,-7.86,7.5,-0.36,-0.18,gamble,lose,-0.36,82.4816666666667,553.942343068775,None,553.942343068775,None,555.242830561474,559.227675250266,1.26746150210965,,,NaN,NaN,,451230,452791,457572,0,0,458794
False,False,0.46,0.46,1.88,1.76666666666667,2.775,1.00833333333333,1.89166666666667,gamble,win,2.775,85.2566666666667,562.245481613092,None,562.245481613092,None,563.696036222042,567.680974985473,1.4174659018172,None,None,7.50275648559909,572.682756325696,None,461194,462935,467716,470117,473719,479142
True,True,0.43,0.43,2.31,-8.33,0.7,-7.63,-3.465,certain,certain,-3.465,81.7916666666667,579.201908053132,None,579.201908053132,None,580.585789275821,584.587282632245,1.35076883703005,,,NaN,NaN,,481542,483202,488004,0,0,489206
True,False,0.43,0.43,2.74,-8.76,3.1,-5.66,-1.28,certain,certain,-1.28,80.5116666666667,587.588416968705,None,587.588416968705,None,589.13905397302,593.123897701735,1.51752525859047,,,NaN,NaN,,491606,493467,498248,0,0,499470
False,True,0.43,0.43,3.17,1.76916666666667,2.875,1.10583333333333,1.99041666666667,gamble,win,2.875,83.3866666666667,596.141710144235,None,596.141710144235,None,596.975296743447,600.960193589213,0.800518370931968,None,None,7.50274336640723,605.962080843514,None,501870,502870,507652,510053,513655,519078
True,False,0.39,0.39,3.56,-9.02,12.7,3.68,1.84,gamble,lose,3.68,87.0666666666667,612.48122489138,None,612.48122489138,None,613.348173142294,617.349687937531,0.833875222946517,,,NaN,NaN,,521478,522518,527319,0,0,528521
True,True,0.39,0.39,3.95,-9.41,2.3,-7.11,-2.405,certain,certain,-2.405,84.6616666666667,620.3508225939,None,620.3508225939,None,622.284889966133,626.2863970818,1.90101354324725,None,None,7.50279872317333,631.271605590126,None,530921,533241,538044,540425,544026,549449
True,False,0.4,0.4,4.35,-9.95,11.3,1.35,0.675,gamble,lose,1.35,86.0116666666667,637.7907528379,None,637.7907528379,None,638.791193453246,642.775973825483,0.967280232347548,,,NaN,NaN,,551849,553050,557832,0,0,559053
True,False,0.4,0.4,4.75,-10.35,4.1,-6.25,-1.075,certain,certain,-1.075,84.9366666666667,645.793896021903,None,645.793896021903,None,647.761254009791,651.746040141792,1.93425552174449,,,NaN,NaN,,561453,563814,568596,0,0,569817
True,True,0.4,0.4,5.15,-10.75,8.1,-2.65,-1.325,gamble,lose,-2.65,82.2866666666666,654.763901221566,None,654.763901221566,None,656.297803802998,660.282656171243,1.50079819536768,None,None,7.50272352749016,665.284486148856,None,572217,574058,578839,581241,584842,590265
False,False,0.4,0.4,5.55,1.8625,0.125,-1.7375,-0.80625,certain,certain,-0.80625,81.4804166666666,671.803660915,None,671.803660915,None,674.471372323227,678.472853520187,2.63461278169416,,,NaN,NaN,,592665,595867,600668,0,0,601870
True,False,0.4,0.4,5.95,-11.55,8.7,-2.85,-1.425,gamble,lose,-2.85,78.6304166666666,681.47399297636,None,681.47399297636,None,682.7244371915,686.725967665785,1.2173427088419,None,None,7.50271136814263,691.711252009962,None,604270,605771,610572,612953,616554,621978
False,False,0.41,0.41,6.36,1.965,0.275,-1.69,-0.7075,certain,certain,-0.7075,77.9229166666666,698.230306142825,None,698.230306142825,None,699.964294479578,703.949168286636,1.7008967497386,,,NaN,NaN,,624378,626458,631241,0,0,632462
True,False,0.41,0.41,6.77,-12.51,4.5,-8.01,-1.755,certain,certain,-1.755,76.1679166666666,706.966956730466,None,706.966956730466,None,708.384148407727,712.385714720003,1.38410712999757,None,None,7.50270816835109,717.370870751212,None,634862,636563,641365,643746,647347,652770
True,True,0.5,0.5,7.27,-14.27,10.9,-3.37,-1.685,gamble,lose,-3.37,72.7979166666666,723.890076555777,None,723.890076555777,None,725.157164638746,729.158730951138,1.23398657678626,,,NaN,NaN,,655170,656690,661492,0,0,662694
False,True,0.5,0.5,7.77,2.3975,3.125,0.7275,1.92625,gamble,win,3.125,75.9229166666666,732.159872007207,None,732.159872007207,None,733.310295263538,737.295147951692,1.11731055052951,,,NaN,NaN,,665094,666475,671256,0,0,672478
True,False,0.5,0.5,8.27,-15.27,7.1,-8.17,-0.535000000000002,certain,certain,-0.535000000000002,75.3879166666666,740.312961674179,None,740.312961674179,None,742.196954730549,746.181791739655,1.85092578816693,None,None,7.50267905008513,751.183672594372,None,674878,677138,681920,684322,687923,693346
True,True,0.48,0.48,8.75,-15.47,13.3,-2.17,-1.085,gamble,lose,-2.17,73.2179166666666,757.702871999238,None,757.702871999238,None,759.019989920547,763.004835569183,1.28406281257048,,,NaN,NaN,,695746,697326,702108,0,0,703330
False,False,0.48,0.48,9.23,2.44916666666667,2.225,-0.224166666666667,1.00041666666667,gamble,win,2.225,75.4429166666666,766.022638092283,None,766.022638092283,None,768.140174870263,772.124949482852,2.08441703265999,None,None,7.50272000767291,777.126831297413,None,705730,708271,713053,715453,719055,724478
False,False,0.48,0.48,9.71,2.48916666666667,0.825,-1.66416666666667,-0.419583333333333,gamble,win,0.825,76.2679166666666,783.645977265318,None,783.645977265318,None,785.096527714515,789.148061148589,1.41756733623333,,,NaN,NaN,,726878,728618,733480,0,0,734622
True,False,0.48,0.48,10.19,-16.91,-1.3,-18.21,-9.755,certain,certain,-9.755,66.5129166666666,792.099173006369,None,792.099173006369,None,794.133322773967,798.134792771656,2.00101338326931,None,None,7.50268544966821,803.120001919917,None,737022,739463,744265,746646,750247,755670
True,False,0.5,0.5,10.69,-17.69,6.5,-11.19,-2.345,certain,certain,-2.345,64.1679166666666,809.639149487601,None,809.639149487601,None,811.773313814425,815.77485292824,2.10107050009537,,,NaN,NaN,,758070,760631,765433,0,0,766634
True,True,0.5,0.5,11.19,-18.19,11.9,-6.29,-3.145,gamble,lose,-6.29,57.8779166666666,818.775939267478,None,818.775939267478,None,819.976450598799,823.961282808217,1.16740118560847,,,NaN,NaN,,769034,770475,775257,0,0,776478
True,False,0.5,0.5,11.69,-18.69,3.5,-15.19,-5.845,certain,certain,-5.845,52.0329166666666,826.979104210157,None,826.979104210157,None,829.496681305813,833.498220739653,2.48447590926662,None,None,7.5027356868377,838.483387970249,None,778878,781900,786701,789082,792684,798107
True,False,0.46,0.46,12.15,-18.59,4.3,-14.29,-4.995,certain,certain,-4.995,47.0379166666666,845.00253777788,None,845.00253777788,None,847.170050637214,851.171609909856,2.13441007293295,,,NaN,NaN,,800507,803108,807910,0,0,809091
False,False,0.5,-0.5,-0.5,-1.79166666666667,7.9,6.10833333333333,3.05416666666667,gamble,lose,6.10833333333333,53.14625,869.995332741411,None,869.995332741411,None,871.062429144047,875.047296551405,1.03398145700339,None,None,7.50277728447691,880.049121729215,None,830499,831779,836561,838962,842563,847986
True,True,0.5,-0.5,-1,8,12.5,4.5,2.25,gamble,win,12.5,65.64625,886.568271536846,None,886.568271536846,None,887.668682873831,891.670315102325,1.06732486980036,,,NaN,NaN,,850386,851707,856509,0,0,857710
False,True,0.5,-0.5,-1.5,-1.875,3.1,1.225,0.6125,gamble,lose,1.225,66.8712499999999,894.671345764655,None,894.671345764655,None,896.05524618621,900.040033918107,1.35079123568721,,,NaN,NaN,,860110,861770,866553,0,0,867774
True,True,0.5,-0.5,-2,9,11.1,2.1,1.05,gamble,win,11.1,77.9712499999999,903.057896277867,None,903.057896277867,None,904.124925484182,908.109762813314,1.03380386694334,None,None,7.5027907238109,913.111636308371,None,870174,871454,876237,878637,882239,887662
False,False,0.5,-0.5,-2.5,-1.95833333333333,7.1,5.14166666666667,2.57083333333333,gamble,lose,5.14166666666667,83.1129166666666,919.630759237451,None,919.630759237451,None,920.847914436832,924.832751445938,1.184071931988,,,NaN,NaN,,890062,891522,896304,0,0,897525
True,False,0.5,-0.5,-3,10,8.9,-1.1,-0.55,gamble,win,8.9,92.0129166666666,927.850563248503,None,927.850563248503,None,929.251163214911,933.235945507069,1.36749334039632,None,None,7.50277056486811,938.237821882009,None,899925,901606,906388,908789,912391,917814
True,False,0.5,-0.5,-3.5,10.5,5.1,-5.4,-0.15,certain,certain,-0.15,91.8629166666666,944.756942251232,None,944.756942251232,None,946.691032662173,950.692524098675,1.90101290319581,,,NaN,NaN,,920214,922535,927337,0,0,928538
True,False,0.5,-0.5,-4,11,12.7,1.7,0.85,gamble,win,12.7,104.562916666667,953.693687233492,None,953.693687233492,None,954.544063932495,958.545562408515,0.817105282098055,None,None,7.50303487002384,963.530779236346,None,930938,931958,936760,939141,942743,948166
True,False,0.5,-0.5,-4.5,11.5,-0.3,-11.8,-6.05,certain,certain,-6.05,98.5129166666666,970.049877206911,None,970.049877206911,None,971.800562528544,975.802075083833,1.7175777356606,,,NaN,NaN,,950566,952667,957468,0,0,958670
True,True,0.5,-0.5,-5,12,6.9,-5.1,0.9,gamble,win,6.9,105.412916666667,978.803184461663,None,978.803184461663,None,980.687253033859,984.672081083525,1.85096386598889,,,NaN,NaN,,961070,963331,968113,0,0,969334
False,True,0.5,-0.5,-5.5,-2.20833333333333,7.3,5.09166666666667,2.54583333333333,gamble,lose,5.09166666666667,110.504583333333,987.689888726221,None,987.689888726221,None,988.656918732566,992.64176246128,0.933995056315325,None,None,7.50263713230379,997.643644595868,None,971734,972894,977676,980077,983678,989102
True,True,0.5,-0.5,-6,13,3.5,-9.5,-3,certain,certain,-3,107.504583333333,1004.16284496069,None,1004.16284496069,None,1006.48036029981,1010.46517619013,2.28423240291886,,,NaN,NaN,,991502,994283,999065,0,0,1000286
False,True,0.5,-0.5,-6.5,-2.29166666666667,9.9,7.60833333333333,3.80416666666667,gamble,lose,7.60833333333333,115.112916666667,1013.48298703274,None,1013.48298703274,None,1014.51671218418,1018.5015495132,1.00063452450559,None,None,7.5027408064343,1023.50342812808,None,1002686,1003926,1008709,1011110,1014711,1020134
True,True,0.5,-0.5,-7,14,7.5,-6.5,0.5,gamble,win,7.5,122.612916666667,1030.02258209547,None,1030.02258209547,None,1031.12302159076,1035.12448358897,1.06735110841691,,,NaN,NaN,,1022534,1023854,1028656,0,0,1029858
True,True,0.5,-0.5,-7.5,14.5,3.3,-11.2,-3.95,certain,certain,-3.95,118.662916666667,1038.12564736372,None,1038.12564736372,None,1039.8930501492,1043.82781956217,1.6843229578808,,,NaN,NaN,,1032258,1034379,1039100,0,0,1040322
False,True,0.5,-0.5,-8,-2.41666666666667,9.1,6.68333333333333,3.34166666666667,gamble,lose,6.68333333333333,125.34625,1046.84560704604,None,1046.84560704604,None,1048.36291215697,1052.34769156924,1.48423976264894,None,None,7.50269408919849,1057.34960218228,None,1042722,1044543,1049325,1051725,1055327,1060750
True,False,0.45,-0.55,-8.55,16.25,-1.1,-17.35,-9.225,certain,certain,-9.225,116.12125,1063.8687225515,None,1063.8687225515,None,1065.61944179132,1069.62096426601,1.71762637293432,,,NaN,NaN,,1063150,1065251,1070052,0,0,1071254
False,True,0.45,-0.55,-9.1,-2.68333333333333,5.9,3.21666666666667,1.60833333333333,gamble,lose,3.21666666666667,119.337916666667,1072.62207236397,None,1072.62207236397,None,1073.9892210837,1077.97406673233,1.33405969268642,None,None,7.5026716904249,1082.97594726703,None,1073654,1075295,1080076,1082477,1086079,1091502
True,True,0.48,-0.52,-9.62,16.9,1.5,-15.4,-6.95,certain,certain,-6.95,112.387916666667,1089.49511531356,None,1089.49511531356,None,1091.22910141037,1095.23065012356,1.70086123177316,,,NaN,NaN,,1093902,1095983,1100785,0,0,1101986
True,True,0.48,-0.52,-10.14,17.42,5.5,-11.92,-3.21,certain,certain,-3.21,109.177916666667,1098.2317921397,None,1098.2317921397,None,1100.84942795208,1104.85093186784,2.58454550546594,None,None,7.50274592614733,1109.83610933786,None,1104386,1107527,1112329,1114710,1118311,1123734
True,False,0.5,-0.5,-10.64,17.64,0.1,-17.54,-8.72,certain,certain,-8.72,100.457916666667,1116.35526234529,None,1116.35526234529,None,1118.37271224812,1122.37420720444,1.98439799377229,,,NaN,NaN,,1126134,1128556,1133357,0,0,1134559
True,False,0.5,-0.5,-11.14,18.14,8.5,-9.64,-0.57,certain,certain,-0.57,99.8879166666666,1125.3753252218,None,1125.3753252218,None,1127.75960514217,1131.76108985895,2.3511806539027,,,NaN,NaN,,1136959,1139820,1144622,0,0,1145823
True,True,0.5,-0.5,-11.64,18.64,10.9,-7.74,1.58,gamble,win,10.9,110.787916666667,1134.76223027508,None,1134.76223027508,None,1135.87932419789,1139.88083451334,1.08400393580087,None,None,7.50271104823332,1144.86603918183,None,1148223,1149564,1154366,1156747,1160348,1165771
True,False,0.45,-0.55,-12.19,19.89,0.5,-19.39,-9.445,certain,certain,-9.445,101.342916666667,1151.38519410917,None,1151.38519410917,None,1153.58601838304,1157.58753733791,2.16772084764671,,,NaN,NaN,,1168171,1170812,1175614,0,0,1176815
True,True,0.45,-0.55,-12.74,20.44,9.5,-10.94,-0.720000000000002,certain,certain,-0.720000000000002,100.622916666667,1160.5886687946,None,1160.5886687946,None,1163.25637380313,1167.25785979989,2.63457246404141,None,None,7.50272928713821,1172.24306958809,None,1179215,1182416,1187219,1189599,1193201,1198624
False,False,0.5,-0.5,-13.24,-2.85333333333333,4.9,2.04666666666667,1.02333333333333,gamble,lose,2.04666666666667,102.669583333333,1178.76222003566,None,1178.76222003566,None,1179.71267305035,1183.69741502474,0.917359827901237,,,NaN,NaN,,1201024,1202164,1206946,0,0,1208168
True,False,0.5,-0.5,-13.74,20.74,10.1,-10.64,-0.270000000000001,certain,certain,-0.270000000000001,102.399583333333,1186.71526778501,None,1186.71526778501,None,1188.71600566374,1192.71751661913,1.96766837046016,None,None,7.50264769175556,1197.70270208875,None,1210568,1212969,1217770,1220151,1223753,1229156
