lifeHappySlider_response,blockHappySlider_response,isHappyBlock,isCongruent,isWinOnTop,lastHappyRating,diff,sumDiff,RPE,winAmount,loseAmount,certainAmount,choice,outcome,outcomeAmount,currentWinnings,outcome1Box_started,choiceKey_keys,choiceKey_rt,outcome1Box_2_started,outcome1Box_3_started,fixCross_ITI_started,fixCross_ISI_started,happyText_started,happySlider_response,happySlider_rt,happySlider_started,trial_sample,choice_sample,outcome_sample,happyText_sample,happySlider_sample,fixCross_ITI_sample
0.3,0.26,True,True,True,0.26,-0.74,-0.74,11.1,9.7,-1.4,-0.7,gamble,win,9.7,9.7,103.64634100295,1,1.90104878299826,105.580475280196,109.56535022684,110.565744128435,NaN,NaN,NaN,NaN,NaN,13721,16042,20824,0,0,22046
NaN,NaN,True,True,True,0.26,-0.74,-1.48,11.84,6.1,-5.74,0.18,certain,certain,0.18,9.88,112.583198672961,3,1.21739688321759,113.833686490168,117.835240017586,118.818953098511,NaN,NaN,NaN,NaN,NaN,24446,25946,30748,0,0,31949
NaN,NaN,True,False,True,0.26,-0.74,-2.22,-2.775,11.9,9.125,4.5625,gamble,lose,9.125,19.005,120.836395483606,1,1.35079385091376,122.220202192155,126.205083538498,135.708838883049,127.205485439721,128.205888300901,0.43,7.50286930594302,131.207077685332,34349,36010,40792,43193,46794,52217
NaN,NaN,True,True,False,0.43,-0.57,-2.79,10.77,2.7,-8.07,-2.685,certain,certain,-2.685,16.32,137.726264948902,3,2.4345486578859,140.19392597978,144.195467987738,145.179179468738,NaN,NaN,NaN,NaN,NaN,54617,57578,62380,0,0,63582
NaN,NaN,True,True,True,0.43,-0.57,-3.36,11.34,10.1,-1.24,-0.62,certain,certain,-0.62,15.7,147.196580575757,3,1.90100078524483,149.13066973511,153.132270940303,162.619282427127,154.115985301167,155.116303366307,0.36,7.50290482428318,158.117522189365,65982,68303,73105,75485,79087,84510
NaN,NaN,True,True,True,0.36,-0.64,-4,12.96,10.5,-2.46,-1.23,gamble,win,10.5,26.2,164.636739211546,1,1.63422700891533,166.30404819487,170.305602042274,171.289317043109,NaN,NaN,NaN,NaN,NaN,86910,88911,93712,0,0,94914
NaN,NaN,True,True,False,0.36,-0.64,-4.64,13.6,8.7,-4.9,1.9,certain,certain,1.9,28.1,173.306720070039,3,1.33414854857983,174.673967232251,178.658839938998,179.659232560658,NaN,NaN,NaN,NaN,NaN,97314,98954,103736,0,0,104958
NaN,NaN,True,True,True,0.36,-0.64,-5.28,14.24,0.5,-13.74,-6.62,gamble,win,0.5,28.6,181.676653186765,1,2.66806222813466,184.377732752328,188.379283399881,197.866306406166,189.36299744076,190.363394222222,0.48,7.50284178723086,193.364541688614,107358,110599,115401,117782,121383,126806
NaN,NaN,True,True,False,0.48,-0.52,-5.8,13.08,10.7,-2.38,-1.19,gamble,win,10.7,39.3,199.883751991107,1,1.717574474922,201.634430519407,205.635984686796,206.619701607542,NaN,NaN,NaN,NaN,NaN,129206,131307,136109,0,0,137310
NaN,NaN,True,True,False,0.48,-0.52,-6.32,13.6,8.5,-5.1,1.7,certain,certain,1.7,41,208.637150712319,3,1.40083983276418,210.071037961108,214.072591488526,223.559606815172,215.056304249469,216.056694311243,0.47,7.50282258812877,219.057844977484,139710,141431,146233,148614,152215,157638
NaN,NaN,True,True,False,0.47,-0.53,-6.85,14.27,3.9,-10.37,-3.235,certain,certain,-3.235,37.765,225.57705655992,3,2.30095681929743,227.911297904164,231.91284567185,232.896563552553,NaN,NaN,NaN,NaN,NaN,160038,162839,167641,0,0,168843
NaN,NaN,True,True,True,0.47,-0.53,-7.38,14.8,2.3,-12.5,-5.1,certain,certain,-5.1,32.665,234.91401777709,3,2.36783977452433,237.314941125951,241.316497853222,250.803511259954,242.300161336465,243.300602275864,0.36,7.50280946874409,246.301751022194,171243,174124,178926,181307,184908,190331
NaN,NaN,True,False,True,0.36,-0.64,-8.02,-2.90833333333333,2.1,-0.808333333333334,0.645833333333333,gamble,lose,-0.808333333333334,31.8566666666667,252.820962924612,1,1.41747777544151,254.271519474612,258.256405940716,259.256788002866,NaN,NaN,NaN,NaN,NaN,192731,194472,199254,0,0,200475
NaN,NaN,True,True,True,0.36,-0.64,-8.66,17.62,3.1,-14.52,-5.71,certain,certain,-5.71,26.1466666666667,261.274241587435,3,2.30109025306228,263.608421174566,267.61003965895,268.593749540021,NaN,NaN,NaN,NaN,NaN,202875,205676,210478,0,0,211680
NaN,NaN,True,True,False,0.36,-0.64,-9.3,18.26,1.5,-16.76,-7.63,gamble,win,1.5,27.6466666666667,270.611199924741,1,2.35118935243372,272.995455892302,276.997008779752,286.484019306619,277.980660743531,278.981120882036,0.54,7.50281426851507,281.982268348424,214080,216941,221743,224124,227725,233148
NaN,NaN,True,True,False,0.54,-0.46,-9.76,16.2,-1.5,-17.7,-9.6,certain,certain,-9.6,18.0466666666667,288.501470651292,3,2.10106695815193,290.635635583109,294.637141752737,295.620905711286,NaN,NaN,NaN,NaN,NaN,235548,238109,242910,0,0,244112
NaN,NaN,True,True,False,0.54,-0.46,-10.22,16.66,6.3,-10.36,-2.03,gamble,win,6.3,24.3466666666667,297.638345856481,1,1.70085973583264,299.372313485514,303.373939009572,312.860925217574,304.357632571409,305.358010153766,0.48,7.50285074681233,308.359157300172,246512,248593,253395,255776,259377,264800
NaN,NaN,True,False,True,0.48,-0.52,-10.74,-2.715,8.1,5.385,2.6925,gamble,lose,5.385,29.7316666666667,314.878375282307,1,1.1673800200042,316.078848156216,320.08034312637,321.064110924741,NaN,NaN,NaN,NaN,NaN,267200,268641,273443,0,0,274644
NaN,NaN,True,True,True,0.48,-0.52,-11.26,18.54,1.7,-16.84,-7.57,gamble,win,1.7,31.4316666666667,323.081509151893,1,2.35120855153582,325.465816317064,329.4673672846,330.451082285435,NaN,NaN,NaN,NaN,NaN,277044,279906,284707,0,0,285909
NaN,NaN,True,True,False,0.48,-0.52,-11.78,19.06,-0.9,-19.96,-10.43,gamble,win,-0.9,30.5316666666667,332.468535870004,NaN,NaN,335.469701575545,339.47124742332,348.958263709919,340.454964024084,341.455354085858,0.59,7.50284018730599,344.456452914521,288309,291910,296712,299093,302694,308117
NaN,NaN,True,True,True,0.59,-0.41,-12.19,17.93,-0.5,-18.43,-9.465,certain,certain,-9.465,21.0666666666667,350.975715374578,3,2.5178948439534,353.526696672732,357.528260119689,358.511974800538,NaN,NaN,NaN,NaN,NaN,310517,313579,318381,0,0,319582
NaN,NaN,True,False,True,0.59,-0.41,-12.6,-2.485,4.3,1.815,0.9075,gamble,lose,1.815,22.8816666666667,360.529426785182,1,1.45063334640872,362.013336976899,365.998203283943,375.501853993384,366.998599425435,367.998989487212,0.43,7.50281746836845,371.000082556144,321982,323763,328544,330945,334547,339970
NaN,NaN,True,True,True,0.43,-0.57,-13.17,21.15,3.5,-17.65,-7.075,gamble,win,3.5,26.3816666666667,377.519362295396,1,1.85072857395789,379.403425951939,383.404984279136,384.388680720836,NaN,NaN,NaN,NaN,NaN,342370,344631,349433,0,0,350634
NaN,NaN,True,True,True,0.43,-0.57,-13.74,21.72,13.3,-8.42,-4.21,gamble,win,13.3,39.6816666666667,386.406131105556,NaN,NaN,389.407299050989,393.408854178335,402.895862785292,394.392528861052,395.392948361456,0.6,7.50283538752774,398.394071188995,353034,356635,361437,363818,367420,372843
NaN,NaN,True,True,False,0.6,-0.4,-14.14,19.74,7.9,-11.84,-1.97,certain,certain,-1.97,37.7116666666667,404.913280531535,3,1.86760362555651,406.813983090713,410.798816439299,411.799280737607,NaN,NaN,NaN,NaN,NaN,375243,377523,382305,0,0,383527
NaN,NaN,True,True,False,0.6,-0.4,-14.54,20.14,0.7,-19.44,-9.37,gamble,win,0.7,38.4116666666667,413.816738161993,NaN,NaN,416.817875388864,420.819439475788,421.803201194441,NaN,NaN,NaN,NaN,NaN,385927,389529,394330,0,0,395532
NaN,NaN,True,True,True,0.6,-0.4,-14.94,20.54,3.7,-16.84,-6.57,certain,certain,-6.57,31.8416666666667,423.820575422717,3,2.15116861740171,426.004795295965,430.006349143368,439.493348790747,430.990060944354,431.990473405083,0.46,7.50279250953463,434.991609032026,397932,400553,405355,407736,411337,416740
NaN,0.43,False,True,False,0.43,0.43,0.43,-6.45,7.1,0.65,0.325,gamble,lose,0.65,32.4916666666667,454.799312416126,1,1.35074745307793,456.183115284854,460.168049428732,461.168491008102,NaN,NaN,NaN,NaN,NaN,435106,436767,441549,0,0,442770
NaN,NaN,False,True,True,0.43,0.43,0.86,-6.88,-1.1,-7.98,-4.54,gamble,lose,-7.98,24.5116666666667,463.185838677618,1,2.70134291325667,465.920282444407,469.921836931779,479.408852258424,470.905550332689,471.905969513107,0.35,7.50284562705201,474.907089140797,445170,448452,453253,455634,459235,464659
NaN,NaN,False,True,True,0.35,0.35,1.21,-6.11,4.1,-2.01,1.045,certain,certain,1.045,25.5566666666667,481.426298803322,3,1.75098411401996,483.210326173561,487.211858901952,488.195547024043,NaN,NaN,NaN,NaN,NaN,467059,469200,474002,0,0,475203
NaN,NaN,False,True,False,0.35,0.35,1.56,-6.46,6.3,-0.159999999999999,-0.0799999999999996,gamble,lose,-0.159999999999999,25.3966666666667,490.212985569317,1,1.48425161576233,491.730294200657,495.715180346775,505.235538115659,496.71556592876,497.715951830731,0.36,7.51953700723243,500.717092577437,477603,479423,484205,486606,490208,495651
NaN,NaN,False,True,True,0.36,0.36,1.92,-6.96,8.3,1.34,0.67,gamble,lose,1.34,26.7366666666667,507.252985620515,1,1.10073001389537,508.386757930672,512.388241381363,513.372030298746,NaN,NaN,NaN,NaN,NaN,498051,499411,504213,0,0,505415
NaN,NaN,False,True,True,0.36,0.36,2.28,-7.32,8.9,1.58,0.79,gamble,lose,1.58,28.3166666666667,515.389527721265,1,1.05064403391225,516.473233250545,520.45810659726,521.458498258962,NaN,NaN,NaN,NaN,NaN,507815,509115,513897,0,0,515118
NaN,NaN,False,True,True,0.36,0.36,2.64,-7.68,1.3,-6.38,-2.54,certain,certain,-2.54,25.7766666666667,523.47594800371,3,1.98439944885831,525.493399348383,529.494952235833,538.981963722657,530.478662756879,531.4790518587,0.33,7.50298802039833,534.480199005106,517518,519939,524741,527122,530724,536147
NaN,NaN,False,False,True,0.33,0.33,2.97,1.4025,1.875,0.4725,1.17375,gamble,win,1.875,27.6516666666667,540.999359389931,1,2.38458171234015,543.417013797116,547.418570204401,548.402240087344,NaN,NaN,NaN,NaN,NaN,538547,541448,546250,0,0,547451
NaN,NaN,False,True,True,0.33,0.33,3.3,-7.92,0.1,-7.82,-3.86,certain,certain,-3.86,23.7916666666667,550.419781347817,3,2.8013462411036,553.254169245214,557.255714453022,566.742737459306,558.239433293678,559.239823355456,0.31,7.50283218768163,562.240972421769,549851,553253,558055,560435,564037,569460
NaN,NaN,False,True,True,0.31,0.31,3.61,-7.95,9.9,1.95,0.975000000000001,gamble,lose,1.95,25.7416666666667,568.7601926438,1,0.983985708189721,569.77724400716,573.762129193325,574.762565012963,NaN,NaN,NaN,NaN,NaN,571860,573080,577862,0,0,579084
NaN,NaN,False,True,True,0.31,0.31,3.92,-8.26,12.9,4.64,2.32,gamble,lose,4.64,30.3816666666667,576.779961000222,1,0.983919151298323,577.796972685439,581.781872590913,582.782288251496,NaN,NaN,NaN,NaN,NaN,581484,582704,587486,0,0,588707
NaN,NaN,False,True,True,0.31,0.31,4.23,-8.57,1.7,-6.87,-2.585,gamble,lose,-6.87,23.5116666666667,584.799736396319,1,2.23450328400941,587.067280376661,591.068757107671,600.555848590757,592.05257322378,593.052938966692,0.3,7.50283186769229,596.054092832783,591107,593829,598630,601012,604613,610036
NaN,NaN,False,True,True,0.3,0.3,4.53,-8.73,3.5,-5.23,-0.865,certain,certain,-0.865,22.6466666666667,602.573296095608,3,1.61754970807669,604.223910178916,608.225494424903,609.209205905903,NaN,NaN,NaN,NaN,NaN,612436,614416,619218,0,0,620420
NaN,NaN,False,False,True,0.3,0.3,4.83,1.4525,-0.025,-1.4775,-0.75125,certain,certain,-0.75125,21.8954166666667,611.22660765289,3,2.0010719499187,613.260781416295,617.245652203132,626.749346750523,618.246044184816,619.246429126833,0.36,7.50280018917329,622.247592272492,622820,625261,630042,632444,636045,641468
NaN,NaN,False,True,False,0.36,0.36,5.19,-10.23,0.7,-9.53,-4.415,gamble,lose,-9.53,12.3654166666667,628.766792335464,1,2.4845904799331,631.284504467953,635.269317657479,636.269700999572,NaN,NaN,NaN,NaN,NaN,643868,646889,651671,0,0,652892
NaN,NaN,False,True,True,0.36,0.36,5.55,-10.59,4.7,-5.89,-0.595,certain,certain,-0.595,11.7704166666667,638.287157464005,3,2.31785106999814,640.638070669338,644.639611397357,654.126664482235,645.623335677759,646.623722219698,0.31,7.5028529867086,649.62487480585,655292,658114,662915,665296,668898,674321
NaN,NaN,False,True,True,0.31,0.31,5.86,-10.2,-1.3,-11.5,-6.4,certain,certain,-6.4,5.37041666666666,656.144083508421,3,1.80100385709738,657.978130301755,661.97969310874,662.963388270502,NaN,NaN,NaN,NaN,NaN,676721,678922,683724,0,0,684925
NaN,NaN,False,True,False,0.31,0.31,6.17,-10.51,7.3,-3.21,-1.605,gamble,lose,-3.21,2.16041666666666,664.980901692274,1,1.46743256155241,666.481428707652,670.482990234697,671.466697875876,NaN,NaN,NaN,NaN,NaN,687325,689126,693928,0,0,695129
NaN,NaN,False,True,True,0.31,0.31,6.48,-10.82,5.7,-5.12,0.290000000000001,certain,certain,0.290000000000001,2.45041666666666,673.484140580953,3,1.83434789926469,675.351536536215,679.353095183393,688.840098350607,680.33680634441,681.337195766217,0.28,7.50278131005689,684.338335872948,697529,699770,704572,706953,710554,715977
NaN,NaN,False,False,True,0.28,0.28,6.76,1.54333333333333,-0.375,-1.91833333333333,-1.14666666666667,certain,certain,-1.14666666666667,1.30375,690.85759353323,3,1.65067904027819,692.541545259006,696.543129824975,697.526800667874,NaN,NaN,NaN,NaN,NaN,718377,720398,725200,0,0,726401
NaN,NaN,False,False,False,0.28,0.28,7.04,1.56666666666667,1.075,-0.491666666666667,0.291666666666667,certain,certain,0.291666666666667,1.59541666666666,699.544255212397,3,1.78427279877724,701.36162118506,705.346498691582,714.850189399152,706.346868274315,707.347230177409,0.28,7.50285810646892,710.34841764193,728801,730982,735764,738165,741766,747189
NaN,NaN,False,True,True,0.28,0.28,7.32,-11.24,5.5,-5.74,-0.12,certain,certain,-0.12,1.47541666666666,716.867679462019,3,2.51768173390883,719.418628441679,723.420125971716,724.403896329964,NaN,NaN,NaN,NaN,NaN,749589,752650,757453,0,0,758654
NaN,NaN,False,True,True,0.28,0.28,7.6,-11.52,4.5,-7.02,-1.26,certain,certain,-1.26,0.215416666666665,726.421344794773,3,2.33451813131251,728.788933061049,732.790487548424,742.277480476114,733.774195509588,734.774588131244,0.2,7.50283922734889,737.77573527765,761054,763895,768697,771078,774679,780102
NaN,NaN,False,False,False,0.2,0.2,7.8,1.35,2.725,1.375,0.6875,gamble,win,2.725,2.94041666666666,744.294945260161,1,1.23411642208157,745.562105258443,749.546985964818,750.547368986921,NaN,NaN,NaN,NaN,NaN,782502,784023,788805,0,0,790026
NaN,NaN,False,True,False,0.2,0.2,8,-10.8,-0.5,-11.3,-5.9,gamble,lose,-11.3,-8.35958333333334,752.564819691626,1,2.36787529286448,754.965751360098,758.967303287591,759.951009968816,NaN,NaN,NaN,NaN,NaN,792426,795307,800109,0,0,801311
NaN,NaN,False,False,True,0.2,0.2,8.2,1.38333333333333,0.825,-0.558333333333333,0.133333333333333,certain,certain,0.133333333333333,-8.22625,761.968464833324,3,1.66761904883606,763.669129058293,767.654007204786,777.157637435179,768.65438894695,769.654784128488,0.19,7.50277523033947,772.655934154758,803711,805751,810533,812934,816536,821959
NaN,NaN,False,False,False,0.19,0.19,8.39,1.36416666666667,2.575,1.21083333333333,1.89291666666667,gamble,win,2.575,-5.65125,779.175143817283,1,1.96773686733286,781.175979618234,785.177537305459,786.161180949628,NaN,NaN,NaN,NaN,NaN,824359,826760,831562,0,0,832743
NaN,0.29,True,True,True,0.29,-0.71,-0.71,10.65,12.7,2.05,1.025,gamble,win,12.7,7.04875,801.533815700132,1,1.16742609785069,802.734280254426,806.719160960802,816.222849748461,807.719572141592,808.719901726192,0.63,7.50286482615411,811.721081511074,851189,852630,857412,859813,863414,868837
NaN,NaN,True,True,False,0.63,-0.37,-1.08,6.26,2.9,-3.36,-0.23,certain,certain,-0.23,6.81875,818.240299173223,3,1.56757892271344,819.840921672141,823.825794058903,824.826184760648,NaN,NaN,NaN,NaN,NaN,871237,873158,877940,0,0,879161
NaN,NaN,True,True,False,0.63,-0.37,-1.45,6.63,12.9,6.27,3.135,gamble,win,12.9,19.71875,826.843637705249,1,1.10068681591292,827.977416735092,831.962288801868,832.962675663795,NaN,NaN,NaN,NaN,NaN,881561,882922,887704,0,0,888925
NaN,NaN,True,True,False,0.63,-0.37,-1.82,7,9.3,2.3,1.15,gamble,win,9.3,29.01875,834.980124448586,1,1.10068809585209,836.113899318625,840.11540132845,849.602464972839,841.099173286624,842.09951055087,0.81,7.50287634561755,845.100650337619,891325,892686,897488,899869,903470,908916
NaN,NaN,True,True,True,0.81,-0.19,-2.01,4.67,10.9,6.23,3.115,gamble,win,10.9,39.91875,851.619883679035,1,1.03401121099523,852.686978784353,856.671846051355,857.67225883207,NaN,NaN,NaN,NaN,NaN,911316,912573,917355,0,0,918577
NaN,NaN,True,True,False,0.81,-0.19,-2.2,4.86,8.3,3.44,1.72,gamble,win,8.3,48.21875,859.689692577565,1,1.38414877256946,861.106917884797,865.108468212366,874.595477779279,866.092189932886,867.092543196384,0.82,7.50284882690175,870.093693222654,920977,922678,927480,929861,933462,938885
NaN,NaN,True,False,True,0.82,-0.18,-2.38,-0.828333333333333,4.9,4.07166666666667,2.03583333333333,gamble,lose,4.07166666666667,52.2904166666667,876.613004000454,1,1.18380997239728,877.830080258653,881.81495104549,882.815344947085,NaN,NaN,NaN,NaN,NaN,941285,942745,947527,0,0,948749
NaN,NaN,True,True,True,0.82,-0.18,-2.56,5.08,10.5,5.42,2.71,gamble,win,10.5,62.7904166666667,884.832796291757,1,1.01714063918917,885.883204816673,889.884751944392,899.371770470883,890.86839366865,891.868800049662,0.92,7.50285138678373,894.869951675861,951149,952409,957211,959592,963193,968616
NaN,NaN,True,True,True,0.92,-0.08,-2.64,3.76,7.7,3.94,1.97,gamble,win,7.7,70.4904166666667,901.389274613091,1,1.00062909060944,902.422953039637,906.40782926622,907.408222207861,NaN,NaN,NaN,NaN,NaN,971016,972257,977039,0,0,978260
NaN,NaN,True,True,False,0.92,-0.08,-2.72,3.84,13.7,9.86,4.93,gamble,win,13.7,84.1904166666667,909.425664272967,1,1.10069929532619,910.559475301314,914.544314729617,915.544702231513,NaN,NaN,NaN,NaN,NaN,980660,982020,986802,0,0,988024
NaN,NaN,True,False,False,0.92,-0.08,-2.8,-0.513333333333333,0.1,-0.413333333333333,-0.156666666666667,certain,certain,-0.156666666666667,84.03375,917.562152936218,3,2.21783974252685,919.813069853379,923.797868323592,933.301594869488,924.798294863664,925.798687485323,0.67,7.50283698745625,928.799782154179,990424,993125,997907,1000308,1003909,1009332
NaN,NaN,True,False,False,0.67,-0.33,-3.13,-1.41583333333333,13.1,11.6841666666667,5.84208333333333,gamble,lose,11.6841666666667,95.7179166666667,935.318994056601,1,0.900644641882536,936.252735392205,940.254294359369,941.237999120684,NaN,NaN,NaN,NaN,NaN,1011732,1012853,1017655,0,0,1018856
NaN,NaN,True,True,False,0.67,-0.33,-3.46,8.08,1.9,-6.18,-2.14,certain,certain,-2.14,93.5779166666667,943.255401827628,3,1.85080249050952,945.139468684025,949.141074049021,958.628086815785,950.124753531516,951.125174311859,0.62,7.50284594703407,954.126324658115,1021256,1023517,1028319,1030700,1034301,1039724
NaN,NaN,True,True,True,0.62,-0.38,-3.84,9.16,1.1,-8.06,-3.48,certain,certain,-3.48,90.0979166666667,960.645503922056,3,1.70095125155785,962.379542587772,966.381097075147,967.364808876129,NaN,NaN,NaN,NaN,NaN,1042124,1044205,1049007,0,0,1050208
NaN,NaN,True,True,True,0.62,-0.38,-4.22,9.54,6.7,-2.84,1.93,certain,certain,1.93,92.0279166666667,969.382253181131,3,1.96764471163988,971.382979547197,975.384589391986,976.368302152925,NaN,NaN,NaN,NaN,NaN,1052608,1055010,1059811,0,0,1061013
NaN,NaN,True,True,True,0.62,-0.38,-4.6,9.92,12.1,2.18,1.09,gamble,win,12.1,104.127916666667,978.385697180231,1,1.03405024917083,979.452828123871,983.437713630021,992.94143921596,984.43809889202,985.438482234113,0.65,7.50283986732029,988.43958074279,1063413,1064693,1069475,1071876,1075478,1080900
NaN,NaN,True,False,False,0.65,-0.35,-4.95,-1.6375,0.3,-1.3375,-0.51875,certain,certain,-0.51875,103.609166666667,994.958869121638,3,1.96768214989061,996.959680923708,1000.96115541482,1001.94488385503,NaN,NaN,NaN,NaN,NaN,1083300,1085701,1090503,0,0,1091705
NaN,NaN,True,True,True,0.65,-0.35,-5.3,10.2,5.3,-4.9,0.2,certain,certain,0.2,103.809166666667,1003.96233487971,3,1.43420595389762,1005.42957449028,1009.4311193781,1018.91813406478,1010.41484333852,1011.41523020045,0.58,7.50277075055055,1014.41638214663,1094105,1095865,1100667,1103048,1106650,1112073
NaN,NaN,True,False,True,0.58,-0.42,-5.72,-1.94666666666667,5.9,3.95333333333333,1.97666666666667,gamble,lose,3.95333333333333,107.7625,1020.93556653033,1,1.03401953060529,1022.00266547547,1025.9874764251,1026.98793112386,NaN,NaN,NaN,NaN,NaN,1114473,1115753,1120535,0,0,1121756
NaN,NaN,True,False,True,0.58,-0.42,-6.14,-1.98166666666667,6.1,4.11833333333333,2.05916666666667,gamble,lose,4.11833333333333,111.880833333333,1029.00538022864,1,1.08406807233769,1030.12248867733,1034.12403164524,1043.61104729187,1035.10774536614,1036.10812166856,0.57,7.50282290811447,1039.1092851342,1124156,1125497,1130298,1132680,1136281,1141704
NaN,NaN,True,False,True,0.57,-0.43,-6.57,-2.0525,9.5,7.4475,3.72375,gamble,lose,7.4475,119.328333333333,1045.62850055646,1,1.00068380805533,1046.66223434041,1050.64710128743,1051.64749710894,NaN,NaN,NaN,NaN,NaN,1144104,1145344,1150126,0,0,1151348
NaN,NaN,True,True,True,0.57,-0.43,-7,13.02,12.5,-0.52,-0.26,gamble,win,12.5,131.828333333333,1053.6649487736,1,1.28409808693687,1054.98213011488,1058.98371628078,1059.9673951233,NaN,NaN,NaN,NaN,NaN,1153748,1155329,1160130,0,0,1161332
NaN,NaN,True,True,False,0.57,-0.43,-7.43,13.45,11.9,-1.55,-0.774999999999999,gamble,win,11.9,143.728333333333,1061.98478919065,1,1.46754167645122,1063.48542468096,1067.47025354976,1076.9739919351,1068.47069096932,1069.47107687129,0.74,7.50281842832192,1072.47222625759,1163732,1165532,1170314,1172715,1176317,1181740
NaN,NaN,True,True,True,0.74,-0.26,-7.69,11.33,1.3,-10.03,-4.365,certain,certain,-4.365,139.363333333333,1078.99144327977,3,2.08436981824343,1081.10891043171,1085.1104751586,1086.09419047942,NaN,NaN,NaN,NaN,NaN,1184140,1186681,1191483,0,0,1192684
NaN,NaN,True,False,True,0.74,-0.26,-7.95,-1.5725,2.1,0.5275,1.31375,certain,certain,1.31375,140.677083333333,1088.11164758383,3,1.70096181106419,1089.84569040935,1093.83052535786,1103.33426982291,1094.83091701956,1095.83130036165,0.57,7.50282162817166,1098.83245518769,1195084,1197165,1201947,1204348,1207949,1213372
NaN,NaN,True,True,False,0.57,-0.43,-8.38,14.4,6.5,-7.9,-0.699999999999999,certain,certain,-0.699999999999999,139.977083333333,1105.35166421025,3,1.71757735478241,1107.10234017867,1111.08721736521,1112.08760582706,NaN,NaN,NaN,NaN,NaN,1215772,1217873,1222655,0,0,1223876
NaN,NaN,True,True,True,0.57,-0.43,-8.81,14.83,4.3,-10.53,-3.115,certain,certain,-3.115,136.862083333333,1114.10505653176,3,1.75098091417021,1115.88912837992,1119.89063454956,1129.37765019618,1120.87426731423,1121.87473321247,0.5,7.5028993845408,1124.87588707856,1226276,1228417,1233219,1235600,1239201,1244604
