lifeHappySlider_response,blockHappySlider_response,isHappyBlock,isCongruent,isWinOnTop,lastHappyRating,diff,sumDiff,RPE,winAmount,loseAmount,certainAmount,choice,outcome,outcomeAmount,currentWinnings,outcome1Box_started,choiceKey_keys,choiceKey_rt,outcome1Box_2_started,outcome1Box_3_started,fixCross_ITI_started,fixCross_ISI_started,happyText_started,happySlider_response,happySlider_rt,happySlider_started,trial_sample,choice_sample,outcome_sample,happyText_sample,happySlider_sample,fixCross_ITI_sample
0.55,0.46,True,True,False,0.46,-0.54,-0.54,8.1,8.7,0.599999999999998,0.299999999999999,gamble,win,8.7,8.7,205.157043222978,1,2.30109377292683,207.491233369627,211.476112476026,212.476498058066,NaN,NaN,NaN,NaN,NaN,15167,17968,22750,0,0,23971
NaN,NaN,True,False,False,0.46,-0.54,-1.08,-1.98,3.3,1.32,0.66,gamble,lose,1.32,10.02,214.493999000406,1,1.38406461651903,215.894492929336,219.896047736693,220.896486116224,NaN,NaN,NaN,NaN,NaN,26371,28052,32854,0,0,34075
NaN,NaN,True,False,True,0.46,-0.54,-1.62,-2.025,-1.5,-3.525,-2.5125,certain,certain,-2.5125,7.5075,222.913930101204,3,2.55117424915079,225.498202963965,229.499770890747,238.986843174731,230.483435653907,231.48384427483,0.48,7.50269555405248,234.484978621826,36475,39577,44378,46759,50361,55784
NaN,NaN,True,True,True,0.48,-0.52,-2.14,9.42,6.5,-2.92,1.79,gamble,win,6.5,14.0075,241.004236602108,1,1.30063011456514,242.338137162267,246.339643331885,247.323366972327,NaN,NaN,NaN,NaN,NaN,58184,59784,64586,0,0,65788
NaN,NaN,True,True,True,0.48,-0.52,-2.66,9.94,8.5,-1.44,-0.720000000000001,certain,certain,-0.720000000000001,13.2875,249.340869514621,3,1.43417459534248,250.808045768121,254.809594815772,264.296661339991,255.793279098056,256.79375107598,0.48,7.50282930786489,259.794906861964,68188,69948,74750,77131,80733,86156
NaN,NaN,True,False,False,0.48,-0.52,-3.18,-2.085,1.1,-0.985,0.0575000000000001,gamble,lose,-0.985,12.3025,266.314113324683,1,2.21779014484491,268.564985763922,272.549867750204,273.550256212067,NaN,NaN,NaN,NaN,NaN,88556,91257,96038,0,0,97260
NaN,NaN,True,True,False,0.48,-0.52,-3.7,10.98,12.9,1.92,0.96,gamble,win,12.9,25.2025,275.56769987708,1,1.01728367246687,276.618076083541,280.619676968723,281.603273895045,NaN,NaN,NaN,NaN,NaN,99660,100921,105722,0,0,106924
NaN,NaN,True,True,True,0.48,-0.52,-4.22,11.5,9.1,-2.4,-1.2,gamble,win,9.1,34.3025,283.620827634935,1,0.98380139679648,284.637888917874,288.639448524977,298.126465451554,289.623073930037,290.623549747805,0.48,7.50282226811396,293.624644736643,109324,110544,115346,117727,121329,126752
NaN,NaN,True,True,True,0.48,-0.52,-4.74,12.02,7.9,-4.12,1.89,certain,certain,1.89,36.1925,300.14386015886,3,1.98434569139499,302.161305743852,306.162827912718,307.146630269475,NaN,NaN,NaN,NaN,NaN,129152,131572,136374,0,0,137576
NaN,NaN,True,True,True,0.48,-0.52,-5.26,12.54,1.9,-10.64,-4.37,certain,certain,-4.37,31.8225,309.164078094298,3,2.73465463693719,311.931817265518,315.933361193398,325.420333962014,316.917033316218,317.917473295704,0.48,7.50267955480376,320.918623321922,139976,143297,148099,150480,154081,159504
NaN,NaN,True,True,True,0.48,-0.52,-5.78,13.06,-0.7,-13.76,-7.23,gamble,win,-0.7,31.1225,327.437826904759,1,2.23446904559387,329.705390084186,333.706867455156,334.690645493043,NaN,NaN,NaN,NaN,NaN,161904,164625,169428,0,0,170629
NaN,NaN,True,True,True,0.48,-0.52,-6.3,13.58,6.3,-7.28,-0.489999999999999,certain,certain,-0.489999999999999,30.6325,336.708051079884,3,2.50103675154969,339.242366596649,343.227257542545,352.730954009865,344.227650804154,345.228076704312,0.48,7.5027918695705,348.229194732034,173029,176070,180852,183253,186854,192277
NaN,NaN,True,True,False,0.48,-0.52,-6.82,14.1,12.3,-1.8,-0.899999999999999,gamble,win,12.3,42.9325,354.74834871717,1,1.43420467397664,356.21564528509,360.217120096204,361.200880534889,NaN,NaN,NaN,NaN,NaN,194677,196438,201240,0,0,202442
NaN,NaN,True,True,True,0.48,-0.52,-7.34,14.62,4.7,-9.92,-2.61,gamble,win,4.7,47.6325,363.218306920724,NaN,NaN,366.219527983689,370.221023593796,371.204738914617,NaN,NaN,NaN,NaN,NaN,204842,208443,213245,0,0,214446
NaN,NaN,True,True,False,0.48,-0.52,-7.86,15.14,6.1,-9.04,-1.47,gamble,win,6.1,53.7325,373.222254896304,1,1.20071702246787,374.456074372225,378.457606140641,387.944621467323,379.441321781487,380.441707363469,0.53,7.50282034825068,383.442861229531,216846,218327,223129,225509,229111,234534
NaN,NaN,True,False,True,0.53,-0.47,-8.33,-2.33916666666667,2.9,0.560833333333334,1.73041666666667,gamble,lose,0.560833333333334,54.2933333333333,389.962086571322,1,0.933920527284499,390.929095792701,394.930661479535,395.914377760317,NaN,NaN,NaN,NaN,NaN,236934,238094,242896,0,0,244098
NaN,NaN,True,True,True,0.53,-0.47,-8.8,15.38,13.1,-2.28,-1.14,gamble,win,13.1,67.3933333333333,397.931751028635,1,0.984037225774955,398.948839510267,402.950518791797,412.437402924581,403.934160196048,404.934496180387,0.52,7.50282034825068,407.935676605208,246498,247718,252520,254901,258502,263925
NaN,NaN,True,True,True,0.52,-0.48,-9.28,16,4.5,-11.5,-3.5,certain,certain,-3.5,63.8933333333333,414.4548395499,3,1.70073750155279,416.188920773624,420.19049574004,421.174245619273,NaN,NaN,NaN,NaN,NaN,266325,268406,273208,0,0,274410
NaN,NaN,True,True,False,0.52,-0.48,-9.76,16.48,9.9,-6.58,1.66,certain,certain,1.66,65.5533333333333,423.191579849401,3,1.75093675625976,424.975603379833,428.960490805912,429.960933345195,NaN,NaN,NaN,NaN,NaN,276810,278951,283732,0,0,284954
NaN,NaN,True,True,False,0.52,-0.48,-10.24,16.96,2.5,-14.46,-5.98,gamble,win,2.5,68.0533333333333,431.978375090344,1,2.88464346947148,434.896170930937,438.897713258862,448.38466586842,439.881435939344,440.88177448354,0.52,7.50288210535655,443.882982107112,287354,290855,295657,298038,301639,307062
NaN,NaN,True,False,True,0.52,-0.48,-10.72,-2.57333333333333,1.3,-1.27333333333333,0.0133333333333334,certain,certain,0.0133333333333334,68.0666666666667,450.402139292099,3,2.65109438088257,453.086513398099,457.071471540898,458.071786726126,NaN,NaN,NaN,NaN,NaN,309462,312684,317466,0,0,318687
NaN,NaN,True,True,False,0.52,-0.48,-11.2,17.92,13.7,-4.22,-2.11,gamble,win,13.7,81.7666666666667,460.089261749701,1,1.65093790821265,461.773271072831,465.774793241697,475.261836727033,466.758484563616,467.758890624682,0.51,7.5028008291265,470.760042250855,321087,323108,327910,330291,333892,339315
NaN,NaN,True,True,True,0.51,-0.49,-11.69,18.55,-1.3,-19.85,-10.575,gamble,win,-1.3,80.4666666666667,477.279288711667,1,2.9513385934406,480.263724638789,484.265333203657,485.249064843694,NaN,NaN,NaN,NaN,NaN,341715,345297,350098,0,0,351300
NaN,NaN,True,True,False,0.51,-0.49,-12.18,19.04,-0.3,-19.34,-9.82,gamble,win,-0.3,80.1666666666667,487.266442591848,1,2.13449643633794,489.434005963267,493.435543811414,502.922501220775,494.419270011713,495.419697191799,0.52,7.50256116030505,498.420816499507,353700,356301,361103,363484,367085,372508
NaN,NaN,True,True,True,0.52,-0.48,-12.66,19.38,0.1,-19.28,-9.59,gamble,win,0.1,80.2666666666667,504.940006002958,1,2.11776633793488,507.090810157359,511.092330086394,512.076146842446,NaN,NaN,NaN,NaN,NaN,374908,377489,382291,0,0,383492
NaN,NaN,True,True,True,0.52,-0.48,-13.14,19.86,3.9,-15.96,-6.03,certain,certain,-6.03,74.2366666666667,514.093517870875,3,1.88437084219186,516.010991486488,520.012537334289,520.996294253157,NaN,NaN,NaN,NaN,NaN,385892,388193,392995,0,0,394197
NaN,NaN,True,False,True,0.52,-0.48,-13.62,-2.815,0.3,-2.515,-1.1075,gamble,lose,-2.515,71.7216666666667,523.013651202258,1,2.26783964654896,525.314555863966,529.299422811018,538.803153836692,530.299855110818,531.300193974981,0.52,7.50287346570985,534.301349440997,396597,399358,404140,406540,410142,415545
NaN,0.52,False,True,True,0.52,0.52,0.52,-7.8,-0.3,-8.1,-4.2,gamble,lose,-8.1,63.6216666666667,553.192085425777,1,2.18443778308574,555.409589184041,559.411106553103,560.394874031539,NaN,NaN,NaN,NaN,NaN,432811,435472,440274,0,0,441475
NaN,NaN,False,False,False,0.52,0.52,1.04,1.90666666666667,0.275,-1.63166666666667,-0.678333333333333,gamble,win,0.275,63.8966666666667,562.412332095846,1,2.1010109607596,564.546431430732,568.531361414818,578.034998044895,569.531747316767,570.532141858363,0.49,7.50278163002804,573.533236207208,443875,446436,451218,453619,457220,462644
NaN,NaN,False,False,True,0.49,0.49,1.53,1.8425,1.875,0.0325000000000002,0.95375,gamble,win,1.875,65.7716666666667,580.052491307608,1,1.38413533318089,581.46970381547,585.454544523731,586.454959864321,NaN,NaN,NaN,NaN,NaN,465044,466744,471526,0,0,472747
NaN,NaN,False,True,True,0.49,0.49,2.02,-8.88,11.7,2.82,1.41,gamble,lose,2.82,68.5916666666667,588.472376650607,1,1.20072950189933,589.706194206607,593.707771732938,603.194764660613,594.69151329255,595.691906234191,0.52,7.50280722888419,598.693006982736,475147,476628,481430,483811,487412,492835
NaN,NaN,False,True,True,0.52,0.52,2.54,-9.82,4.5,-5.32,-0.41,certain,certain,-0.41,68.1816666666667,605.212261123175,3,2.23428793408675,607.479770225182,611.481314473029,612.465061792347,NaN,NaN,NaN,NaN,NaN,495235,497956,502758,0,0,503960
NaN,NaN,False,True,False,0.52,0.52,3.06,-10.34,-1.5,-11.84,-6.67,gamble,lose,-11.84,56.3416666666667,614.482478898601,NaN,NaN,617.483642044244,621.485222130432,622.468962410116,NaN,NaN,NaN,NaN,NaN,506360,509961,514763,0,0,515964
NaN,NaN,False,True,True,0.52,0.52,3.58,-10.86,4.1,-6.76,-1.33,gamble,lose,-6.76,49.5816666666667,624.486408635043,1,2.55108625325374,627.070747734688,631.072226065618,640.55931562878,632.056016582937,633.056408244651,0.52,7.50277555035427,636.057502273528,518364,521465,526268,528649,532250,537673
NaN,NaN,False,False,True,0.52,0.52,4.1,2.16166666666667,1.525,-0.636666666666667,0.444166666666667,gamble,win,1.525,51.1066666666667,642.576770493295,1,1.65086207172135,644.26072765881,648.245628204255,649.246001626831,NaN,NaN,NaN,NaN,NaN,540073,542094,546876,0,0,548097
NaN,NaN,False,True,True,0.52,0.52,4.62,-11.9,7.9,-4,1.95,certain,certain,1.95,53.0566666666667,651.263413293345,3,2.08445717417635,653.38090476417,657.382498289691,666.869528975629,658.366226089944,659.366605592193,0.52,7.50282482802868,662.367767777934,550497,553038,557840,560221,563822,569245
NaN,NaN,False,True,False,0.52,0.52,5.14,-12.42,0.3,-12.12,-5.91,gamble,lose,-12.12,40.9366666666667,668.886973920627,1,1.41740385891171,670.33748791262,674.322369578935,675.322753880988,NaN,NaN,NaN,NaN,NaN,571645,573386,578168,0,0,579389
NaN,NaN,False,True,True,0.52,0.52,5.66,-12.94,3.9,-9.04,-2.57,gamble,lose,-9.04,31.8966666666667,677.340206185589,1,2.70129139570054,680.074599394749,684.076231318526,685.059919440595,NaN,NaN,NaN,NaN,NaN,581789,585071,589873,0,0,591074
NaN,NaN,False,True,False,0.52,0.52,6.18,-13.46,0.7,-12.76,-6.03,gamble,lose,-12.76,19.1366666666667,687.077352546097,1,1.81759860180318,688.92801168334,692.929641367169,702.416658613714,693.913355088094,694.913743869925,0.48,7.5027649908443,697.914845258463,593474,595695,600497,602878,606479,611902
NaN,NaN,False,True,True,0.48,0.48,6.66,-13.38,8.3,-5.08,1.61,gamble,lose,-5.08,14.0566666666667,704.434109638445,1,1.75092971656704,706.218130608962,710.20300971542,711.203397537291,NaN,NaN,NaN,NaN,NaN,614302,616443,621225,0,0,622446
NaN,NaN,False,True,False,0.48,0.48,7.14,-13.86,-0.5,-14.36,-7.43,gamble,lose,-14.36,-0.30333333333332,713.220794484485,1,1.46761239314219,714.721428374876,718.722995341697,728.210001388739,719.706691143394,720.707085365022,0.49,7.50282226811396,723.708240191045,624846,626647,631449,633830,637431,642854
NaN,NaN,False,False,True,0.49,0.49,7.63,2.35083333333333,0.225,-2.12583333333333,-0.950416666666666,gamble,win,0.225,-0.0783333333333203,730.22744825366,1,1.4673224867438,731.728021986841,735.729588313669,736.713302034535,NaN,NaN,NaN,NaN,NaN,645254,647055,651857,0,0,653059
NaN,NaN,False,True,False,0.49,0.49,8.12,-14.98,1.9,-13.08,-5.59,gamble,lose,-13.08,-13.1583333333333,738.730737379985,1,1.21733640599996,739.981184239092,743.98274096637,753.469803650805,744.966502685042,745.96689082688,0.47,7.50284434715286,748.9679886956,655459,656959,661761,664142,667743,673166
NaN,NaN,False,False,True,0.47,0.47,8.59,2.36083333333333,1.925,-0.435833333333333,0.744583333333333,certain,certain,0.744583333333333,-12.41375,755.487254035543,3,1.6508230335312,757.171168003057,761.172740729584,762.156457010366,NaN,NaN,NaN,NaN,NaN,675566,677587,682389,0,0,683591
NaN,NaN,False,True,True,0.47,0.47,9.06,-15.64,10.5,-5.14,-2.57,gamble,lose,-5.14,-17.55375,764.173901635339,1,1.31742452993058,765.524455177481,769.526025984087,770.509752504411,NaN,NaN,NaN,NaN,NaN,685991,687611,692413,0,0,693614
NaN,NaN,False,True,True,0.47,0.47,9.53,-16.11,-0.9,-17.01,-8.955,gamble,lose,-17.01,-34.56375,772.527189769724,NaN,NaN,775.528331156413,779.529916042346,789.016934568819,780.513602884486,781.51396702748,0.44,7.5028654661146,784.515168891347,696014,699615,704418,706799,710400,715823
NaN,NaN,False,True,False,0.44,0.44,9.97,-16.13,0.5,-15.63,-7.565,gamble,lose,-15.63,-50.19375,791.034381753707,1,1.3340445534559,792.401551799499,796.403140525275,797.386806568422,NaN,NaN,NaN,NaN,NaN,718223,719863,724665,0,0,725867
NaN,NaN,False,False,False,0.44,0.44,10.41,2.4075,1.825,-0.5825,0.62125,certain,certain,0.62125,-49.5725,799.404261752905,3,1.21746120019816,800.654772929032,804.639611077379,814.143353942549,805.640013938595,806.640411679982,0.44,7.5027941094595,809.641581545351,728267,729767,734554,736950,740552,745975
NaN,NaN,False,True,False,0.44,0.44,10.85,-17.01,9.3,-7.71,0.795000000000002,gamble,lose,-7.71,-57.2825,816.160863524477,1,1.61746843188303,817.811440809513,821.796292717219,822.796656860213,NaN,NaN,NaN,NaN,NaN,748375,750355,755138,0,0,756359
NaN,NaN,False,False,False,0.44,0.44,11.29,2.48083333333333,1.725,-0.755833333333333,0.484583333333333,certain,certain,0.484583333333333,-56.7979166666667,824.814181161462,3,1.36738155590137,826.214652691444,830.216297094652,839.70320106647,831.199922499654,832.200353519525,0.53,7.50276595080504,835.201508985541,758759,760440,765241,767622,771224,776647
NaN,NaN,False,True,True,0.53,0.53,11.82,-19.24,12.9,-6.34,-3.17,gamble,lose,-6.34,-63.1379166666666,841.720721207908,1,1.18397540471051,842.937816345249,846.939413390646,847.923077833839,NaN,NaN,NaN,NaN,NaN,779047,780507,785309,0,0,786511
NaN,NaN,False,True,False,0.53,0.53,12.35,-19.77,2.7,-17.07,-7.185,gamble,lose,-17.07,-80.2079166666666,849.940520858916,1,1.23411098233191,851.207751573878,855.209239184391,856.193004102854,NaN,NaN,NaN,NaN,NaN,788911,790431,795233,0,0,796434
NaN,NaN,False,True,False,0.53,0.53,12.88,-20.3,13.5,-6.8,-3.4,gamble,lose,-6.8,-87.0079166666666,858.210400410113,1,1.21745288063539,859.460943584738,863.46246287378,872.949505719123,864.446193873824,865.446584895602,0.42,7.50282578798942,868.447766600351,798834,800335,805137,807518,811120,816543
NaN,NaN,False,True,True,0.42,0.42,13.3,-19.18,9.5,-9.68,-0.0899999999999981,gamble,lose,-9.68,-96.6879166666666,874.966906186193,1,1.76765469519887,876.767655015166,880.769137505908,881.752869146003,NaN,NaN,NaN,NaN,NaN,818943,821103,825905,0,0,827087
NaN,0.45,True,True,False,0.45,-0.55,-0.55,8.25,11.7,3.45,1.725,gamble,win,11.7,-84.9879166666666,956.581946891441,1,1.25076652417192,957.865746432333,961.867298999801,971.354363604158,962.85105047893,963.851400862564,0.51,7.50282002828317,966.852580327482,0,0,0,0,0,0
NaN,NaN,True,False,False,0.51,-0.49,-1.04,-1.80166666666667,-0.7,-2.50166666666667,-1.60083333333333,gamble,lose,-2.50166666666667,-87.4895833333333,973.371816548752,1,1.4508144579595,974.855726420472,978.857250189292,979.840989828983,NaN,NaN,NaN,NaN,NaN,0,0,0,0,0,0
NaN,NaN,True,True,True,0.51,-0.49,-1.53,8.39,7.3,-1.09,-0.544999999999999,gamble,win,7.3,-80.1895833333333,981.858391895948,1,1.03404032962862,982.925473241892,986.910402586043,987.910739850253,NaN,NaN,NaN,NaN,NaN,0,0,0,0,0,0
NaN,NaN,True,True,False,0.51,-0.49,-2.02,8.88,-1.3,-10.18,-5.74,gamble,win,-1.3,-81.4895833333333,989.928242712514,1,1.50077596370829,991.462140328833,995.463724894798,1004.95068518404,996.447421336488,997.447855236242,0.52,7.5025288418401,1000.44894126547,0,0,0,0,0,0
NaN,NaN,True,True,False,0.52,-0.48,-2.5,9.22,-0.9,-10.12,-5.51,gamble,win,-0.9,-82.3895833333333,1006.9681336488,1,1.10049578483449,1008.10190595896,1012.10351420386,1013.08719080646,NaN,NaN,NaN,NaN,NaN,0,0,0,0,0,0
NaN,NaN,True,True,False,0.52,-0.48,-2.98,9.7,7.1,-2.6,-1.3,gamble,win,7.1,-75.2895833333333,1015.10462391202,1,1.4343243483454,1016.57191919995,1020.55674230901,1030.06047653459,1021.55711061182,1022.55757203029,0.52,7.50292882317444,1025.55867053894,0,0,0,0,0,0
NaN,NaN,True,True,False,0.52,-0.48,-3.46,10.18,7.7,-2.48,-1.24,gamble,win,7.7,-67.5895833333333,1032.0778834013,1,1.30083170515718,1033.41177948168,1037.41333684896,1038.39705952938,NaN,NaN,NaN,NaN,NaN,0,0,0,0,0,0
NaN,NaN,True,True,True,0.52,-0.48,-3.94,10.66,11.5,0.84,0.42,gamble,win,11.5,-56.0895833333333,1040.4145015945,1,1.0673235746217,1041.51488794445,1045.49974785181,1055.00343919935,1046.50011679454,1047.50058077287,0.51,7.50270803348394,1050.501733999,0,0,0,0,0,0
NaN,NaN,True,True,True,0.51,-0.49,-4.43,11.29,10.9,-0.389999999999999,-0.194999999999999,gamble,win,10.9,-45.1895833333333,1057.02090494335,1,0.850575941090938,1057.9045698985,1061.90617110371,1062.88981154806,NaN,NaN,NaN,NaN,NaN,0,0,0,0,0,0
NaN,NaN,True,True,True,0.51,-0.49,-4.92,11.78,2.3,-9.48,-3.59,gamble,win,2.3,-42.8895833333333,1064.90733360942,1,1.13407661591191,1066.07440484385,1070.05928683013,1071.0596682523,NaN,NaN,NaN,NaN,NaN,0,0,0,0,0,0
NaN,NaN,True,True,False,0.51,-0.49,-5.41,12.27,9.9,-2.37,-1.185,gamble,win,9.9,-32.9895833333333,1073.07710007794,1,1.05078354739817,1074.1609847988,1078.16247720912,1087.6494678969,1079.14614485216,1080.14653043414,0.52,7.5027918695705,1083.14773005806,0,0,0,0,0,0
NaN,NaN,True,True,True,0.52,-0.48,-5.89,12.61,12.5,-0.109999999999999,-0.0549999999999997,gamble,win,12.5,-20.4895833333333,1089.66692692123,1,2.05104145535734,1091.75105675065,1095.75256196031,1096.73630096007,NaN,NaN,NaN,NaN,NaN,0,0,0,0,0,0
NaN,NaN,True,True,False,0.52,-0.48,-6.37,13.09,5.5,-7.59,-1.045,gamble,win,5.5,-14.9895833333333,1098.75375326467,1,1.7842660790775,1100.5711217972,1104.57267660456,1114.05974568869,1105.55643320346,1106.55677878734,0.51,7.50298962031957,1109.55797969119,0,0,0,0,0,0
NaN,NaN,True,True,True,0.51,-0.49,-6.86,13.72,12.7,-1.02,-0.510000000000001,gamble,win,12.7,-2.28958333333332,1116.07719415351,1,1.75093515630579,1117.86122312368,1121.86276865145,1122.84648653219,NaN,NaN,NaN,NaN,NaN,0,0,0,0,0,0
NaN,NaN,True,True,True,0.51,-0.49,-7.35,14.21,1.3,-12.91,-5.805,certain,certain,-5.805,-8.09458333333331,1124.8639413967,3,2.53457438468467,1127.43160927523,1131.4331282443,1132.41686596407,NaN,NaN,NaN,NaN,NaN,0,0,0,0,0,0
NaN,NaN,True,True,False,0.51,-0.49,-7.84,14.7,8.5,-6.2,1.15,gamble,win,8.5,0.405416666666685,1134.43427603063,1,1.16719154879684,1135.63473866502,1139.63633603038,1149.12332543824,1140.62005007127,1141.62043981306,0.51,7.50290802412201,1144.62158695946,0,0,0,0,0,0
NaN,NaN,True,True,False,0.51,-0.49,-8.33,15.19,1.7,-13.49,-5.895,gamble,win,1.7,2.10541666666669,1151.14079918189,1,1.28408912732266,1152.45798692288,1156.4594738934,1157.44324105181,NaN,NaN,NaN,NaN,NaN,0,0,0,0,0,0
NaN,NaN,True,True,True,0.51,-0.49,-8.82,15.68,12.3,-3.38,-1.69,gamble,win,12.3,14.4054166666667,1159.46064727858,NaN,NaN,1162.46181074425,1166.46335787192,1175.95043175586,1167.44705943338,1168.44750165276,0.52,7.50282162817894,1171.44866991817,0,0,0,0,0,0
NaN,NaN,True,True,True,0.52,-0.48,-9.3,16.02,6.7,-9.32,-1.31,gamble,win,6.7,21.1054166666667,1177.96787798079,1,1.38409565505572,1179.38509336847,1183.38664945576,1184.37034653744,NaN,NaN,NaN,NaN,NaN,0,0,0,0,0,0
NaN,NaN,True,True,False,0.52,-0.48,-9.78,16.5,8.3,-8.2,0.0499999999999989,certain,certain,0.0499999999999989,21.1554166666667,1186.3878062017,3,1.50084476056509,1187.92174125626,1191.90662004275,1201.41025379294,1192.90699602518,1193.90739696642,0.53,7.50274899159558,1196.90853451332,0,0,0,0,0,0
NaN,NaN,True,True,True,0.53,-0.47,-10.25,16.83,1.9,-14.93,-6.515,gamble,win,1.9,23.0554166666667,1203.42775441532,1,1.36746187217068,1204.82831714104,1208.82985402923,1209.81361190806,NaN,NaN,NaN,NaN,NaN,0,0,0,0,0,0
NaN,NaN,True,False,False,0.53,-0.47,-10.72,-2.53833333333333,-1.1,-3.63833333333333,-2.36916666666667,gamble,lose,-3.63833333333333,19.4170833333333,1211.83096437738,1,2.61799992702436,1214.48203699925,1218.4835434889,1219.46728728834,NaN,NaN,NaN,NaN,NaN,0,0,0,0,0,0
NaN,NaN,True,True,True,0.53,-0.47,-11.19,17.77,10.1,-7.67,1.215,gamble,win,10.1,29.5170833333333,1221.48476903164,1,1.28406832832843,1222.801926694,1226.80349878059,1236.29051122733,1227.78713410511,1228.78756288509,0.53,7.50289138488006,1231.78873275046,0,0,0,0,0,0
NaN,NaN,True,True,False,0.53,-0.47,-11.66,18.24,6.1,-12.14,-3.02,gamble,win,6.1,35.6170833333333,1238.30796193203,1,1.36742059414973,1239.70850417874,1243.71000842843,1244.69369783049,NaN,NaN,NaN,NaN,NaN,0,0,0,0,0,0
NaN,NaN,True,False,False,0.53,-0.47,-12.13,-2.65583333333333,0.7,-1.95583333333333,-0.627916666666667,gamble,lose,-1.95583333333333,33.66125,1246.71117221407,1,1.76761565700872,1248.51193128258,1252.51340577373,1262.00043453975,1253.49718637147,1254.49757867318,0.53,7.50294258253416,1257.49867782177,0,0,0,0,0,0
NaN,NaN,True,True,True,0.53,-0.47,-12.6,19.18,13.5,-5.68000000000001,-2.84,gamble,win,13.5,47.16125,1264.01793580205,1,2.90117805695627,1266.9523833447,1270.95389111422,1271.93762627413,NaN,NaN,NaN,NaN,NaN,0,0,0,0,0,0
NaN,NaN,True,True,False,0.53,-0.47,-13.07,19.65,10.5,-9.15000000000001,0.674999999999997,gamble,win,10.5,57.66125,1273.95509713789,1,1.01746670395369,1275.00553254155,1279.0070879889,1288.4941061954,1279.99076811137,1280.9911376941,0.52,7.50284914689837,1283.99234403769,0,0,0,0,0,0
