isCongruent,isWinOnTop,lastHappyRating,diff,sumDiff,RPE,winAmount,loseAmount,certainAmount,choice,outcome,outcomeAmount,currentWinnings,fixCross_started,outcome1Box_stopped,choiceKey_started,choiceKey_stopped,outcome2Box_2_started,outcome2Box_3_started,choiceKey_rt,fixCross_ISI_stopped,happyText_stopped,happySlider_rt,happySlider_started,happySlider_stopped,trial_sample,choice_sample,outcome_sample,happyText_sample,happySlider_sample,fixCross_ITI_sample
False,True,0.8,-0.2,-0.2,-0.716666666666667,8.1,7.38333333333333,3.69166666666667,gamble,lose,7.38333333333333,7.38333333333333,164.855663264752,None,164.855663264752,None,167.856795357773,171.841620256077,NaN,,,NaN,NaN,,14331,17932,22714,0,0,23935
False,True,0.8,-0.2,-0.4,-0.733333333333333,7.7,6.96666666666667,3.48333333333333,certain,certain,3.48333333333333,10.8666666666667,174.859426561976,None,174.859426561976,None,177.610460180789,181.595273879822,2.71800421411172,,,NaN,NaN,,26335,29637,34418,0,0,35640
True,False,0.8,-0.2,-0.6,3.4,2.7,-0.699999999999999,1,gamble,win,2.7,13.5666666666667,184.613080185722,None,184.613080185722,None,187.580866732751,191.582376723294,2.93474626308307,None,None,7.50276191649027,196.567558720591,None,38040,41601,46403,48784,52385,57809
False,True,0.82,-0.18,-0.78,-0.695,2.5,1.805,0.9025,gamble,lose,1.805,15.3716666666667,203.086705907015,None,203.086705907015,None,204.937389306608,208.938893217593,1.81766423420049,,,NaN,NaN,,60209,62429,67231,0,0,68433
True,True,0.82,-0.18,-0.96,3.48,11.3,7.82,3.91,gamble,win,11.3,26.6716666666667,211.939984033001,None,211.939984033001,None,213.307129977969,217.308634208865,1.33405862376094,None,None,7.50276991596911,222.293853643932,None,70833,72473,77275,79656,83258,88681
True,True,0.89,-0.11,-1.07,2.61,-0.5,-3.11,-1.805,gamble,win,-0.5,26.1716666666667,228.813023869065,None,228.813023869065,None,231.814157241955,235.815659552929,NaN,,,NaN,NaN,,91081,94682,99484,0,0,100685
True,False,0.89,-0.11,-1.18,2.72,11.9,9.18,4.59,gamble,win,11.9,38.0716666666667,238.816785566276,None,238.816785566276,None,240.117209381191,244.118735690834,1.26746864581946,,,NaN,NaN,,103085,104646,109448,0,0,110649
True,False,0.89,-0.11,-1.29,2.83,4.3,1.47,0.735,gamble,win,4.3,42.3716666666667,247.119899141951,None,247.119899141951,None,248.370378073654,252.371874945005,1.21744344732724,None,None,7.50259776622988,257.357062061899,None,113049,114550,119352,121733,125334,130757
True,False,0.89,-0.11,-1.4,2.94,1.5,-1.44,0.0300000000000002,gamble,win,1.5,43.8716666666667,263.876193249365,None,263.876193249365,None,265.710216515232,269.7116906679,1.80090106662828,,,NaN,NaN,,133157,135358,140160,0,0,141361
True,False,0.89,-0.11,-1.51,3.05,-1.1,-4.15,-2.625,certain,certain,-2.625,41.2466666666667,272.712841639761,None,272.712841639761,None,275.480558431009,279.482058822177,2.73467074742075,None,None,7.50274751742836,284.467251698719,None,143761,147083,151885,154265,157867,163290
True,True,0.75,-0.25,-1.76,5.26,1.9,-3.36,-0.73,gamble,win,1.9,43.1466666666667,290.986379686394,None,290.986379686394,None,293.987502179923,297.988976012683,NaN,,,NaN,NaN,,165690,169291,174093,0,0,175295
True,False,0.75,-0.25,-2.01,5.51,10.7,5.19,2.595,gamble,win,10.7,53.8466666666667,300.990130504244,None,300.990130504244,None,301.907144377124,305.908649888006,0.883975188713521,None,None,7.50262912444305,310.893834445043,None,177695,178795,183597,185978,189579,195002
True,True,0.91,-0.09,-2.1,3.36,10.9,7.54,3.77,gamble,win,10.9,64.7466666666667,317.412900676252,None,317.412900676252,None,318.17992918822,322.164766885806,0.73382439755369,,,NaN,NaN,,197402,198323,203105,0,0,204326
True,False,0.91,-0.09,-2.19,3.45,5.5,2.05,1.025,gamble,win,5.5,70.2466666666667,325.182456398616,None,325.182456398616,None,326.049515788676,330.017611437477,0.800716757541522,,,NaN,NaN,,206726,207766,212528,0,0,213730
False,False,0.91,-0.09,-2.28,-0.505,-1.3,-1.805,-1.5525,gamble,lose,-1.805,68.4416666666667,333.01883184514,None,333.01883184514,None,335.419737391523,339.421241622535,2.3678611026844,None,None,7.50261376530398,344.406440898776,None,216130,219011,223813,226194,229795,235218
True,True,0.67,-0.33,-2.61,7.23,-1.5,-8.73,-5.115,gamble,win,-1.5,66.9416666666667,350.925555447116,None,350.925555447116,None,353.92664882238,357.928189531201,NaN,,,NaN,NaN,,237618,241220,246022,0,0,247223
False,False,0.67,-0.33,-2.94,-1.4,8.9,7.5,3.75,gamble,lose,7.5,74.4416666666667,360.929317144444,None,360.929317144444,None,362.596554763964,366.581388621824,1.63426069170237,None,None,7.51928925805259,371.583307548193,None,249623,251624,256406,258807,262408,267851
True,False,0.82,-0.18,-3.12,5.64,2.9,-2.74,0.0800000000000001,gamble,win,2.9,77.3416666666667,378.119107508915,None,378.119107508915,None,380.303208290134,384.288037668215,2.15111649385653,,,NaN,NaN,,270251,272872,277654,0,0,278875
True,False,0.82,-0.18,-3.3,5.82,7.1,1.28,0.64,gamble,win,7.1,84.4416666666667,387.305895491038,None,387.305895491038,None,388.38962781406,392.391133964877,1.05065012152772,,,NaN,NaN,,281275,282576,287378,0,0,288579
False,True,0.82,-0.18,-3.48,-0.92,12.3,11.38,5.69,gamble,lose,11.38,95.8216666666667,395.392255818471,None,395.392255818471,None,396.409256731975,400.394138587057,0.983925431617536,None,None,7.50266592216212,405.396004716516,None,290979,292200,296982,299383,302984,308407
True,False,0.88,-0.12,-3.6,5.28,12.9,7.62,3.81,gamble,win,12.9,108.721666666667,411.915088866721,None,411.915088866721,None,412.865442845854,416.850271263975,0.917271457612514,,,NaN,NaN,,310807,311947,316729,0,0,317951
True,True,0.88,-0.12,-3.72,5.4,3.1,-2.3,0.4,certain,certain,0.4,109.121666666667,419.868074050057,None,419.868074050057,None,422.31907327089,426.303818493965,2.41783382417634,None,None,7.50271199946292,431.305686223437,None,320351,323292,328074,330475,334076,339499
True,False,0.76,-0.24,-3.96,7.32,11.1,3.78,1.89,gamble,win,11.1,120.221666666667,437.824828610173,None,437.824828610173,None,438.858558453387,442.860138519784,1.00061212375294,,,NaN,NaN,,341899,343140,347941,0,0,349143
True,True,0.76,-0.24,-4.2,7.56,8.3,0.74,0.37,gamble,win,8.3,128.521666666667,445.861166298972,None,445.861166298972,None,447.595155806746,451.579981025192,1.70095242362004,None,None,7.50270591978915,456.581927149906,None,351543,353624,358406,360806,364408,369831
True,True,0.83,-0.17,-4.37,6.75,5.3,-1.45,1.925,gamble,win,5.3,133.821666666667,463.100937704556,None,463.100937704556,None,465.101736697252,469.103211489855,1.96770911163185,,,NaN,NaN,,372231,374632,379434,0,0,380635
False,True,0.83,-0.17,-4.54,-0.973333333333334,9.9,8.92666666666667,4.46333333333333,gamble,lose,8.92666666666667,142.748333333333,472.104355102172,None,472.104355102172,None,473.004694442148,476.989523180295,0.867260978091508,,,NaN,NaN,,383035,384116,388898,0,0,390119
True,True,0.83,-0.17,-4.71,7.09,1.1,-5.99,-2.445,gamble,win,1.1,143.848333333333,480.007329166168,None,480.007329166168,None,482.191478264518,486.192973535974,2.15105665742885,None,None,7.50249249243643,491.178176651942,None,392519,395140,399942,402323,405924,411327
True,False,0.9,0.9,0.9,-13.5,4.5,-9,-2.25,gamble,lose,-9,134.848333333333,509.668468906661,None,509.668468906661,None,511.60257456766,515.604063119506,1.90107369644102,,,NaN,NaN,,428113,430434,435236,0,0,436437
True,True,0.9,0.9,1.8,-14.4,12.5,-1.9,-0.95,gamble,lose,-1.9,132.948333333333,518.605207371758,None,518.605207371758,None,520.805979805999,524.807473797584,2.16769279260188,None,None,7.50261792505626,529.792651955038,None,438837,441478,446280,448661,452262,457686
True,True,0.61,0.61,2.41,-10.95,13.3,2.35,1.175,gamble,lose,2.35,135.298333333333,536.311808420927,None,536.311808420927,None,537.729004202993,541.730529552675,1.38394943019375,,,NaN,NaN,,460086,461786,466588,0,0,467789
False,False,0.61,0.61,3.02,2.38666666666667,0.825,-1.56166666666667,-0.368333333333333,gamble,win,0.825,136.123333333333,544.73163476726,None,544.73163476726,None,547.732775499695,551.734300849377,NaN,None,None,7.50269120070152,556.719469727366,None,470189,473791,478593,480974,484575,489998
True,True,0.7,0.7,3.72,-13.52,2.9,-10.62,-3.86,certain,certain,-3.86,132.263333333333,563.238559957244,None,563.238559957244,None,564.822513227235,568.824012978468,1.55085890914779,,,NaN,NaN,,492398,494299,499101,0,0,500302
True,False,0.7,0.7,4.42,-14.22,12.1,-2.12,-1.06,gamble,lose,-2.12,130.143333333333,571.82514827128,None,571.82514827128,None,573.225645201863,577.227218228742,1.36745056696236,,,NaN,NaN,,502702,504383,509185,0,0,510386
True,True,0.7,0.7,5.12,-14.92,1.3,-13.62,-6.16,gamble,lose,-13.62,116.523333333333,580.228345841984,None,580.228345841984,None,583.229404019308,587.230923929368,NaN,None,None,7.50260416581295,592.216119365767,None,512786,516388,521190,523570,527172,532595
False,True,0.54,0.54,5.66,2.36166666666667,1.725,-0.636666666666667,0.544166666666667,gamble,win,1.725,118.248333333333,598.735262392438,None,598.735262392438,None,600.619268939248,604.620804848382,1.85092466522474,,,NaN,NaN,,534995,537256,542058,0,0,543259
True,False,0.54,0.54,6.2,-13.76,11.7,-2.06,-1.03,gamble,lose,-2.06,116.188333333333,607.621898543672,None,607.621898543672,None,609.689387668273,613.690868540551,2.03435444622301,None,None,7.50263488409109,618.676036458695,None,545659,548140,552942,555323,558924,564347
False,True,0.57,0.57,6.77,2.55916666666667,1.425,-1.13416666666667,0.145416666666667,gamble,win,1.425,117.613333333333,625.195189084858,None,625.195189084858,None,627.329304665211,631.330823935219,2.10105097782798,,,NaN,NaN,,566747,569308,574110,0,0,575312
False,False,0.57,0.57,7.34,2.60666666666667,-0.075,-2.68166666666667,-1.37833333333333,gamble,win,-0.075,117.538333333333,634.332004025346,None,634.332004025346,None,637.333073082147,641.334582432755,NaN,,,NaN,NaN,,577712,581313,586115,0,0,587316
True,True,0.57,0.57,7.91,-15.89,7.5,-8.39,-0.445,gamble,lose,-8.39,109.148333333333,644.335758043104,None,644.335758043104,None,645.752989663044,649.754388620262,1.38403390522581,None,None,7.50272543856408,654.739617654704,None,589716,591417,596219,598600,602201,607624
True,False,0.51,0.51,8.42,-15.56,13.5,-2.06,-1.03,gamble,lose,-2.06,107.088333333333,661.258712044219,None,661.258712044219,None,663.292826504679,667.294335535378,2.00104761798866,,,NaN,NaN,,610024,612465,617267,0,0,618469
True,True,0.51,0.51,8.93,-16.07,4.3,-11.77,-3.735,certain,certain,-3.735,103.353333333333,670.295500906417,None,670.295500906417,None,672.279585048556,676.28102208348,1.95098786149174,None,None,7.50273407821078,681.266232239082,None,620869,623250,628051,630432,634034,639457
False,False,0.51,0.51,9.44,2.57166666666667,1.275,-1.29666666666667,-0.0108333333333335,certain,certain,-0.0108333333333335,103.3425,687.785463260603,None,687.785463260603,None,689.936146180145,693.937654570909,2.11759527830873,,,NaN,NaN,,641857,644438,649240,0,0,650441
True,True,0.51,0.51,9.95,-17.09,10.7,-6.39,-3.195,gamble,lose,-6.39,96.9525,696.938797543175,None,696.938797543175,None,699.489803963574,703.491235558875,2.51791205955669,None,None,7.50264384353068,708.476480592391,None,652841,655902,660704,663085,666687,672110
True,True,0.5,0.5,10.45,-17.45,4.7,-12.75,-4.025,gamble,lose,-12.75,84.2025,714.995573382126,None,714.995573382126,None,717.079670483479,721.081257269601,2.05100082082208,,,NaN,NaN,,674510,677011,681813,0,0,683014
True,False,0.5,0.5,10.95,-17.95,3.9,-14.05,-5.075,gamble,lose,-14.05,70.1525,724.082326646312,None,724.082326646312,None,726.866740689031,730.868251319509,2.75131328229327,,,NaN,NaN,,685414,688755,693557,0,0,694759
False,True,0.5,0.5,11.45,2.70416666666667,0.075,-2.62916666666667,-1.27708333333333,certain,certain,-1.27708333333333,68.8754166666666,733.869331895607,None,733.869331895607,None,735.886769583216,739.871578482562,1.98433084762655,None,None,7.50243553589098,744.87345005176,None,697159,699580,704361,706762,710364,715787
True,True,0.42,0.42,11.87,-17.75,8.9,-8.85,0.0250000000000004,certain,certain,0.0250000000000004,68.9004166666666,751.392595318379,None,751.392595318379,None,753.510020686779,757.51156043564,2.08432620787062,,,NaN,NaN,,718187,720728,725530,0,0,726731
False,False,0.42,0.42,12.29,2.49416666666667,-0.375,-2.86916666666667,-1.62208333333333,gamble,win,-0.375,68.5254166666666,760.512770283967,None,760.512770283967,None,763.113695669221,767.115167262149,2.5678326243069,None,None,7.50263104424812,772.100340939825,None,729131,732252,737054,739435,743037,748460
True,False,0.44,0.44,12.73,-18.89,5.5,-13.39,-3.945,certain,certain,-3.945,64.5804166666666,778.619466687553,None,778.619466687553,None,780.970334236277,784.955181533238,2.31780038622674,,,NaN,NaN,,750860,753681,758463,0,0,759684
True,False,0.44,0.44,13.17,-19.33,10.5,-8.83,0.835000000000001,certain,certain,0.835000000000001,65.4154166666666,787.972991358954,None,787.972991358954,None,790.073807150591,794.075258904719,2.06763631594367,None,None,7.50269152061082,799.060444421717,None,762084,764605,769407,771788,775389,780812
True,False,0.5,0.5,13.67,-20.67,4.1,-16.57,-6.235,gamble,lose,-16.57,48.8454166666666,805.579638965428,None,805.579638965428,None,808.580699382583,812.58222409233,NaN,,,NaN,NaN,,783212,786814,791616,0,0,792817
True,False,0.5,0.5,14.17,-21.17,5.9,-15.27,-4.685,gamble,lose,-15.27,33.5754166666666,815.583454099484,None,815.583454099484,None,817.133930631331,821.118761289399,1.51758151920512,,,NaN,NaN,,795217,797078,801860,0,0,803081
False,False,0.5,0.5,14.67,2.9725,2.875,-0.0975000000000001,1.38875,certain,certain,1.38875,34.9641666666666,824.136561835534,None,824.136561835534,None,825.470397752477,829.471855906188,1.30074571585283,None,None,7.50266880192794,834.457130377879,None,805481,807082,811884,814265,817866,823289
False,True,0.41,0.41,15.08,2.69166666666667,-0.175,-2.86666666666667,-1.52083333333333,gamble,win,-0.175,34.7891666666666,840.976217727992,None,840.976217727992,None,843.160420583095,847.161829779739,2.15117505053058,,,NaN,NaN,,825689,828310,833112,0,0,834293
True,True,0.46,-0.54,-0.54,8.1,11.5,3.4,1.7,gamble,win,11.5,46.2891666666666,862.250886587542,None,862.250886587542,None,864.101524869795,868.10312701494,1.81764375546481,None,None,7.50260416581295,873.088265174767,None,851219,853440,858242,860623,864224,869647
True,False,0.54,-0.46,-1,7.44,3.9,-3.54,0.18,certain,certain,0.18,46.4691666666666,879.607435399899,None,879.607435399899,None,881.708217913518,885.709775901283,2.0674932844704,,,NaN,NaN,,872047,874568,879370,0,0,880572
True,False,0.54,-0.46,-1.46,7.9,0.1,-7.8,-3.85,certain,certain,-3.85,42.6191666666666,888.71081040008,None,888.71081040008,None,891.545212843455,895.546727953712,2.80128248408437,,,NaN,NaN,,882972,886373,891175,0,0,892376
False,True,0.54,-0.46,-1.92,-1.77,0.9,-0.87,0.0150000000000001,gamble,lose,-0.87,41.7491666666666,898.547840527841,None,898.547840527841,None,899.981756919995,903.983319707448,1.40090426639654,None,None,7.50265440286603,908.968447627965,None,894776,896497,901299,903680,907281,912704
False,False,0.47,-0.53,-2.45,-2.05916666666667,3.3,1.24083333333333,0.620416666666667,gamble,lose,1.24083333333333,42.99,915.487531458144,None,915.487531458144,None,916.654644765076,920.656161155319,1.13407590263523,,,NaN,NaN,,915104,916505,921307,0,0,922508
True,False,0.47,-0.53,-2.98,10.4,7.3,-3.1,-1.55,gamble,win,7.3,50.29,923.657264129957,None,923.657264129957,None,925.541312914342,929.542812025524,1.85095506347716,None,None,7.51931997621432,934.527980903513,None,924908,927169,931971,934352,937953,943396
True,True,0.6,-0.4,-3.38,8.98,1.7,-7.28,-2.79,certain,certain,-2.79,47.5,941.063768704887,None,941.063768704887,None,944.014897038112,948.016415668186,2.91805221128743,,,NaN,NaN,,945796,949338,954139,0,0,955341
True,True,0.6,-0.4,-3.78,9.38,0.3,-9.08,-4.39,gamble,win,0.3,47.8,951.017523122602,None,951.017523122602,None,953.902069157572,957.90351547196,2.85133072128519,None,None,7.50274751731195,962.888639232609,None,957741,961202,966004,968385,971986,977410
False,True,0.5,-0.5,-4.28,-2.10666666666667,4.5,2.39333333333333,1.19666666666667,gamble,lose,2.39333333333333,50.1933333333333,969.407781939371,None,969.407781939371,None,970.274781493004,974.259623350343,0.833866155124269,,,NaN,NaN,,979810,980850,985632,0,0,986853
True,True,0.5,-0.5,-4.78,11.78,11.1,-0.680000000000001,-0.340000000000001,gamble,win,11.1,61.2933333333333,977.277457494522,None,977.277457494522,None,979.211466521258,983.212970432127,1.90094442409463,,,NaN,NaN,,989253,991574,996376,0,0,997578
False,True,0.5,-0.5,-5.28,-2.19,1.5,-0.69,0.405,gamble,lose,-0.69,60.6033333333333,986.214090045891,None,986.214090045891,None,987.547926602769,991.532731342362,1.30075915495399,None,None,7.50285695085768,996.534580832813,None,999978,1001578,1006360,1008761,1012362,1017785
False,True,0.61,-0.39,-5.67,-1.8375,13.9,12.0625,6.03125,gamble,lose,12.0625,72.6658333333333,1003.0537552177,None,1003.0537552177,None,1004.23756129644,1008.28909552551,1.15054180787411,,,NaN,NaN,,1020185,1021606,1026468,0,0,1027609
True,True,0.61,-0.39,-6.06,11.52,10.9,-0.619999999999999,-0.31,gamble,win,10.9,83.5658333333333,1011.24015602283,None,1011.24015602283,None,1012.59068375151,1016.5921646239,1.31743080809247,None,None,7.50269248068798,1021.57733926154,None,1030009,1031630,1036432,1038813,1042414,1047837
False,True,0.67,-0.33,-6.39,-1.6875,2.7,1.0125,1.85625,gamble,lose,1.0125,84.5783333333333,1028.09652420576,None,1028.09652420576,None,1029.24700361746,1033.24844065239,1.11745480669197,,,NaN,NaN,,1050237,1051618,1056420,0,0,1057621
True,True,0.67,-0.33,-6.72,11.34,3.5,-7.84,-2.17,gamble,win,3.5,88.0783333333333,1036.24958426459,None,1036.24958426459,None,1038.26695411629,1042.25179501378,1.98429532966111,,,NaN,NaN,,1060021,1062442,1067224,0,0,1068445
True,False,0.67,-0.33,-7.05,11.67,4.1,-7.57,-1.735,gamble,win,4.1,92.1783333333333,1045.26959939976,None,1045.26959939976,None,1046.65343811654,1050.65495834651,1.35076227493118,None,None,7.50288446922787,1055.64019186061,None,1070845,1072506,1077308,1079689,1083290,1088713
True,True,0.76,-0.24,-7.29,10.65,6.9,-3.75,1.575,gamble,win,6.9,99.0783333333333,1062.15929200989,None,1062.15929200989,None,1063.39307912975,1067.37790082826,1.20070843806025,,,NaN,NaN,,1091113,1092594,1097376,0,0,1098597
True,False,0.76,-0.24,-7.53,10.89,9.7,-1.19,-0.595000000000001,gamble,win,9.7,108.778333333333,1070.39575577131,None,1070.39575577131,None,1071.56285595894,1075.56431411265,1.13389735331293,None,None,7.50274271762464,1080.54948811035,None,1100997,1102398,1107200,1109580,1113182,1118605
False,True,0.89,-0.11,-7.64,-1.02166666666667,-0.1,-1.12166666666667,-0.610833333333333,gamble,lose,-1.12166666666667,107.656666666667,1087.06868873362,None,1087.06868873362,None,1089.51960155962,1093.52102483541,2.41788214142434,,,NaN,NaN,,1121005,1123946,1128748,0,0,1129949
False,True,0.89,-0.11,-7.75,-1.03083333333333,12.5,11.4691666666667,5.73458333333333,gamble,lose,11.4691666666667,119.125833333333,1096.52218156692,None,1096.52218156692,None,1097.52255722461,1101.52412097203,0.967286736587994,None,None,7.50275295705069,1106.50923097355,None,1132349,1133550,1138352,1140733,1144334,1149757
True,True,0.83,-0.17,-7.92,10.3,7.1,-3.2,1.95,gamble,win,7.1,126.225833333333,1113.02838295978,None,1113.02838295978,None,1114.66232911008,1118.647145689,1.60086682869587,,,NaN,NaN,,1152157,1154118,1158900,0,0,1160121
True,True,0.83,-0.17,-8.09,10.47,11.3,0.829999999999998,0.414999999999999,gamble,win,11.3,137.525833333333,1121.66495359479,None,1121.66495359479,None,1122.98213385767,1126.98367040674,1.2840862221783,,,NaN,NaN,,1162521,1164102,1168904,0,0,1170105
False,True,0.83,-0.17,-8.26,-1.28333333333333,13.5,12.2166666666667,6.10833333333333,gamble,lose,12.2166666666667,149.7425,1129.98476186208,None,1129.98476186208,None,1130.85176077578,1134.8533475619,0.833887913846411,None,None,7.50274527748115,1139.83849212131,None,1172505,1173546,1178348,1180729,1184330,1189753
False,False,0.88,-0.12,-8.38,-1.11833333333333,13.7,12.5816666666667,6.29083333333333,gamble,lose,12.5816666666667,162.324166666667,1146.35761466925,None,1146.35761466925,None,1147.59131827403,1151.59286218253,1.20063484238926,,,NaN,NaN,,1192153,1193633,1198435,0,0,1199637
False,False,0.88,-0.12,-8.5,-1.12833333333333,10.3,9.17166666666667,4.58583333333333,gamble,lose,9.17166666666667,171.495833333333,1154.59399171569,None,1154.59399171569,None,1155.4776571627,1159.47919243178,0.850597004638985,None,None,7.50272575870622,1164.46434339089,None,1202037,1203097,1207899,1210280,1213881,1219304
True,False,0.91,-0.09,-8.59,9.85,-0.9,-10.75,-5.825,gamble,win,-0.9,170.595833333333,1170.98347489827,None,1170.98347489827,None,1173.18430940888,1177.18580852018,2.16771679115482,,,NaN,NaN,,1221704,1224346,1229147,0,0,1230349
False,True,0.91,-0.09,-8.68,-1.03833333333333,7.5,6.46166666666667,3.23083333333333,gamble,lose,6.46166666666667,177.0575,1180.18698285066,None,1180.18698285066,None,1181.22069445497,1185.20547903562,1.00061948341317,None,None,7.50267104187515,1190.20734772505,None,1232749,1233989,1238771,1241172,1244774,1250177
