isHappyBlock,isCongruent,isWinOnTop,lastHappyRating,diff,sumDiff,RPE,winAmount,loseAmount,certainAmount,choice,outcome,outcomeAmount,currentWinnings,outcome1Box_started,choiceKey_keys,choiceKey_rt,outcome1Box_2_started,outcome1Box_3_started,fixCross_ITI_started,fixCross_ISI_started,happyText_started,happySlider_response,happySlider_rt,happySlider_started,trial_sample,choice_sample,outcome_sample,happyText_sample,happySlider_sample,fixCross_ITI_sample
True,False,True,0.6,-0.4,-0.4,-1.43333333333333,6.5,5.06666666666667,2.53333333333333,gamble,lose,5.06666666666667,5.06666666666667,115.289908565115,1,2.25094114732929,117.574109289912,121.55901029543,122.559330277494,NaN,NaN,NaN,NaN,NaN,0,0,0,0,0,0
True,True,False,0.6,-0.4,-0.8,6.4,7.9,1.5,0.75,gamble,win,7.9,12.9666666666667,124.576798419293,1,1.21743582357885,125.827281672216,129.828807346814,130.812452102662,NaN,NaN,NaN,NaN,NaN,0,0,0,0,0,0
True,True,True,0.6,-0.4,-1.2,6.8,8.3,1.5,0.75,gamble,win,8.3,21.2666666666667,132.829950002779,1,1.20068060187623,134.047047285363,138.048580639472,147.568797267333,139.048912780883,140.049297719321,0.66,7.51920612441609,143.050498932076,0,0,0,0,0,0
True,True,False,0.66,-0.34,-1.54,6.3,7.7,1.4,0.7,gamble,win,7.7,28.9666666666667,149.586284608056,1,1.26740134548163,150.886728903162,154.871619669313,155.871984448866,NaN,NaN,NaN,NaN,NaN,0,0,0,0,0,0
True,True,False,0.66,-0.34,-1.88,6.64,4.7,-1.94,1.38,gamble,win,4.7,33.6666666666667,157.889490668545,1,2.3677704448346,160.290346940572,164.291806058842,173.778791587683,165.275622965128,166.275946786976,0.68,7.50278176425491,169.277036965941,0,0,0,0,0,0
True,True,False,0.68,-0.32,-2.2,6.68,7.5,0.82,0.41,gamble,win,7.5,41.1666666666667,175.796239570598,1,1.41742590413196,177.246772740735,181.248278896383,182.232003647776,NaN,NaN,NaN,NaN,NaN,0,0,0,0,0,0
True,False,False,0.68,-0.32,-2.52,-1.33,9.1,7.77,3.885,gamble,lose,7.77,48.9366666666667,184.249384754454,1,1.4173123104847,185.699965601903,189.684779892326,190.685177630046,NaN,NaN,NaN,NaN,NaN,0,0,0,0,0,0
True,False,False,0.68,-0.32,-2.84,-1.35666666666667,10.3,8.94333333333334,4.47166666666667,gamble,lose,8.94333333333334,57.88,192.702609933855,1,1.06733222934417,193.802979033149,197.804488068679,207.291506235662,198.788190421357,199.78863039671,0.74,7.50275104591856,202.789693377155,0,0,0,0,0,0
True,False,False,0.74,-0.26,-3.1,-1.16833333333333,12.7,11.5316666666667,5.76583333333333,gamble,lose,11.5316666666667,69.4116666666667,209.308900781558,1,1.30077163677197,210.642769764876,214.644238162669,215.627955874486,NaN,NaN,NaN,NaN,NaN,0,0,0,0,0,0
True,True,False,0.74,-0.26,-3.36,7,3.9,-3.1,0.4,gamble,win,3.9,73.3116666666667,217.645384338452,1,2.00106042064726,219.679504987726,223.664342316857,233.1679416353,224.664718935732,225.665034118108,0.75,7.50273696670774,228.666189573414,0,0,0,0,0,0
True,True,True,0.75,-0.25,-3.61,7.11,10.7,3.59,1.795,gamble,win,10.7,84.0116666666667,235.185370419233,1,1.00062172522303,236.219031574263,240.203935779573,241.20430535893,NaN,NaN,NaN,NaN,NaN,0,0,0,0,0,0
True,True,True,0.75,-0.25,-3.86,7.36,13.7,6.34,3.17,gamble,win,13.7,97.7116666666667,243.221736382751,1,1.18400761554949,244.438867903373,248.423716111924,257.927308070764,249.424034174066,250.424472229555,0.75,7.502634892473,253.425590886909,0,0,0,0,0,0
True,True,False,0.75,-0.25,-4.11,7.61,9.3,1.69,0.845000000000001,gamble,win,9.3,107.011666666667,259.944737174723,1,1.15049653220922,261.128522402723,265.130035278038,266.113725471369,NaN,NaN,NaN,NaN,NaN,0,0,0,0,0,0
True,True,True,0.75,-0.25,-4.36,7.86,4.5,-3.36,0.57,gamble,win,4.5,111.511666666667,268.131177294068,1,1.73421008425066,269.898473525478,273.900023518712,274.883731631038,NaN,NaN,NaN,NaN,NaN,0,0,0,0,0,0
True,True,True,0.75,-0.25,-4.61,8.11,1.7,-6.41,-2.355,gamble,win,1.7,113.211666666667,276.901093218767,1,1.71762861276511,278.651820458064,282.653340372955,292.140203988587,283.637053924962,284.637357907952,0.75,7.50279968319228,287.638547601353,0,0,0,0,0,0
True,True,False,0.75,-0.25,-4.86,8.36,6.7,-1.66,-0.83,gamble,win,6.7,119.911666666667,294.157692929206,1,2.25101986288792,296.441831577453,300.44340876909,301.427106642048,NaN,NaN,NaN,NaN,NaN,0,0,0,0,0,0
True,True,True,0.75,-0.25,-5.11,8.61,3.1,-5.51,-1.205,gamble,win,3.1,123.011666666667,303.444548865256,1,2.60120697238017,306.078817666217,310.080368299386,319.567254633759,311.064074491849,312.064471909602,0.75,7.50272736727493,315.065584167314,0,0,0,0,0,0
True,False,False,0.75,-0.25,-5.36,-1.32166666666667,2.1,0.778333333333334,1.43916666666667,certain,certain,1.43916666666667,124.450833333333,321.584716695885,3,2.61794459511293,324.235740718548,328.2205335701,329.220958506339,NaN,NaN,NaN,NaN,NaN,0,0,0,0,0,0
True,True,True,0.75,-0.25,-5.61,9.11,2.3,-6.81,-2.255,gamble,win,2.3,126.750833333333,331.238400729548,1,2.33431983808987,333.605963826005,337.590804354986,338.591127216874,NaN,NaN,NaN,NaN,NaN,0,0,0,0,0,0
True,True,True,0.75,-0.25,-5.86,9.36,5.7,-3.66,1.02,certain,certain,1.02,127.770833333333,340.608585439215,3,1.91770316864131,342.559364835557,346.560813074466,356.047789323784,347.544515427144,348.544957642385,0.77,7.50282688165316,351.546068940137,0,0,0,0,0,0
True,True,False,0.77,-0.23,-6.09,9.31,7.1,-2.21,-1.105,gamble,win,7.1,134.870833333333,358.06519794889,1,2.68462214118335,360.782924156229,364.784439271432,365.768122425128,NaN,NaN,NaN,NaN,NaN,0,0,0,0,0,0
True,False,True,0.77,-0.23,-6.32,-1.33166666666667,12.1,10.7683333333333,5.38416666666667,gamble,lose,10.7683333333333,145.639166666667,367.785566888284,1,1.68424392229645,369.50290111755,373.487727247295,382.991327845666,374.488112825667,375.488491044496,0.77,7.50281664222712,378.489567784185,0,0,0,0,0,0
True,True,True,0.77,-0.23,-6.55,9.77,4.3,-5.47,-0.585,gamble,win,4.3,149.939166666667,385.008759829449,1,2.10105642082635,387.142898877675,391.144417832606,392.128099386464,NaN,NaN,NaN,NaN,NaN,0,0,0,0,0,0
True,True,True,0.77,-0.23,-6.78,10,8.5,-1.5,-0.75,gamble,win,8.5,158.439166666667,394.145524970605,1,1.78430455893977,395.962909597089,399.964359115867,409.451328325609,400.948109145917,401.948499524035,0.73,7.50275840552058,404.949631940632,0,0,0,0,0,0
True,False,True,0.73,-0.27,-7.05,-1.5325,11.9,10.3675,5.18375,gamble,lose,10.3675,168.806666666667,411.468790707702,1,1.53415408736328,413.036041821644,417.020811954513,418.021205852448,NaN,NaN,NaN,NaN,NaN,0,0,0,0,0,0
True,True,False,0.73,-0.27,-7.32,11.1,13.1,2,0.999999999999999,gamble,win,13.1,181.906666666667,420.038683593739,1,1.71739598584827,421.789362195705,425.774128168821,426.774572623952,NaN,NaN,NaN,NaN,NaN,0,0,0,0,0,0
True,True,False,0.73,-0.27,-7.59,11.37,12.9,1.53,0.765,gamble,win,12.9,194.806666666667,428.791950850748,1,0.833891542104539,429.658939419372,433.643811306567,443.147377666843,434.64422184357,435.644539265777,0.75,7.50272544735344,438.645669762511,0,0,0,0,0,0
False,False,False,0.74,0.74,0.74,2.65166666666667,2.875,0.223333333333334,1.54916666666667,certain,certain,1.54916666666667,196.355833333333,457.786322365922,3,1.85096898576012,459.67036565952,463.655208108365,464.655523610709,NaN,NaN,NaN,NaN,NaN,0,0,0,0,0,0
False,True,False,0.74,0.74,1.48,-11.84,0.9,-10.94,-5.02,certain,certain,-5.02,191.335833333333,466.67301351123,3,2.83466909854906,469.540771956788,473.542285792006,483.029214044043,474.525992944371,475.526372763154,0.74,7.50274336640723,478.527498140116,0,0,0,0,0,0
False,False,False,0.74,0.74,2.22,2.775,3.175,0.4,1.7875,gamble,win,3.175,194.510833333333,485.046630348719,1,2.10091178899165,487.18078859587,491.165624645015,492.165994224313,NaN,NaN,NaN,NaN,NaN,0,0,0,0,0,0
False,True,False,0.74,0.74,2.96,-13.32,-1.3,-14.62,-7.96,gamble,lose,-14.62,179.890833333333,494.1834409273,1,2.43430399900535,496.650971865573,500.6525586567,510.156091418874,501.63625972945,502.636642748024,0.7,7.51932515780209,505.637703488581,0,0,0,0,0,0
False,False,False,0.7,0.7,3.66,2.755,0.275,-2.48,-1.1025,certain,certain,-1.1025,178.788333333333,512.173513483256,3,2.33448654873064,514.541089059028,518.54266241088,519.5263449247,NaN,NaN,NaN,NaN,NaN,0,0,0,0,0,0
False,False,False,0.7,0.7,4.36,2.81333333333333,2.175,-0.638333333333333,0.768333333333333,certain,certain,0.768333333333333,179.556666666667,521.543798027327,3,1.76755541691091,523.344470309676,527.329322037986,528.329697696958,NaN,NaN,NaN,NaN,NaN,0,0,0,0,0,0
False,False,True,0.7,0.7,5.06,2.87166666666667,3.025,0.153333333333333,1.58916666666667,gamble,win,3.025,182.581666666667,530.347129360773,1,1.81757917557843,532.197835321247,536.19932035805,545.70295359462,537.183029750362,538.183428128017,0.75,7.51946339005372,541.184551905084,0,0,0,0,0,0
False,True,False,0.75,0.75,5.81,-16.31,9.3,-7.01,1.145,certain,certain,1.145,183.726666666667,547.720313582453,3,1.91769548907178,549.671108657902,553.672567456204,554.656337005144,NaN,NaN,NaN,NaN,NaN,0,0,0,0,0,0
False,True,True,0.75,0.75,6.56,-17.06,7.7,-9.36,-0.830000000000001,certain,certain,-0.830000000000001,182.896666666667,556.673757149605,3,2.33450254786294,559.041331125482,563.042844640731,572.529773852671,564.026559472666,565.026866655448,0.73,7.50277568452293,568.028050589142,0,0,0,0,0,0
False,False,True,0.73,0.73,7.29,3.1625,1.875,-1.2875,0.29375,certain,certain,0.29375,183.190416666667,574.547200716741,3,1.65088899026159,576.23117393424,580.232625372999,581.21640164149,NaN,NaN,NaN,NaN,NaN,0,0,0,0,0,0
False,False,False,0.73,0.73,8.02,3.22333333333333,2.275,-0.948333333333333,0.663333333333333,certain,certain,0.663333333333333,183.85375,583.233815386367,3,1.93431951809907,585.201202812663,589.20275056595,590.186387322319,NaN,NaN,NaN,NaN,NaN,0,0,0,0,0,0
False,True,True,0.73,0.73,8.75,-18.97,6.1,-12.87,-3.385,certain,certain,-3.385,180.46875,592.203851304308,3,2.01772252755472,594.254607181996,598.256176054128,607.743111665768,599.239877126878,600.240228147246,0.74,7.50274240644649,603.241393841919,0,0,0,0,0,0
False,True,False,0.74,0.74,9.49,-19.85,5.9,-13.95,-4.025,gamble,lose,-13.95,166.51875,609.760528610379,1,2.60127224872122,612.394863007648,616.396384842461,617.380089754995,NaN,NaN,NaN,NaN,NaN,0,0,3624,0,0,4825
False,True,False,0.74,0.74,10.23,-20.59,11.1,-9.49,0.804999999999998,certain,certain,0.804999999999998,167.32375,619.397457422398,3,2.70131304644747,622.131889254204,626.133397649741,635.620325581753,627.117104802106,628.117490380537,0.74,7.50273216702044,631.11861223774,7225,10507,15308,17689,21291,26714
False,False,True,0.74,0.74,10.97,3.50416666666667,1.975,-1.52916666666667,0.222916666666667,certain,certain,0.222916666666667,167.546666666667,637.637763325241,3,1.8342873599031,639.505130112695,643.48994312319,644.490290943708,NaN,NaN,NaN,NaN,NaN,29114,31354,36137,0,0,37358
False,True,False,0.74,0.74,11.71,-22.07,13.9,-8.17,-4.085,certain,certain,-4.085,163.461666666667,646.507778284431,3,1.45074019854655,647.991675346158,651.993195581075,661.480105594092,652.976897613727,653.977215675928,0.71,7.5029260761803,656.978400569584,39758,41539,46341,48721,52323,57746
False,True,False,0.71,0.71,12.42,-22.36,2.1,-20.26,-9.08,gamble,lose,-20.26,143.201666666667,663.497560296615,1,2.43449406832224,665.965154911333,669.966647947731,670.950367899379,NaN,NaN,NaN,NaN,NaN,60146,63107,67909,0,0,69111
False,False,False,0.71,0.71,13.13,3.57916666666667,1.025,-2.55416666666667,-0.764583333333333,certain,certain,-0.764583333333333,142.437083333333,672.967809482652,3,2.83457982348045,675.835529530363,679.837049765221,680.820778996393,NaN,NaN,NaN,NaN,NaN,71511,74952,79753,0,0,80955
False,False,False,0.71,0.71,13.84,3.63833333333333,3.325,-0.313333333333333,1.50583333333333,certain,certain,1.50583333333333,143.942916666667,682.83817770204,3,1.36739254603162,684.23867943394,688.223602838232,697.727184877673,689.223894341907,690.224302959046,0.72,7.50291519670282,693.22543025593,83355,85036,89818,92218,95820,101243
False,True,False,0.72,0.72,14.56,-24.64,5.3,-19.34,-7.02,certain,certain,-7.02,136.922916666667,699.744609501853,3,1.91764045209857,701.695287463896,705.696850256412,706.68056572834,NaN,NaN,NaN,NaN,NaN,103643,105984,110786,0,0,111987
False,True,True,0.72,0.72,15.28,-25.36,1.9,-23.46,-10.78,gamble,lose,-23.46,113.462916666667,708.697934995638,NaN,NaN,711.699075091805,715.700651643507,725.187572535942,716.684360075858,717.684738614655,0.71,7.50274112651823,720.685797435348,114387,117989,122791,125171,128773,134196
False,True,False,0.71,0.71,15.99,-25.93,5.7,-20.23,-7.265,certain,certain,-7.265,106.197916666667,727.204950122803,3,2.18442839203635,729.422450262762,733.424027774425,734.407732047024,NaN,NaN,NaN,NaN,NaN,136596,139257,144059,0,0,145260
False,False,False,0.71,0.71,16.7,3.87666666666667,0.925,-2.95166666666667,-1.01333333333333,certain,certain,-1.01333333333333,105.184583333333,736.425157631165,3,1.70091434876667,738.159089650959,742.16067260236,751.647595094691,743.14437495498,744.144729495165,0.73,7.50281120260479,747.145867031475,147660,149741,154543,156924,160525,165948
False,False,False,0.73,0.73,17.43,4.0075,1.375,-2.6325,-0.62875,gamble,win,1.375,106.559583333333,753.665034758043,1,2.38449942803709,756.082612973696,760.084111129807,761.067827881663,NaN,NaN,NaN,NaN,NaN,168348,171250,176051,0,0,177253
False,True,True,0.73,0.73,18.16,-28.38,8.3,-20.08,-5.89,certain,certain,-5.89,100.669583333333,763.085192029248,3,2.10108233935898,765.219340036972,769.22091274889,770.204616061528,NaN,NaN,NaN,NaN,NaN,179653,182214,187016,0,0,188217
False,True,True,0.73,0.73,18.89,-29.11,12.9,-16.21,-1.655,certain,certain,-1.655,99.0145833333334,772.222033646132,3,2.68461990129435,774.939754733758,778.941265049158,788.428191381274,779.924904365384,780.925323221891,0.7,7.50260257424088,783.926412440895,190617,193878,198680,201061,204663,210086
False,True,False,0.7,0.7,19.59,-29.39,-0.3,-29.69,-14.995,gamble,lose,-29.69,69.3245833333334,790.445596166595,1,1.93434351676842,792.413030630269,796.414525266562,797.398241378483,NaN,NaN,NaN,NaN,NaN,212486,214847,219649,0,0,220830
True,True,True,0.71,-0.29,-0.29,4.35,12.7,8.35,4.175,gamble,win,12.7,82.0245833333334,812.153781468223,1,1.66766309086233,813.854476629291,817.839268840966,827.359597782546,818.83968257776,819.840053757012,0.74,7.51951746706618,822.841214331973,238536,240577,245359,247759,251361,256804
True,False,True,0.74,-0.26,-0.55,-0.955833333333333,3.7,2.74416666666667,1.37208333333333,gamble,lose,2.74416666666667,84.7687500000001,829.376968969766,1,1.36746582190972,830.7775628565,834.762332029408,835.762783204147,NaN,NaN,NaN,NaN,NaN,259204,260885,265667,0,0,266888
True,False,True,0.74,-0.26,-0.81,-0.9775,11.7,10.7225,5.36125,gamble,lose,10.7225,95.4912500000001,837.780208468321,1,1.4341379282414,839.247438303486,843.248940299323,844.232663130853,NaN,NaN,NaN,NaN,NaN,269288,271049,275851,0,0,277052
True,True,True,0.74,-0.26,-1.07,4.71,-1.5,-6.21,-3.855,certain,certain,-3.855,91.63625,846.250083915307,3,2.21778556401841,848.500941547274,852.502461142198,861.989317718195,853.486092458828,854.48653147422,0.72,7.50269376917277,857.487602454261,279452,282153,286955,289336,292937,298360
True,True,False,0.72,-0.28,-1.35,5.27,0.7,-4.57,-1.935,certain,certain,-1.935,89.70125,864.006804418983,3,2.08439783373615,866.124220883648,870.125739198586,871.109506507637,NaN,NaN,NaN,NaN,NaN,300760,303301,308103,0,0,309305
True,True,False,0.72,-0.28,-1.63,5.55,11.5,5.95,2.975,gamble,win,11.5,101.20125,873.126925372169,1,1.70075915753841,874.860898349667,878.845764157188,888.349362195702,879.846146535769,880.846521554806,0.73,7.50270496850135,883.847651411546,311705,313785,318567,320968,324569,329993
True,True,True,0.73,-0.27,-1.9,5.68,2.9,-2.78,0.0599999999999996,gamble,win,2.9,104.10125,890.366788419837,1,1.03400417574449,891.433865303523,895.418655595277,896.419092690805,NaN,NaN,NaN,NaN,NaN,332393,333673,338455,0,0,339677
True,True,False,0.73,-0.27,-2.17,5.95,11.1,5.15,2.575,gamble,win,11.1,115.20125,898.436512195331,1,1.93432719766861,900.403870503244,904.388710712199,913.892371147231,905.389156447258,906.389529866341,0.72,7.50270752835786,909.390658763121,342077,344438,349219,351620,355221,360645
True,False,True,0.72,-0.28,-2.45,-1.18416666666667,1.7,0.515833333333333,1.10791666666667,gamble,lose,0.515833333333333,115.717083333333,915.9097816922,1,0.717218395788223,916.660092314822,920.644856048049,921.645245466265,NaN,NaN,NaN,NaN,NaN,363045,363945,368727,0,0,369948
True,True,False,0.72,-0.28,-2.73,6.65,7.1,0.449999999999999,0.225,gamble,win,7.1,122.817083333333,923.662719047745,1,1.33409425069112,925.02993144386,929.031408161158,930.015143471945,NaN,NaN,NaN,NaN,NaN,372348,373989,378791,0,0,379993
True,True,True,0.72,-0.28,-3.01,6.93,9.7,2.77,1.385,gamble,win,9.7,132.517083333333,932.032577055681,1,1.48419272521278,933.549754173786,937.534655179305,947.038222179573,938.535028918355,939.535418336571,0.76,7.50268128985772,942.536535394029,382393,384213,388995,391396,394997,400420
True,True,False,0.76,-0.24,-3.25,6.61,3.5,-3.11,0.194999999999999,certain,certain,0.194999999999999,132.712083333333,949.055688081484,3,2.30113193660509,951.389843768731,955.374750853982,956.375127792824,NaN,NaN,NaN,NaN,NaN,402820,405621,410403,0,0,411625
True,True,False,0.76,-0.24,-3.49,6.85,0.5,-6.35,-2.925,certain,certain,-2.925,129.787083333333,958.39256137656,3,2.58439063408878,961.010215747927,965.011725743359,974.498653035436,965.99544089532,966.995805674873,0.73,7.50273984658998,969.996932011796,414025,417166,421968,424349,427950,433373
True,False,True,0.73,-0.27,-3.76,-1.25833333333333,0.3,-0.958333333333333,-0.329166666666667,gamble,lose,-0.958333333333333,128.82875,976.516067100223,1,1.71755693678278,978.266741542495,982.268264977145,983.251976289321,NaN,NaN,NaN,NaN,NaN,435773,437874,442676,0,0,443877
True,True,True,0.73,-0.27,-4.03,7.81,8.3,0.489999999999999,0.245,gamble,win,8.3,137.12875,985.269402513455,1,1.30075755756116,986.60324013856,990.604754293745,991.588465925888,NaN,NaN,NaN,NaN,NaN,446277,447878,452680,0,0,453881
True,True,False,0.73,-0.27,-4.3,8.08,-0.9,-8.98,-4.94,certain,certain,-4.94,132.18875,993.60583135346,3,2.78470229665982,996.423632916587,1000.42514451192,1009.91206380446,1001.40884558466,1002.40915564727,0.7,7.50285088038072,1005.41034310078,456281,459663,464465,466845,470447,475870
True,True,False,0.7,-0.3,-4.6,8.8,13.9,5.1,2.55,gamble,win,13.9,146.08875,1011.92948906863,1,1.3507611573441,1013.31334725255,1017.29816250288,1018.29856984009,NaN,NaN,NaN,NaN,NaN,478270,479931,484712,0,0,485934
True,True,True,0.7,-0.3,-4.9,9.1,7.3,-1.8,-0.900000000000001,gamble,win,7.3,153.38875,1020.31600182393,1,2.21775964542758,1022.56685657601,1026.5683102546,1036.05529930326,1027.55208012351,1028.55246218212,0.7,7.5027129680966,1031.55356612027,488334,491035,495837,498218,501819,507242
True,False,False,0.7,-0.3,-5.2,-1.48333333333333,1.5,0.0166666666666664,0.758333333333333,gamble,lose,0.0166666666666664,153.405416666667,1038.07272392744,1,1.58415352739394,1039.69002087886,1043.69152607454,1044.67522458744,NaN,NaN,NaN,NaN,NaN,509642,511583,516385,0,0,517586
True,True,False,0.7,-0.3,-5.5,9.7,2.7,-7,-2.15,gamble,win,2.7,156.105416666667,1046.69266329089,NaN,NaN,1049.69379538746,1053.69531274249,1063.18223811465,1054.67898693675,1055.67939971364,0.72,7.50272640731419,1058.68045437458,519986,523588,528390,530771,534372,539795
True,True,False,0.72,-0.28,-5.78,9.7,4.5,-5.2,-0.350000000000001,gamble,win,4.5,160.605416666667,1065.19967297831,1,1.01728927181102,1066.25000999944,1070.23489468591,1071.23528634396,NaN,NaN,NaN,NaN,NaN,542195,543456,548237,0,0,549459
True,False,True,0.72,-0.28,-6.06,-1.485,10.9,9.415,4.7075,gamble,lose,9.415,170.020416666667,1073.25271768781,1,1.21737438702257,1074.50319518108,1078.50469941681,1079.48841552873,NaN,NaN,NaN,NaN,NaN,551859,553360,558161,0,0,559363
True,True,True,0.72,-0.28,-6.34,10.26,10.3,0.0399999999999991,0.0199999999999996,gamble,win,10.3,180.320416666667,1081.50584623264,1,1.18386586353881,1082.72297455341,1086.72445415059,1096.21141504077,1087.70819042134,1088.70857151999,0.7,7.50272064760793,1091.70969721698,561763,563223,568025,570406,574008,579430
True,True,True,0.7,-0.3,-6.64,10.84,-0.1,-10.94,-5.52,certain,certain,-5.52,174.800416666667,1098.22881406639,3,2.26777668454451,1100.52969865687,1104.53122273152,1105.51493884344,NaN,NaN,NaN,NaN,NaN,581830,584592,589394,0,0,590595
True,False,True,0.7,-0.3,-6.94,-1.62833333333333,6.1,4.47166666666667,2.23583333333333,gamble,lose,4.47166666666667,179.272083333333,1107.53236378764,NaN,NaN,1110.53350196389,1114.51834121288,1124.02194245125,1115.51873095107,1116.51909765054,0.76,7.50276928488165,1119.52015903109,592995,596596,601378,603779,607381,612804
True,True,True,0.76,-0.24,-7.18,10.54,10.7,0.159999999999998,0.0799999999999992,gamble,win,10.7,189.972083333333,1126.03936931532,1,1.65081283444306,1127.72332429385,1131.72480261105,1132.70857151999,NaN,NaN,NaN,NaN,NaN,615204,617224,622026,0,0,623228
True,True,False,0.76,-0.24,-7.42,10.78,7.7,-3.08,-1.54,gamble,win,7.7,197.672083333333,1134.72599902406,1,1.45079459552653,1136.20988424646,1140.21140576131,1149.69833849306,1141.19507803564,1142.19547065365,0.73,7.50282208196586,1145.19658131147,625628,627409,632210,634591,638193,643596
