isHappyBlock,isCongruent,isWinOnTop,lastHappyRating,diff,sumDiff,RPE,winAmount,loseAmount,certainAmount,choice,outcome,outcomeAmount,currentWinnings,outcome1Box_started,choiceKey_keys,choiceKey_rt,outcome1Box_2_started,outcome1Box_3_started,fixCross_ITI_started,fixCross_ISI_started,happyText_started,happySlider_response,happySlider_rt,happySlider_started,trial_sample,choice_sample,outcome_sample,happyText_sample,happySlider_sample,fixCross_ITI_sample
True,True,True,0.73,-0.27,-0.27,4.05,2.9,-1.15,0.875,gamble,win,2.9,2.9,66.6296787414176,1,2.30116320963134,68.9639200856618,72.9487915124628,73.9491966135392,NaN,NaN,NaN,NaN,NaN,14921,17722,22504,0,0,23726
True,True,True,0.73,-0.27,-0.54,4.32,5.1,0.779999999999999,0.39,gamble,win,5.1,8,75.9666773968202,1,0.733824595721671,76.7336482839601,80.7185177908395,81.7188694544311,NaN,NaN,NaN,NaN,NaN,26126,27046,31828,0,0,33049
True,False,True,0.73,-0.27,-0.81,-1.0125,-0.9,-1.9125,-1.40625,gamble,lose,-1.9125,6.0875,83.7362888006028,NaN,NaN,86.7374602658674,90.739088349801,100.226043519244,91.7227441534051,92.7231358150893,0.6,7.5028385873884,95.7243264794815,35449,39051,43853,46234,49835,55258
True,False,True,0.6,-0.4,-1.21,-1.50083333333333,3.7,2.19916666666667,1.09958333333333,gamble,lose,2.19916666666667,8.28666666666667,102.243545421545,1,1.11735835700529,103.394000792294,107.395488402777,108.379208203405,NaN,NaN,NaN,NaN,NaN,57658,59039,63840,0,0,65042
True,True,False,0.6,-0.4,-1.61,7.21,12.3,5.09,2.545,gamble,win,12.3,20.5866666666667,110.396714265516,1,0.667230266990373,111.09698458889,115.098491398472,124.585556322796,116.082217278803,117.082574702101,0.56,7.50286802600021,120.083770486235,67442,68282,73084,75465,79066,84489
True,True,True,0.56,-0.44,-2.05,8.21,6.1,-2.11,1.995,gamble,win,6.1,26.6866666666667,126.60293311096,1,2.00104603113141,128.63706847615,132.621994940389,133.622342124174,NaN,NaN,NaN,NaN,NaN,86889,89330,94112,0,0,95334
True,True,True,0.56,-0.44,-2.49,8.65,6.9,-1.75,-0.874999999999999,gamble,win,6.9,33.5866666666667,135.639840186661,1,0.883905263937777,136.556814945594,140.541756129154,141.542136591394,NaN,NaN,NaN,NaN,NaN,97734,98834,103616,0,0,104838
True,True,False,0.56,-0.44,-2.93,9.09,12.7,3.61,1.805,gamble,win,12.7,46.2866666666667,143.559560417343,1,0.733636444492731,144.326534504304,148.311354093545,157.815120637562,149.311814872024,150.312143176678,0.59,7.50275955107645,153.313293842919,107238,108158,112940,115341,118942,124365
True,False,False,0.59,-0.41,-3.34,-1.71333333333333,12.5,10.7866666666667,5.39333333333333,gamble,lose,10.7866666666667,57.0733333333333,159.832562382682,1,0.917246746219462,160.782893983182,164.784481109033,165.768163791392,NaN,NaN,NaN,NaN,NaN,126765,127906,132708,0,0,133909
True,True,False,0.59,-0.41,-3.75,9.49,12.1,2.61,1.305,gamble,win,12.1,69.1733333333333,167.785605536512,1,0.950451914890436,168.76936661519,172.770824467094,182.257868592395,173.754586185736,174.755028085085,0.6,7.50288178535993,177.756177151401,136309,137489,142291,144672,148274,153697
True,False,True,0.6,-0.4,-4.15,-1.74583333333333,13.5,11.7541666666667,5.87708333333333,gamble,lose,11.7541666666667,80.9275,184.275338176201,1,0.83396263726172,185.142400067067,189.127218696347,190.127658675774,NaN,NaN,NaN,NaN,NaN,156097,157137,161919,0,0,163140
True,False,True,0.6,-0.4,-4.55,-1.77916666666667,-1.1,-2.87916666666667,-1.98958333333333,certain,certain,-1.98958333333333,78.9379166666667,192.145111620397,3,2.30113665087265,194.479352964641,198.480862654105,207.96790325956,199.464617013087,200.464950757509,0.5,7.50283698746352,203.466151661385,165540,168342,173143,175524,179126,184549
True,True,False,0.5,-0.5,-5.05,12.05,7.3,-4.75,1.275,gamble,win,7.3,86.2379166666667,209.98533860498,NaN,NaN,212.986535029078,216.988015279931,217.971745640039,NaN,NaN,NaN,NaN,NaN,186949,190550,195352,0,0,196553
True,True,True,0.5,-0.5,-5.55,12.55,4.1,-8.45,-2.175,gamble,win,4.1,90.3379166666667,219.989196984709,1,2.25110378841055,222.273394587013,226.275023950875,227.258695753728,NaN,NaN,NaN,NaN,NaN,198953,201695,206496,0,0,207698
True,True,True,0.5,-0.5,-6.05,13.05,11.3,-1.75,-0.875,gamble,win,11.3,101.637916666667,229.276121179631,1,1.40077231594478,230.709969390242,234.71159491429,244.198598081508,235.695313114964,236.695670538262,0.57,7.50286962592509,239.696852883033,210098,211819,216620,219001,222603,228026
True,True,True,0.57,-0.43,-6.48,12.5,7.5,-5,1.25,certain,certain,1.25,102.887916666667,246.216092624149,3,2.06769539727247,248.316888234986,252.301759981783,253.302094046172,NaN,NaN,NaN,NaN,NaN,230426,232947,237729,0,0,238950
True,False,False,0.57,-0.43,-6.91,-2.08083333333333,9.1,7.01916666666667,3.50958333333333,gamble,lose,7.01916666666667,109.907083333333,255.31960042828,1,0.867237562662922,256.219923805154,260.20480003173,269.70848593954,261.20519201344,262.205583355157,0.55,7.50282386806794,265.206753540464,241350,242431,247213,249613,253215,258638
True,False,False,0.55,-0.45,-7.36,-2.18833333333333,9.5,7.31166666666667,3.65583333333333,gamble,lose,7.31166666666667,117.21875,271.725937284209,1,0.867081729957135,272.626266740815,276.611175925849,277.61152662948,NaN,NaN,NaN,NaN,NaN,261038,262118,266900,0,0,268122
True,True,False,0.55,-0.45,-7.81,14.11,2.5,-11.61,-4.555,gamble,win,2.5,119.71875,279.629001973022,NaN,NaN,282.630167998548,286.631738485186,287.61543876669,NaN,NaN,NaN,NaN,NaN,270522,274123,278925,0,0,280126
True,True,False,0.55,-0.45,-8.26,14.56,3.9,-10.66,-3.38,certain,certain,-3.38,116.33875,289.63296178804,3,1.98427337475005,291.650370254705,295.651914182585,305.138900070597,296.635689660587,297.635994286335,0.48,7.50275315137696,300.637099194719,282526,284947,289749,292130,295732,301155
True,True,False,0.48,-0.52,-8.78,16.06,-1.5,-17.56,-9.53,gamble,win,-1.5,114.83875,307.156382453803,NaN,NaN,310.15754399955,314.159058168792,315.14278436912,NaN,NaN,NaN,NaN,NaN,303555,307156,311958,0,0,313159
True,True,True,0.48,-0.52,-9.3,16.58,6.7,-9.88,-1.59,gamble,win,6.7,121.53875,317.160225154279,1,2.1677592023043,319.361079450377,323.346017754055,332.849658863939,324.346354378329,325.346773238765,0.51,7.50255092082079,328.347922305082,315559,318200,322982,325383,328985,334408
True,True,False,0.51,-0.49,-9.79,16.65,-0.5,-17.15,-8.825,gamble,win,-0.5,121.03875,334.867156286462,NaN,NaN,337.868254155153,341.869874239463,342.853519803553,NaN,NaN,NaN,NaN,NaN,336808,340409,345211,0,0,346412
True,True,True,0.51,-0.49,-10.28,17.14,10.5,-6.64,1.93,gamble,win,10.5,131.53875,344.870963148598,1,2.73469207520247,347.63870007993,351.640261286986,361.127295812737,352.624044444645,353.624409227603,0.49,7.50270259371609,356.625507736288,348812,352134,356936,359317,362918,368341
True,False,True,0.49,-0.51,-10.79,-2.68416666666667,4.7,2.01583333333333,1.00791666666667,gamble,lose,2.01583333333333,133.554583333333,363.144697559736,1,0.817308055353351,363.99508822948,367.979984935111,368.980366997246,NaN,NaN,NaN,NaN,NaN,370741,371761,376543,0,0,377765
True,True,False,0.49,-0.51,-11.3,18.44,11.7,-6.74,-3.37,gamble,win,11.7,145.254583333333,370.997804262588,1,1.30078338741441,372.331672504253,376.333194993145,377.316996709909,NaN,NaN,NaN,NaN,NaN,380165,381765,386567,0,0,387769
True,True,False,0.49,-0.51,-11.81,18.95,1.5,-17.45,-7.975,gamble,win,1.5,146.754583333333,379.334391737211,NaN,NaN,382.3355267242,386.337073531933,395.82409589825,387.320776373323,388.321222112514,0.46,7.50282098821481,391.322301742068,390169,393770,398572,400953,404554,409957
False,False,False,0.47,0.47,0.47,1.68416666666667,0.875,-0.809166666666667,0.0329166666666667,gamble,win,0.875,147.629583333333,410.963270515989,1,2.30119136834401,413.297539058985,417.282429364888,418.282822946523,NaN,NaN,NaN,NaN,NaN,428124,430925,435707,0,0,436928
False,False,True,0.47,0.47,0.94,1.72333333333333,0.425,-1.29833333333333,-0.436666666666667,gamble,win,0.425,148.054583333333,420.300287730555,1,1.15066080112592,421.48403562585,425.468925931782,434.972699515492,426.46929071474,427.469673736836,0.58,7.50283762742765,430.470852881757,439328,440749,445530,447931,451533,456956
False,True,False,0.58,0.58,1.52,-9.64,12.9,3.26,1.63,gamble,lose,3.26,151.314583333333,436.990066704078,1,0.850722814240726,437.873741258809,441.875269507407,442.859034105932,NaN,NaN,NaN,NaN,NaN,459356,460416,465218,0,0,466420
False,True,False,0.58,0.58,2.1,-10.22,9.9,-0.319999999999999,-0.159999999999999,gamble,lose,-0.319999999999999,150.994583333333,444.876457291917,1,1.00067164862412,445.910222114413,449.911738523573,459.398784248799,450.895416086161,451.895824707084,0.61,7.50286834596773,454.897027210885,468820,470060,474862,477243,480844,486267
False,False,False,0.61,0.61,2.71,2.36083333333333,2.575,0.214166666666667,1.39458333333333,gamble,win,2.575,153.569583333333,461.416235593468,1,0.68382565167849,462.133154419018,466.118142320396,467.118400868319,NaN,NaN,NaN,NaN,NaN,488667,489528,494310,0,0,495531
False,True,False,0.61,0.61,3.32,-11.86,10.7,-1.16,-0.58,gamble,lose,-1.16,152.409583333333,469.135869812162,1,1.1673691405158,470.33634684587,474.337910932809,475.321608974424,NaN,NaN,NaN,NaN,NaN,497931,499372,504173,0,0,505375
False,True,False,0.61,0.61,3.93,-12.47,4.5,-7.97,-1.735,gamble,lose,-7.97,144.439583333333,477.339027040667,NaN,NaN,480.340290981607,484.341769632534,493.828786559083,485.325478873623,486.32587021534,0.6,7.50262195750838,489.327025041392,507775,511376,516178,518559,522161,527584
False,True,False,0.6,0.6,4.53,-12.93,13.7,0.77,0.385,gamble,lose,0.77,145.209583333333,495.846216144797,1,0.567117184284143,496.429763281456,500.431338567869,501.43170943053,NaN,NaN,NaN,NaN,NaN,529984,530684,535486,0,0,536707
False,False,False,0.6,0.6,5.13,2.5275,0.975,-1.5525,-0.28875,gamble,win,0.975,146.184583333333,503.449161415192,1,1.35085400810931,504.83307083894,508.817935226078,518.338354752079,509.818332647497,510.818709269894,0.56,7.51941989269108,513.819859936135,539107,540768,545550,547951,551552,556995
False,True,False,0.56,0.56,5.69,-13.53,13.5,-0.0300000000000011,-0.0150000000000006,gamble,lose,-0.0300000000000011,146.154583333333,520.355760978855,1,1.13402189849876,521.522855892166,525.524393420346,526.508108741167,NaN,NaN,NaN,NaN,NaN,559395,560796,565598,0,0,566799
False,True,True,0.56,0.56,6.25,-14.09,0.9,-13.19,-6.145,gamble,lose,-13.19,132.964583333333,528.525560085836,NaN,NaN,531.526725151401,535.511581218918,536.51198152022,NaN,NaN,NaN,NaN,NaN,569199,572800,577582,0,0,578804
False,False,False,0.56,0.56,6.81,2.5275,0.625,-1.9025,-0.63875,certain,certain,-0.63875,132.325833333333,538.529460703605,3,1.96769174945075,540.530225147872,544.51509465478,554.018836879928,545.515481836686,546.515897817269,0.51,7.50281298859045,549.517055843142,581204,583605,588387,590787,594389,599812
False,False,True,0.51,0.51,7.32,2.395,0.375,-2.02,-0.8225,gamble,win,0.375,132.700833333333,556.036249506433,NaN,NaN,559.037423851551,563.022274159361,564.022683740215,NaN,NaN,NaN,NaN,NaN,602212,605813,610595,0,0,611817
False,False,False,0.51,0.51,7.83,2.4375,1.675,-0.7625,0.45625,gamble,win,1.675,134.375833333333,566.040114925825,1,2.75134889697074,568.824547077151,572.826072125899,582.313144409884,573.809806965815,574.81017846847,0.61,7.50282450803206,577.811379372346,614217,617558,622360,624741,628342,633765
False,True,True,0.61,0.61,8.44,-16.98,12.3,-4.68,-2.34,gamble,lose,-4.68,129.695833333333,584.330568235862,1,1.70092693268089,586.064600501879,590.06612011086,591.049811752804,NaN,NaN,NaN,NaN,NaN,636165,638246,643048,0,0,644249
False,False,False,0.61,0.61,9.05,2.88916666666667,3.025,0.135833333333334,1.58041666666667,gamble,win,3.025,132.720833333333,593.067339253903,1,1.11735483718803,594.21777478556,598.202597894619,607.722982222273,599.202999795845,600.203416096396,0.61,7.51955108658876,603.204513325152,646649,648030,652812,655213,658814,664257
False,True,True,0.61,0.61,9.66,-18.2,8.9,-9.3,-0.199999999999998,certain,certain,-0.199999999999998,132.520833333333,609.740454685962,3,2.6512578932452,612.424783994094,616.426380719495,617.41008612077,NaN,NaN,NaN,NaN,NaN,666657,669879,674680,0,0,675882
False,True,False,0.61,0.61,10.27,-18.81,11.9,-6.90999999999999,-3.455,gamble,lose,-6.90999999999999,125.610833333333,619.427501627128,1,1.30074242930277,620.76134682988,624.762923716218,625.746685754857,NaN,NaN,NaN,NaN,NaN,678282,679882,684684,0,0,685886
False,True,False,0.61,0.61,10.88,-19.42,5.9,-13.52,-3.81,gamble,lose,-13.52,112.090833333333,627.764082382084,NaN,NaN,630.76527272645,634.766775696247,644.270469603653,635.750540294772,636.750901557883,0.57,7.519386934262,639.752093822171,688286,691887,696689,699070,702671,708115
False,False,True,0.57,0.57,11.45,2.94916666666667,0.825,-2.12416666666667,-0.649583333333333,gamble,win,0.825,112.915833333333,646.287958386587,1,1.91766592662316,648.238728366618,652.223601073347,653.223934817768,NaN,NaN,NaN,NaN,NaN,710515,712855,717637,0,0,718859
False,True,False,0.57,0.57,12.02,-20,8.5,-11.5,-1.5,certain,certain,-1.5,111.415833333333,655.241436080105,3,2.9013214102597,658.175901221897,662.177464348875,671.681122417969,663.16112751211,664.161539972847,0.53,7.51951140843448,667.162719757733,721259,724780,729582,731963,735564,741007
False,True,True,0.53,0.53,12.55,-19.97,2.1,-17.87,-7.885,gamble,lose,-17.87,93.5458333333334,673.698602561286,1,2.4678667812841,676.19957019607,680.184417623997,681.18484000428,NaN,NaN,NaN,NaN,NaN,743407,746409,751191,0,0,752412
False,True,False,0.53,0.53,13.08,-20.5,-1.1,-21.6,-11.35,gamble,lose,-21.6,71.9458333333334,683.20223311166,NaN,NaN,686.203455134586,690.204962904128,699.692002549651,691.188686224574,692.189056767267,0.5,7.50288722509868,695.190226632607,754812,758413,763215,765596,769198,774621
False,True,True,0.5,0.5,13.58,-20.58,10.5,-10.08,0.210000000000001,gamble,lose,-10.08,61.8658333333334,701.709398856881,1,2.61799256739323,704.360464439116,708.345348025352,709.345736487187,NaN,NaN,NaN,NaN,NaN,777021,780202,784984,0,0,786205
False,True,True,0.5,0.5,14.08,-21.08,11.5,-9.58,0.960000000000001,certain,certain,0.960000000000001,62.8258333333334,711.363186551927,3,2.667957912985,714.064213319944,718.065786686435,719.049455609435,NaN,NaN,NaN,NaN,NaN,788605,791847,796648,0,0,797850
False,False,True,0.5,0.5,14.58,2.965,1.175,-1.79,-0.3075,gamble,win,1.175,64.0008333333334,721.066981830605,NaN,NaN,724.068116177601,728.069695943821,737.556708390592,729.053379586112,730.053786607081,0.59,7.50289234486991,733.055005430157,800250,803851,808653,811034,814635,820058
False,True,True,0.59,0.59,15.17,-23.43,4.3,-19.13,-7.415,gamble,lose,-19.13,44.8708333333334,739.57420421319,NaN,NaN,742.575298242067,746.57687352848,747.560538931633,NaN,NaN,NaN,NaN,NaN,822458,826060,830862,0,0,832043
True,True,False,0.49,-0.51,-0.51,7.65,13.9,6.25,3.125,gamble,win,13.9,58.7708333333334,773.153829613089,1,0.983958829456242,774.170872016868,778.155758482957,787.659477669193,779.156178623321,780.15654436624,0.42,7.50292850317783,783.157689272746,862754,863975,868757,871158,874759,880182
True,True,False,0.42,-0.58,-1.09,9.21,4.3,-4.91,-0.305000000000001,certain,certain,-0.305000000000001,58.4658333333334,789.67688901574,3,2.16780656008632,791.877844747098,795.879345157009,796.86300032062,NaN,NaN,NaN,NaN,NaN,882582,885223,890025,0,0,891227
True,True,False,0.42,-0.58,-1.67,9.79,11.5,1.71,0.855,gamble,win,11.5,69.9658333333334,798.880506382731,1,2.18437826586887,801.097953503602,805.099581267568,806.083295948425,NaN,NaN,NaN,NaN,NaN,893627,896288,901089,0,0,902291
True,True,False,0.42,-0.58,-2.25,10.37,8.9,-1.47,-0.735,gamble,win,8.9,78.8658333333334,808.100716254528,1,1.43415187642677,809.567908507306,813.569494673196,823.073199460108,814.553309829353,815.553622774751,0.48,7.51960932384827,818.554793920019,904691,906452,911253,913634,917236,922679
True,True,False,0.48,-0.52,-2.77,10.05,13.3,3.25,1.625,gamble,win,13.3,92.1658333333334,825.090670003905,1,1.33406727237161,826.457873008185,830.459366378404,831.44308425911,NaN,NaN,NaN,NaN,NaN,925079,926720,931521,0,0,932723
True,False,True,0.48,-0.52,-3.29,-2.09416666666667,7.1,5.00583333333333,2.50291666666667,gamble,lose,5.00583333333333,97.1716666666667,833.460585841443,1,0.983952429727651,834.477645204432,838.4625233509,847.982855520997,839.462890693743,840.463300274627,0.57,7.51949572918238,843.464422462188,935123,936343,941125,943526,947128,952571
True,True,True,0.57,-0.43,-3.72,9.74,0.5,-9.24,-4.37,gamble,win,0.5,97.6716666666667,850.000305585738,1,2.68465921274037,852.718050292693,856.719580461213,857.703296102001,NaN,NaN,NaN,NaN,NaN,954971,958232,963034,0,0,964235
True,True,False,0.57,-0.43,-4.15,10.17,9.9,-0.270000000000001,-0.135000000000001,gamble,win,9.9,107.571666666667,859.720692409261,1,1.28415824411786,861.037904469093,865.03947719562,874.526486442541,866.023221955082,867.023605297174,0.48,7.50273459224263,870.02475756334,966635,968216,973018,975399,979000,984423
True,True,False,0.48,-0.52,-4.67,11.95,10.9,-1.05,-0.524999999999999,gamble,win,10.9,118.471666666667,876.543894909235,1,1.70099252962973,878.277923655405,882.279445824301,883.263188663841,NaN,NaN,NaN,NaN,NaN,986823,988904,993706,0,0,994907
True,True,False,0.48,-0.52,-5.19,12.47,10.1,-2.37,-1.185,gamble,win,10.1,128.571666666667,885.280704325502,1,0.867198524472769,886.181007863313,890.182593709236,891.166288231005,NaN,NaN,NaN,NaN,NaN,997307,998388,1003190,0,0,1004391
True,False,False,0.48,-0.52,-5.71,-2.29583333333333,1.5,-0.795833333333333,0.352083333333333,gamble,lose,-0.795833333333333,127.775833333333,893.183722936461,1,1.88431964459596,895.101136074925,899.08603566041,908.589731487737,900.08644044149,901.08676586629,0.51,7.50311985422741,904.087953010836,1006791,1009092,1013874,1016275,1019876,1025299
True,False,False,0.51,-0.49,-6.2,-2.23166666666667,-1.3,-3.53166666666667,-2.41583333333333,gamble,lose,-3.53166666666667,124.244166666667,910.607157233608,1,2.55125456536189,913.191520972148,917.193068419845,918.176785660587,NaN,NaN,NaN,NaN,NaN,1027699,1030800,1035602,0,0,1036804
True,False,True,0.51,-0.49,-6.69,-2.2725,-0.3,-2.5725,-1.43625,gamble,lose,-2.5725,121.671666666667,920.194205326727,NaN,NaN,923.19536527255,927.196924879681,936.683923567092,928.180664839339,929.181012983085,0.66,7.50271507314756,932.182234685984,1039204,1042805,1047607,1049988,1053589,1059012
True,True,True,0.66,-0.34,-7.03,11.79,5.9,-5.89,0.00500000000000078,gamble,win,5.9,127.571666666667,938.701405310334,NaN,NaN,941.702532937663,945.687461001828,946.687844023923,NaN,NaN,NaN,NaN,NaN,1061412,1065014,1069796,0,0,1071017
True,True,False,0.66,-0.34,-7.37,12.13,12.9,0.770000000000001,0.385000000000001,gamble,win,12.9,140.471666666667,948.705356485734,1,0.61706845057779,949.355551068642,953.340399456531,954.340817677003,NaN,NaN,NaN,NaN,NaN,1073417,1074198,1078979,0,0,1080201
True,True,True,0.66,-0.34,-7.71,12.47,-0.7,-13.17,-6.935,certain,certain,-6.935,133.536666666667,956.358232543367,3,2.51792332262266,958.909218641318,962.910807687062,972.397821093793,963.894528767618,964.894885230955,0.49,7.50288882505265,967.896014458209,1082601,1085662,1090464,1092845,1096446,1101869
True,True,False,0.49,-0.51,-8.22,15.36,1.9,-13.46,-5.78,gamble,win,1.9,135.436666666667,974.415267638688,NaN,NaN,977.416405825526,981.417988151603,982.401652914763,NaN,NaN,NaN,NaN,NaN,1104269,1107871,1112673,0,0,1113874
True,True,True,0.49,-0.51,-8.73,15.87,0.1,-15.77,-7.835,gamble,win,0.1,135.536666666667,984.41915513706,NaN,NaN,987.420315082883,991.405217228254,1000.90888681682,992.405558652303,993.405949674023,0.53,7.50292626325972,996.407094260561,1116274,1119875,1124657,1127058,1130660,1136083
True,True,False,0.53,-0.47,-9.2,15.78,9.5,-6.28,1.61,gamble,win,9.5,145.036666666667,1002.92630616299,1,1.93434962720494,1004.89376976309,1008.89529993158,1009.87901205255,NaN,NaN,NaN,NaN,NaN,1138483,1140844,1145646,0,0,1146847
True,False,False,0.53,-0.47,-9.67,-2.45083333333333,3.7,1.24916666666667,0.624583333333333,gamble,lose,1.24916666666667,146.285833333333,1011.89648227635,NaN,NaN,1014.89767614056,1018.88259364522,1028.38619795683,1019.88285603296,1020.88326945365,0.5,7.50283794742427,1023.88442299975,1149247,1152848,1157630,1160031,1163633,1169056
True,True,True,0.5,-0.5,-10.17,17.17,0.3,-16.87,-8.285,gamble,win,0.3,146.585833333333,1030.40363170233,NaN,NaN,1033.40482492658,1037.38965027555,1038.39005729652,NaN,NaN,NaN,NaN,NaN,1171456,1175057,1179839,0,0,1181060
True,False,False,0.5,-0.5,-10.67,-2.63916666666667,2.7,0.0608333333333335,1.38041666666667,gamble,lose,0.0608333333333335,146.646666666667,1040.40748496231,1,0.933991243917262,1041.37458761927,1045.35938192968,1046.35982638891,NaN,NaN,NaN,NaN,NaN,1183460,1184621,1189403,0,0,1190624
True,True,False,0.5,-0.5,-11.17,18.17,0.7,-17.47,-8.385,gamble,win,0.7,147.346666666667,1048.37727389377,NaN,NaN,1051.3784651981,1055.36331582587,1064.86703245225,1056.36370972748,1057.36406747077,0.68,7.5029211435176,1060.36525525528,1193024,1196626,1201408,1203808,1207410,1212833
True,True,False,0.68,-0.32,-11.49,15.97,5.7,-10.27,-2.285,gamble,win,5.7,153.046666666667,1066.88443515918,NaN,NaN,1069.88562230373,1073.88721678924,1074.87089371184,NaN,NaN,NaN,NaN,NaN,1215233,1218834,1223636,0,0,1224838
True,True,True,0.68,-0.32,-11.81,16.29,-0.1,-16.39,-8.245,gamble,win,-0.1,152.946666666667,1076.88832969725,1,2.21778694499517,1079.13919285691,1083.14078926234,1092.62777611031,1084.12445274557,1085.12486520631,0.51,7.50279314952786,1088.12601299267,1227238,1229939,1234741,1237122,1240723,1246146
True,True,True,0.51,-0.49,-12.3,19.16,4.1,-15.06,-5.48,gamble,win,4.1,157.046666666667,1094.64525785355,NaN,NaN,1097.64641715938,1101.64791948922,1102.63163576997,NaN,NaN,NaN,NaN,NaN,1248546,1252147,1256949,0,0,1258151
True,True,True,0.51,-0.49,-12.79,19.65,2.3,-17.35,-7.525,certain,certain,-7.525,149.521666666667,1104.64913031264,3,1.55082322555245,1106.23303743248,1110.23461143897,1119.72160692653,1111.21829668118,1112.2187245012,0.57,7.50285330667975,1115.21985724827,1260551,1262452,1267253,1269634,1273236,1278639
