lifeHappySlider_response,blockHappySlider_response,isHappyBlock,isCongruent,isWinOnTop,lastHappyRating,diff,sumDiff,RPE,winAmount,loseAmount,certainAmount,choice,outcome,outcomeAmount,currentWinnings,outcome1Box_started,choiceKey_keys,outcome1Box_2_started,outcome1Box_3_started,fixCross_ITI_started,choiceKey_rt,fixCross_ISI_started,happyText_started,happySlider_response,happySlider_rt,happySlider_started,trial_sample,choice_sample,outcome_sample,happyText_sample,happySlider_sample,fixCross_ITI_sample
0.96,0.83,True,False,False,0.83,-0.17,-0.17,-0.609166666666667,1.5,0.890833333333333,1.19541666666667,gamble,lose,0.890833333333333,0.890833333333333,112.803010711399,NaN,115.804152087483,119.788989736575,120.789375634962,NaN,NaN,NaN,NaN,NaN,NaN,13767,17369,22151,0,0,23372
NaN,NaN,True,True,False,0.83,-0.17,-0.34,2.72,6.5,3.78,1.89,gamble,win,6.5,7.39083333333333,122.806802499061,1,125.124407433184,129.109196125017,130.109578823583,2.28443239178523,NaN,NaN,NaN,NaN,NaN,25772,28553,33335,0,0,34556
NaN,NaN,True,True,False,0.83,-0.17,-0.51,2.89,1.7,-1.19,0.254999999999999,certain,certain,0.254999999999999,7.64583333333333,132.127009207485,3,134.728046909371,138.712841360884,148.216452838638,2.56789971761464,139.713267896997,140.713654115367,1,7.50277056484992,143.71472925516,36956,40078,44859,47260,50862,56304
NaN,NaN,True,True,True,1,0,-0.51,0.51,7.7,7.19,3.595,gamble,win,7.7,15.3458333333333,150.255144431911,1,152.768174582223,156.769745374258,157.753389810168,2.47993440367281,NaN,NaN,NaN,NaN,NaN,58704,61726,66528,0,0,67730
NaN,NaN,True,True,True,1,0,-0.51,0.51,9.7,9.19,4.595,gamble,win,9.7,25.0458333333333,159.770835233227,1,162.238452886639,166.239974721415,175.726890814112,2.43455198509037,167.22366747462,168.224104250163,1,7.50273504683719,171.225186109576,70130,73091,77892,80274,83875,89297
NaN,NaN,True,False,False,1,0,-0.51,-0.0425,-0.1,-0.1425,-0.12125,gamble,lose,-0.1425,24.9033333333333,177.744380714677,NaN,180.745508971497,184.730307902755,185.730734758854,NaN,NaN,NaN,NaN,NaN,NaN,91697,95298,100082,0,0,101303
NaN,NaN,True,True,True,1,0,-0.51,0.51,5.9,5.39,2.695,gamble,win,5.9,30.8033333333333,187.748124505026,1,189.332113241657,193.316901933489,194.317332629373,1.55087315110359,NaN,NaN,NaN,NaN,NaN,103703,105604,110385,0,0,111607
NaN,NaN,True,False,True,1,0,-0.51,-0.0425,11.3,11.2575,5.62875,gamble,lose,11.2575,42.0608333333333,196.334710536208,1,197.618539441792,201.60342156839,211.107037525897,1.25072899917723,202.603764589181,203.604143767949,0.91,7.50287135920371,206.605329301558,114007,115547,120329,122730,126332,131775
NaN,NaN,True,True,False,0.91,-0.09,-0.6,1.86,12.7,10.84,5.42,gamble,win,12.7,54.7608333333333,213.145725279384,1,214.908485444816,218.893244698294,219.893704512546,1.72965385938369,NaN,NaN,NaN,NaN,NaN,134175,136296,141077,0,0,142299
NaN,NaN,True,False,False,0.91,-0.09,-0.69,-0.3725,9.9,9.5275,4.76375,gamble,lose,9.5275,64.2883333333333,221.911093298775,1,223.29495212268,227.279794251521,236.783386210373,1.35075891749875,228.280177590055,229.280542049644,1,7.50273824665783,232.281734622858,144699,146360,151142,153542,157144,162567
NaN,NaN,True,True,True,1,0,-0.69,0.69,9.5,8.81,4.405,gamble,win,9.5,73.7883333333333,238.800822353947,1,240.751623509081,244.753146303807,245.736857935954,1.91770380858725,NaN,NaN,NaN,NaN,NaN,164967,167308,172110,0,0,173311
NaN,NaN,True,False,False,1,0,-0.69,-0.0575,10.1,10.0425,5.02125,gamble,lose,10.0425,83.8308333333333,247.754283200138,1,248.954692457221,252.956205332499,262.459862567695,1.18398617677303,253.956639548185,254.956969449711,0.98,7.5028284816035,257.958107945953,175711,177151,181953,184354,187956,193379
NaN,NaN,True,True,True,0.98,-0.02,-0.71,0.99,12.1,11.11,5.555,gamble,win,12.1,95.9308333333333,264.477249434032,1,266.411315846311,270.412834161285,271.413265497133,1.91764397193765,NaN,NaN,NaN,NaN,NaN,195779,198100,202902,0,0,204123
NaN,NaN,True,True,True,0.98,-0.02,-0.73,1.01,1.1,0.0899999999999999,0.595,gamble,win,1.1,97.0308333333333,273.430647883717,NaN,276.415109553865,280.416680665883,281.417015367137,NaN,NaN,NaN,NaN,NaN,NaN,206523,210105,214906,0,0,216128
NaN,NaN,True,True,True,0.98,-0.02,-0.75,1.03,11.9,10.87,5.435,gamble,win,11.9,108.930833333333,283.43444607102,1,284.73498892062,288.719781772219,298.223435487613,1.26739302599162,289.720168630556,290.720591326884,0.94,7.50285983984941,293.721684705655,218528,220088,224870,227271,230873,236296
NaN,NaN,True,True,True,0.94,-0.0600000000000001,-0.81,1.65,-0.3,-1.95,-1.125,gamble,win,-0.3,108.630833333333,300.24083483325,NaN,303.242015247146,307.243484284878,308.22719303719,NaN,NaN,NaN,NaN,NaN,NaN,238696,242297,247099,0,0,248301
NaN,NaN,True,True,True,0.94,-0.0600000000000001,-0.87,1.71,-0.9,-2.61,-1.755,certain,certain,-1.755,106.875833333333,310.24466821858,3,312.7455678482,316.747131280648,326.234021454798,2.46780772276543,317.730796515396,318.731178893981,0.7,7.50238402649484,321.732315790316,250701,253702,258503,260884,264486,269929
NaN,NaN,True,True,True,0.7,-0.3,-1.17,5.37,5.1,-0.270000000000001,-0.135000000000001,gamble,win,5.1,111.975833333333,328.272730327102,1,331.25259321478,335.237429263962,336.237819322116,2.94675210188143,NaN,NaN,NaN,NaN,NaN,272329,275910,280691,0,0,281913
NaN,NaN,True,False,False,0.7,-0.3,-1.47,-1.1725,3.5,2.3275,1.16375,gamble,lose,2.3275,114.303333333333,338.255253865784,1,339.539071891973,343.523959778253,344.524300879151,1.25072579935295,NaN,NaN,NaN,NaN,NaN,284313,285853,290636,0,0,291857
NaN,NaN,True,True,True,0.7,-0.3,-1.77,5.97,4.9,-1.07,1.915,gamble,win,4.9,119.203333333333,346.541781180254,1,348.875950946745,352.877519818889,362.364387594294,2.30108041949643,353.861130016718,354.861529994319,0.94,7.50280864271554,357.862669130529,294257,297058,301861,304241,307843,313266
NaN,NaN,True,True,True,0.94,-0.0600000000000001,-1.83,2.67,13.5,10.83,5.415,gamble,win,13.5,132.703333333333,364.381822777923,1,365.649003335813,369.650505971666,370.634257601574,1.23417760605662,NaN,NaN,NaN,NaN,NaN,315666,317187,321989,0,0,323190
NaN,NaN,True,True,True,0.94,-0.0600000000000001,-1.89,2.73,4.3,1.57,0.784999999999999,gamble,win,4.3,137.003333333333,372.651663346853,1,375.319343076786,379.304139768174,388.807773324694,2.63461822137833,380.304516707063,381.30490196549,1,7.50272640732146,384.306091978848,325590,328791,333573,335974,339574,345018
NaN,NaN,True,True,True,1,0,-1.89,1.89,1.9,0.00999999999999934,0.955,gamble,win,1.9,138.903333333333,390.846496916172,NaN,393.826319486107,397.827882918555,398.828263057268,NaN,NaN,NaN,NaN,NaN,NaN,347418,351000,355802,0,0,357023
NaN,NaN,True,True,True,1,0,-1.89,1.89,7.1,5.21,2.605,gamble,win,7.1,146.003333333333,400.845646723781,1,401.929397553737,405.914282880156,415.41789691777,1.05067652211437,406.914622701126,407.915047637332,0.94,7.50281120257205,410.916165654722,359423,360724,365506,367907,371508,376931
NaN,NaN,True,False,False,0.94,-0.0600000000000001,-1.95,-0.3725,0.3,-0.0725000000000003,0.11375,certain,certain,0.11375,146.117083333333,417.435334661259,3,419.952903757388,423.937792283632,424.938124105051,2.48452422664195,NaN,NaN,NaN,NaN,NaN,379331,382353,387134,0,0,388356
NaN,NaN,True,True,True,0.94,-0.0600000000000001,-2.01,2.85,8.3,5.45,2.725,gamble,win,8.3,154.417083333333,426.955563768428,1,429.323172942313,433.307972193557,434.308394569904,2.33452686649616,NaN,NaN,NaN,NaN,NaN,390756,393597,398379,0,0,399600
NaN,NaN,True,True,False,0.94,-0.0600000000000001,-2.07,2.91,4.5,1.59,0.794999999999999,gamble,win,4.5,158.917083333333,436.325826233729,1,437.676343244777,441.661195293062,451.164790131752,1.31742382426819,442.661546313404,443.66200068796,0.9,7.50280992264379,446.663043189579,402000,403621,408403,410804,414405,419808
NaN,0.87,False,False,True,0.87,0.87,0.87,3.1175,3.325,0.2075,1.76625,gamble,win,3.325,162.242083333333,467.671039861765,1,470.638785348019,474.623650195586,475.624037693888,2.93448462885863,NaN,NaN,NaN,NaN,NaN,439615,443176,447958,0,0,449179
NaN,NaN,False,False,True,0.87,0.87,1.74,3.19,1.825,-1.365,0.23,certain,certain,0.23,162.472083333333,477.64147351748,3,480.292514819168,484.277365587524,493.780933227739,2.61795035477917,485.277743806346,486.278079467549,0.85,7.5029481549027,489.279215083956,451579,454761,459543,461944,465545,470968
NaN,NaN,False,True,True,0.85,0.85,2.59,-14.49,2.625,-11.865,-4.62,certain,certain,-4.62,157.852083333333,495.798358491924,3,497.649056132854,501.650576687705,502.634284800049,1.81765181149967,NaN,NaN,NaN,NaN,NaN,473368,475589,480391,0,0,481592
NaN,NaN,False,True,True,0.85,0.85,3.44,-15.34,2.775,-12.565,-4.895,gamble,lose,-12.565,145.287083333333,504.651769580902,NaN,507.652865519529,511.637749246041,521.141352404265,NaN,512.638080427496,513.638461526152,0.28,7.50286623949069,516.639601622308,483992,487594,492375,494777,498378,503821
NaN,NaN,False,True,True,0.28,0.28,3.72,-7.64,0.675,-6.965,-3.145,certain,certain,-3.145,142.142083333333,523.180029278359,3,525.492959274281,529.477808442727,530.478186341563,2.27988832625488,NaN,NaN,NaN,NaN,NaN,506221,509002,513784,0,0,515005
NaN,NaN,False,True,False,0.28,0.28,4,-7.92,0.325,-7.595,-3.635,gamble,lose,-7.595,134.547083333333,532.495621205213,1,534.779869927283,538.764666618667,539.765090274945,2.25098498483931,NaN,NaN,NaN,NaN,NaN,517405,520147,524928,0,0,526150
NaN,NaN,False,False,False,0.28,0.28,4.28,1.33666666666667,0.375,-0.961666666666667,-0.293333333333333,gamble,win,0.375,134.922083333333,541.782501459918,NaN,544.783613717631,548.768458086346,558.27207212396,NaN,549.768856144055,550.769251001944,0.27,7.50234530866146,553.770362299711,528550,532152,536933,539334,542935,548359
NaN,NaN,False,True,True,0.27,0.27,4.55,-8.33,1.275,-7.055,-2.89,gamble,lose,-7.055,127.867083333333,560.289545385458,NaN,563.290682601772,567.275507131599,568.275917668609,NaN,NaN,NaN,NaN,NaN,NaN,550759,554360,559142,0,0,560363
NaN,NaN,False,True,True,0.27,0.27,4.82,-8.6,0.725,-7.875,-3.575,certain,certain,-3.575,124.292083333333,570.293342612811,3,571.94393017991,575.928768788948,585.432378986774,1.61750749957719,576.929152447461,577.929526826498,0.17,7.50280224307426,580.930714599981,562763,564745,569526,571927,575528,580972
NaN,NaN,False,True,False,0.17,0.17,4.99,-7.37,-0.275,-7.645,-3.96,gamble,lose,-7.645,116.647083333333,587.471156335243,NaN,590.467635252426,594.469138528242,595.452846000622,NaN,NaN,NaN,NaN,NaN,NaN,583372,586973,591775,0,0,592976
NaN,NaN,False,False,True,0.17,0.17,5.16,1.025,2.425,1.4,1.9125,gamble,win,2.425,119.072083333333,597.470280224308,1,599.287633492524,603.272495140271,604.27286215972,1.78429335957117,NaN,NaN,NaN,NaN,NaN,595376,597557,602339,0,0,603560
NaN,NaN,False,True,False,0.17,0.17,5.33,-7.71,2.325,-5.385,-1.53,gamble,lose,-5.385,113.687083333333,606.290327421662,1,608.407804362956,612.392611613748,621.896241330483,2.08439527386508,613.39299143248,614.39336997128,0,7.50281216251824,617.394574383834,605960,608501,613283,615684,619286,624708
NaN,NaN,False,True,True,0,0,5.33,-5.33,1.175,-4.155,-1.49,certain,certain,-1.49,112.197083333333,623.913639716175,3,625.647661650946,629.649134528467,630.632864719573,1.70092074844069,NaN,NaN,NaN,NaN,NaN,627108,629189,633991,0,0,635193
NaN,NaN,False,True,False,0,0,5.33,-5.33,1.675,-3.655,-0.99,gamble,lose,-3.655,108.542083333333,632.650328381609,NaN,635.651433599716,639.636306446839,649.139937763484,NaN,640.636691705262,641.637067364227,0.25,7.50278240418265,644.638210020239,637593,641194,645976,648377,651978,657421
NaN,NaN,False,True,True,0.25,0.25,5.58,-9.08,2.375,-6.705,-2.165,gamble,lose,-6.705,101.837083333333,651.17862519699,1,652.691237770683,656.676078619596,657.676470277664,1.47956098458235,NaN,NaN,NaN,NaN,NaN,659821,661641,666423,0,0,667645
NaN,NaN,False,True,True,0.25,0.25,5.83,-9.33,3.475,-5.855,-1.19,certain,certain,-1.19,100.647083333333,659.693933299735,3,661.544621341203,665.546110217827,675.033051589111,1.81758365531641,666.529854168166,667.530196548993,0.39,7.5027814442401,670.531370243265,670045,672266,677069,679450,683051,688474
NaN,NaN,False,True,True,0.39,0.39,6.22,-11.68,0.525,-11.155,-5.315,gamble,lose,-11.155,89.4920833333333,677.050468853744,NaN,680.051670066474,684.036467077844,685.036900013598,NaN,NaN,NaN,NaN,NaN,NaN,690874,694475,699257,0,0,700479
NaN,NaN,False,False,True,0.39,0.39,6.61,1.91583333333333,0.175,-1.74083333333333,-0.782916666666667,certain,certain,-0.782916666666667,88.7091666666667,687.054276320527,3,689.571900133593,693.55674482229,694.557157599174,2.48455142511739,NaN,NaN,NaN,NaN,NaN,702879,705900,710682,0,0,711903
NaN,NaN,False,True,True,0.39,0.39,7,-12.46,2.275,-10.185,-3.955,gamble,lose,-10.185,78.5241666666667,696.574604942121,1,698.908830065517,702.893659715053,712.39727567256,2.30112329709664,703.894022894718,704.894427352068,0,7.50274624620943,707.89552713048,714303,717104,721886,724287,727888,733332
NaN,NaN,False,True,True,0,0,7,-7,3.375,-3.625,-0.125,gamble,lose,-3.625,74.8991666666667,714.436059100688,1,716.765577927636,720.76715159951,721.750830593486,2.29645251865804,NaN,NaN,NaN,NaN,NaN,735732,738533,743335,0,0,744536
NaN,NaN,False,False,False,0,0,7,0.583333333333333,-0.025,-0.608333333333333,-0.316666666666667,certain,certain,-0.316666666666667,74.5825,723.768207860358,3,726.419263241256,730.420788915821,739.907669490509,2.61796187413347,731.404438471443,732.404823089906,0.2,7.5027779244374,735.406007983551,746936,750117,754919,757300,760902,766325
NaN,NaN,False,True,True,0.2,0.2,7.2,-10,-0.125,-10.125,-5.125,certain,certain,-5.125,69.4575,741.925123553079,3,743.092210836192,747.077082083404,748.077476941289,1.13382354588248,NaN,NaN,NaN,NaN,NaN,768725,770125,774907,0,0,776128
NaN,NaN,False,False,False,0.2,0.2,7.4,1.31666666666667,1.425,0.108333333333333,0.766666666666667,gamble,win,1.425,70.8825,750.094869247321,1,751.978981337044,755.980499012054,765.48409321078,1.867674610221,756.980811954531,757.981244890285,0.5,7.50282016206984,760.982377626853,778528,780789,785591,787992,791594,797017
NaN,NaN,False,True,True,0.5,0.5,7.9,-14.9,0.625,-14.275,-6.825,certain,certain,-6.825,64.0575,767.501519114929,3,768.768629276761,772.770140872111,773.753846424599,1.2340483332955,NaN,NaN,NaN,NaN,NaN,799417,800938,805739,0,0,806940
NaN,NaN,False,True,False,0.5,0.5,8.4,-15.4,-0.075,-15.475,-7.775,gamble,lose,-15.475,48.5825,775.771276168532,NaN,778.772442183235,782.773933299733,783.757691009301,NaN,NaN,NaN,NaN,NaN,NaN,809340,812942,817744,0,0,818945
NaN,NaN,False,True,True,0.5,0.5,8.9,-15.9,1.575,-14.325,-6.375,gamble,lose,-14.325,34.2575,785.775117553418,1,788.059300679161,792.060794355515,801.547773484683,2.2510966585869,793.044510467415,794.044883886501,0,7.50281472237839,797.046088299056,821345,824086,828888,831269,834871,840294
NaN,NaN,False,True,False,0,0,8.9,-8.9,0.475,-8.425,-3.975,gamble,lose,-8.425,25.8325,803.565161310966,1,805.165766077098,809.167331749421,810.150988664634,1.56768116985404,NaN,NaN,NaN,NaN,NaN,842694,844615,849416,0,0,850598
NaN,0.34,True,True,True,0.34,-0.66,-0.66,9.9,1.1,-8.8,-3.85,certain,certain,-3.85,21.9825,831.159015095152,3,832.943009591461,836.927886598351,846.431469277719,1.75089682977705,837.928246258209,838.928583519322,0.41,7.5028124825003,841.929763613236,875805,877946,882728,885129,888731,894154
NaN,NaN,True,True,True,0.41,-0.59,-1.25,9.51,-0.9,-10.41,-5.655,certain,certain,-5.655,16.3275,848.448864143607,3,850.933160543009,854.934652939435,855.918394329918,2.45100834353434,NaN,NaN,NaN,NaN,NaN,896554,899536,904338,0,0,905539
NaN,NaN,True,True,False,0.41,-0.59,-1.84,10.1,13.3,3.2,1.6,gamble,win,13.3,29.6275,857.935793995533,1,859.086230051114,863.087822281952,864.071556952811,1.11738286655964,NaN,NaN,NaN,NaN,NaN,907939,909320,914122,0,0,915343
NaN,NaN,True,False,False,0.41,-0.59,-2.43,-2.2675,13.9,11.6325,5.81625,gamble,lose,11.6325,41.26,866.110233826905,1,867.005946227011,871.00744374315,880.494353116224,0.862649931605119,871.991128176822,872.991506075658,0.43,7.50280320302045,875.992710488212,917743,918823,923625,926006,929608,935031
NaN,NaN,True,True,False,0.43,-0.57,-3,10.98,3.5,-7.48,-1.99,gamble,win,3.5,44.76,882.511888454246,1,884.195777196477,888.197279512347,889.181033702112,1.65078019630892,NaN,NaN,NaN,NaN,NaN,937431,939452,944254,0,0,945455
NaN,NaN,True,True,False,0.43,-0.57,-3.57,11.55,5.1,-6.45,-0.675000000000001,certain,certain,-0.675000000000001,44.085,891.198411608948,3,893.282533298134,897.267391426078,906.770989464589,2.05108417928932,898.267767725007,899.268153303416,0.49,7.50278432407868,902.269331797419,947855,950355,955137,957538,961140,966563
NaN,NaN,True,True,False,0.49,-0.51,-4.08,11.22,12.1,0.879999999999999,0.44,gamble,win,12.1,56.185,908.788458246338,1,909.922185797594,913.92375210988,914.924135448415,1.11714415992901,NaN,NaN,NaN,NaN,NaN,968963,970324,975126,0,0,976347
NaN,NaN,True,False,False,0.49,-0.51,-4.59,-2.1675,10.7,8.5325,4.26625,gamble,lose,8.5325,64.7175,916.941516235089,1,919.05904085371,923.060557568777,932.547488060667,2.08441255290018,924.044261521354,925.044591742862,0.51,7.50282112201603,928.045765757117,978747,981288,986090,988471,992072,997495
NaN,NaN,True,True,True,0.51,-0.49,-5.08,11.94,6.7,-5.24,0.73,certain,certain,0.73,65.4475,934.564919084529,3,936.632326189734,940.633898901662,941.617555816872,2.03437279512218,NaN,NaN,NaN,NaN,NaN,999895,1002376,1007178,0,0,1008380
NaN,NaN,True,True,True,0.51,-0.49,-5.57,12.43,8.7,-3.73,-1.865,certain,certain,-1.865,63.5825,943.634978201218,3,945.702461142177,949.703948418886,950.687722767525,2.03438975417157,NaN,NaN,NaN,NaN,NaN,1010780,1013261,1018063,0,0,1019264
NaN,NaN,True,True,True,0.51,-0.49,-6.06,12.92,8.5,-4.42,-2.21,gamble,win,8.5,72.0825,952.705078275616,1,954.755869031334,958.757493900339,968.244362955673,2.01774876606942,959.741095778634,960.741469837689,0.5,7.50285408017226,963.742625932948,1021664,1024125,1028928,1031308,1034910,1040332
NaN,NaN,True,False,False,0.5,-0.5,-6.56,-2.29666666666667,5.9,3.60333333333333,1.80166666666667,gamble,lose,3.60333333333333,75.6858333333333,970.261750141992,1,971.178795747437,975.180286863935,976.164041373682,0.883922980312491,NaN,NaN,NaN,NaN,NaN,1042732,1043833,1048634,0,0,1049835
NaN,NaN,True,False,False,0.5,-0.5,-7.06,-2.33833333333333,7.9,5.56166666666667,2.78083333333333,gamble,lose,5.56166666666667,81.2475,978.181437519499,1,979.153150143589,983.199994880284,992.686926332124,0.938413688832952,984.183698512883,985.184125368978,0.63,7.5027017686989,988.18522194757,1052235,1053395,1058259,1060640,1064241,1069664
NaN,NaN,True,True,False,0.63,-0.37,-7.43,12.61,-1.1,-13.71,-7.405,gamble,win,-1.1,80.1475,994.704409193084,1,996.52174390234,1000.5232107002,1001.50694313118,1.78413112865746,NaN,NaN,NaN,NaN,NaN,1072064,1074245,1079047,0,0,1080248
NaN,NaN,True,True,False,0.63,-0.37,-7.8,12.98,12.3,-0.68,-0.34,gamble,win,12.3,92.4475,1003.52441575272,1,1004.79157359188,1008.79304198965,1009.77674722215,1.23408289135841,NaN,NaN,NaN,NaN,NaN,1082648,1084169,1088971,0,0,1090172
NaN,NaN,True,True,False,0.63,-0.37,-8.17,13.35,4.1,-9.25,-2.575,certain,certain,-2.575,89.8725,1011.79417312631,3,1014.27845608646,1018.26330109514,1027.7669570504,2.45102178278103,1019.26368123385,1020.26405785276,0.6,7.5028572799929,1023.26520050877,1092572,1095553,1100336,1102736,1106338,1111760
NaN,NaN,True,True,True,0.6,-0.4,-8.57,14.17,4.9,-9.27,-2.185,gamble,win,4.9,94.7725,1029.78438231459,NaN,1032.78548017311,1036.78699752814,1037.7707018007,NaN,NaN,NaN,NaN,NaN,NaN,1114160,1117762,1122564,0,0,1123766
NaN,NaN,True,True,True,0.6,-0.4,-8.97,14.57,13.1,-1.47,-0.735,gamble,win,13.1,107.8725,1039.78814050413,1,1041.37204732535,1045.37362355708,1054.86052173078,1.5508561920542,1046.35732398985,1047.35769772893,0.8,7.5027539257826,1050.3588589439,1126166,1128066,1132868,1135249,1138850,1144273
NaN,NaN,True,False,False,0.8,-0.2,-9.17,-1.46416666666667,6.3,4.83583333333333,2.41791666666667,gamble,lose,4.83583333333333,112.708333333333,1056.87795467454,1,1057.77829721535,1061.76319790092,1062.7635678002,0.867109521866951,NaN,NaN,NaN,NaN,NaN,1146673,1147754,1152536,0,0,1153757
NaN,NaN,True,True,False,0.8,-0.2,-9.37,12.17,8.1,-4.07,-2.035,gamble,win,8.1,120.808333333333,1064.78095082675,1,1067.09850840353,1071.08334029294,1080.58699016855,2.28449542825547,1072.08372203157,1073.08410697001,0.69,7.50275616565705,1076.08524258641,1156157,1158938,1163720,1166121,1169722,1175146
NaN,NaN,True,True,False,0.69,-0.31,-9.68,14.02,6.9,-7.12,-0.109999999999999,certain,certain,-0.109999999999999,120.698333333333,1082.60442567216,3,1084.65516267089,1088.64000255986,1089.64040797715,2.01775036597974,NaN,NaN,NaN,NaN,NaN,1177546,1180007,1184788,0,0,1186010
NaN,NaN,True,True,True,0.69,-0.31,-9.99,14.33,0.5,-13.83,-6.665,gamble,win,0.5,121.198333333333,1091.65781404241,1,1094.09212252114,1098.09359891846,1099.07730095115,2.40116665466849,NaN,NaN,NaN,NaN,NaN,1188410,1191331,1196133,0,0,1197334
NaN,NaN,True,True,False,0.69,-0.31,-10.3,14.64,9.7,-4.94,-2.47,gamble,win,9.7,130.898333333333,1101.09482188997,1,1103.0455196909,1107.04703512603,1116.53395857832,1.91755405697404,1108.03069588103,1109.03112593695,0.84,7.50274688617719,1112.03224587423,1199734,1202075,1206877,1209258,1212859,1218283
NaN,NaN,True,True,True,0.84,-0.16,-10.46,12.7,1.9,-10.8,-4.45,gamble,win,1.9,132.798333333333,1118.55135216428,1,1120.80223379491,1124.80374219044,1125.7874410233,2.21779804330799,NaN,NaN,NaN,NaN,NaN,1220683,1223384,1228186,0,0,1229387
NaN,NaN,True,False,False,0.84,-0.16,-10.62,-1.445,2.5,1.055,1.7775,gamble,lose,1.055,133.853333333333,1127.80490788516,1,1128.65521002824,1132.64001151935,1142.14368955338,0.817224635418825,1133.64046397402,1134.64085499212,0.79,7.50275328581483,1137.64193813146,1231787,1232807,1237589,1239990,1243592,1249015
NaN,NaN,True,True,False,0.79,-0.21,-10.83,13.77,-1.3,-15.07,-8.185,gamble,win,-1.3,132.553333333333,1144.1611285768,1,1145.91173870263,1149.91328293616,1150.89696544993,1.71756493636349,NaN,NaN,NaN,NaN,NaN,1251415,1253516,1258318,0,0,1259519
NaN,NaN,True,True,True,0.79,-0.21,-11.04,13.98,13.5,-0.480000000000002,-0.240000000000001,gamble,win,13.5,146.053333333333,1152.91439871367,1,1154.66508787508,1158.66657803163,1168.15351684306,1.71758925500399,1159.65033510123,1160.65066756262,0.9,7.50278848384551,1163.65182621773,1261919,1264020,1268821,1271202,1274803,1280207
