lifeHappySlider_response,blockHappySlider_response,isHappyBlock,isCongruent,isWinOnTop,lastHappyRating,diff,sumDiff,RPE,winAmount,loseAmount,certainAmount,choice,outcome,outcomeAmount,currentWinnings,outcome1Box_started,choiceKey_keys,outcome1Box_2_started,outcome1Box_3_started,fixCross_ITI_started,fixCross_ISI_started,happyText_started,happySlider_response,happySlider_rt,happySlider_started,choiceKey_rt,trial_sample,choice_sample,outcome_sample,happyText_sample,happySlider_sample,fixCross_ITI_sample
0.38,0.42,True,True,True,0.42,-0.58,-0.58,8.7,6.3,-2.4,1.95,gamble,win,6.3,6.3,1823.44192257919,NaN,1826.44304956298,1830.42791175866,1831.42832709791,NaN,NaN,NaN,NaN,NaN,NaN,14357,17959,22741,0,0,23962
NaN,NaN,True,False,True,0.42,-0.58,-1.16,-2.12666666666667,8.5,6.37333333333333,3.18666666666667,gamble,lose,6.37333333333333,12.6733333333333,1833.44575374795,NaN,1836.44693000923,1840.43176180642,1841.43217458582,NaN,NaN,NaN,NaN,NaN,NaN,26362,29964,34745,0,0,35967
NaN,NaN,True,True,True,0.42,-0.58,-1.74,9.86,-1.3,-11.16,-6.23,gamble,win,-1.3,11.3733333333333,1843.44959579618,NaN,1846.45074837864,1850.45229486143,1859.9392727915,1851.43602943339,1852.43638461566,0.5,7.50281585945049,1855.43752503872,NaN,38367,41968,46770,49151,52752,58176
NaN,NaN,True,True,True,0.5,-0.5,-2.24,9.24,0.7,-8.54,-3.92,gamble,win,0.7,12.0733333333333,1861.95671448082,NaN,1864.95787058311,1868.94273565861,1869.94312827906,NaN,NaN,NaN,NaN,NaN,NaN,60576,64177,68959,0,0,70180
NaN,NaN,True,False,True,0.5,-0.5,-2.74,-1.97833333333333,5.7,3.72166666666667,1.86083333333333,gamble,lose,3.72166666666667,15.795,1871.96056836843,NaN,1874.96175358928,1878.94657642691,1888.45024824358,1879.94697096723,1880.94735494803,0.5,7.50281105970498,1883.94850081083,NaN,72580,76181,80963,83364,86966,92389
NaN,NaN,True,True,True,0.5,-0.5,-3.24,10.24,4.3,-5.94,-0.82,gamble,win,4.3,20.095,1890.46769377275,NaN,1893.46884923504,1897.45371495053,1898.45412836992,NaN,NaN,NaN,NaN,NaN,NaN,94789,98390,103172,0,0,104394
NaN,NaN,True,False,False,0.5,-0.5,-3.74,-2.06166666666667,11.9,9.83833333333333,4.91916666666667,gamble,lose,9.83833333333333,29.9333333333333,1900.47154414048,NaN,1903.47269640298,1907.45756851818,1908.45795313898,NaN,NaN,NaN,NaN,NaN,NaN,106794,110395,115177,0,0,116398
NaN,NaN,True,True,True,0.5,-0.5,-4.24,11.24,-0.9,-12.14,-6.52,certain,certain,-6.52,23.4133333333333,1910.47538170894,3,1912.84296463919,1916.84451368189,1926.33149577171,1917.82828185218,1918.82857207768,0.46,7.50278706086101,1921.8298094559,2.3345295402687,118798,121639,126441,128822,132424,137847
NaN,NaN,True,True,True,0.46,-0.54,-4.78,12.34,2.9,-9.44,-3.27,gamble,win,2.9,26.3133333333333,1928.34897105937,1,1930.18297550589,1934.18451878882,1935.16822360229,NaN,NaN,NaN,NaN,NaN,1.80090497882338,140247,142447,147249,0,0,148451
NaN,NaN,True,True,False,0.46,-0.54,-5.32,12.88,-0.1,-12.98,-6.54,gamble,win,-0.1,26.2133333333333,1937.18567169126,NaN,1940.18683131336,1944.18837523629,1953.67534708668,1945.17207461002,1946.17246275063,0.48,7.50272178417072,1949.1736079735,NaN,150851,154452,159254,161635,165237,170659
NaN,NaN,True,False,True,0.48,-0.52,-5.84,-2.30666666666667,8.7,6.39333333333333,3.19666666666667,gamble,lose,6.39333333333333,32.6066666666667,1955.69279773551,1,1956.77654555487,1960.76141543011,1961.76179589116,NaN,NaN,NaN,NaN,NaN,1.05047972005559,173059,174360,179142,0,0,180364
NaN,NaN,True,True,True,0.48,-0.52,-6.36,13.64,13.7,0.0599999999999987,0.0299999999999994,gamble,win,13.7,46.3066666666667,1963.77924014034,1,1964.64624069969,1968.64780158177,1978.13483038929,1969.6315486331,1970.63187085697,0.5,7.50280146015575,1973.63306183752,0.833941089629661,182764,183804,188606,190987,194588,200011
NaN,NaN,True,True,True,0.5,-0.5,-6.86,13.86,9.1,-4.76,-2.38,gamble,win,9.1,55.4066666666667,1980.15221224155,1,1981.48605541611,1985.47091217205,1986.47130543244,NaN,NaN,NaN,NaN,NaN,1.30077186546987,202411,204012,208794,0,0,210015
NaN,NaN,True,True,True,0.5,-0.5,-7.36,14.36,10.1,-4.26,-2.13,certain,certain,-2.13,53.2766666666667,1988.48875320144,3,1989.93930638983,1993.94085191266,1994.92456376576,NaN,NaN,NaN,NaN,NaN,1.41744412115077,212415,214156,218957,0,0,220159
NaN,NaN,True,True,True,0.5,-0.5,-7.86,14.86,3.3,-11.56,-4.13,gamble,win,3.3,56.5766666666667,1996.94200577505,1,1998.17581458332,2002.17735050665,2011.66437835421,2003.16106779949,2004.16144922044,0.5,7.50278738082852,2007.16260116297,1.20069878111826,222559,224039,228841,231222,234824,240247
NaN,NaN,True,False,False,0.5,-0.5,-8.36,-2.44666666666667,3.9,1.45333333333333,0.726666666666667,gamble,lose,1.45333333333333,58.03,2013.68178100546,1,2014.59879314824,2018.58366366348,2019.58397244808,NaN,NaN,NaN,NaN,NaN,0.883754282956943,242647,243747,248529,0,0,249751
NaN,NaN,True,True,True,0.5,-0.5,-8.86,15.86,13.3,-2.56,-1.28,gamble,win,13.3,71.33,2021.60145733523,1,2023.01870946604,2027.0202466693,2036.50723291893,2028.00395820237,2029.00433962338,0.5,7.50280434003798,2032.00548228633,1.38419618096668,252151,253851,258653,261034,264635,270058
NaN,NaN,True,True,False,0.5,-0.5,-9.36,16.36,10.5,-5.86,-2.93,certain,certain,-2.93,68.4,2038.52467108844,3,2039.85852098261,2043.86005978583,2044.84377707867,NaN,NaN,NaN,NaN,NaN,1.30080002406612,272458,274059,278861,0,0,280062
NaN,NaN,True,False,True,0.5,-0.5,-9.86,-2.57166666666667,4.5,1.92833333333333,0.964166666666667,gamble,lose,1.92833333333333,70.3283333333333,2046.86127252528,1,2048.22841707739,2052.21327863313,2053.21365973412,NaN,NaN,NaN,NaN,NaN,1.33405532396864,282462,284103,288885,0,0,290107
NaN,NaN,True,False,False,0.5,-0.5,-10.36,-2.61333333333333,7.9,5.28666666666667,2.64333333333333,gamble,lose,5.28666666666667,75.615,2055.23110654316,1,2056.14812124579,2060.13298280147,2069.63671221532,2061.13343429897,2062.13382307952,0.5,7.50283025874523,2065.1348700673,0.883920674677938,292507,293607,298389,300789,304391,309814
NaN,NaN,True,False,True,0.5,-0.5,-10.86,-2.655,0.1,-2.555,-1.2275,certain,certain,-1.2275,74.3875,2071.6540886279,3,2073.38809070649,2077.37295962183,2078.37334040285,NaN,NaN,NaN,NaN,NaN,1.70095604826929,312214,314295,319077,0,0,320299
NaN,NaN,True,True,True,0.5,-0.5,-11.36,18.36,2.1,-16.26,-7.08,certain,certain,-7.08,67.3075,2080.39079009177,3,2081.82468171191,2085.82620355592,2095.31319972506,2086.80992660846,2087.81031506904,0.48,7.50279474048875,2090.81145069236,1.40078287292272,322699,324419,329221,331602,335203,340626
NaN,NaN,True,False,False,0.48,-0.52,-11.88,-2.81,13.1,10.29,5.145,gamble,lose,10.29,77.5975,2097.33063757455,1,2098.2976501013,2102.29922570265,2103.28292955615,NaN,NaN,NaN,NaN,NaN,0.93377066613175,343026,344187,348989,0,0,350190
NaN,NaN,True,False,True,0.48,-0.52,-12.4,-2.85333333333333,10.7,7.84666666666667,3.92333333333333,gamble,lose,7.84666666666667,85.4441666666666,2105.30037636519,1,2107.70126291295,2111.70283371455,2121.18978284602,2112.68655260728,2113.68693530821,0.5,7.50284113816451,2116.6880770112,2.36780723906122,352590,355471,360273,362654,366255,371679
NaN,NaN,True,True,False,0.5,-0.5,-12.9,19.9,8.9,-11,-1.05,gamble,win,8.9,94.3441666666666,2123.20726389339,1,2125.30807422096,2129.30961142422,2130.29332615715,NaN,NaN,NaN,NaN,NaN,2.06772045936668,374079,376599,381401,0,0,382603
NaN,NaN,True,False,True,0.5,-0.5,-13.4,-2.86666666666667,9.9,7.03333333333333,3.51666666666667,gamble,lose,7.03333333333333,101.3775,2132.31076688651,1,2133.74465274694,2137.72952102229,2138.72989636357,NaN,NaN,NaN,NaN,NaN,1.40079215244623,385003,386723,391505,0,0,392727
NaN,NaN,True,False,True,0.5,-0.5,-13.9,-2.90833333333333,7.5,4.59166666666667,2.29583333333333,gamble,lose,4.59166666666667,105.969166666667,2140.74733357312,1,2142.24798954034,2146.23278197955,2155.73644675658,2147.23317427991,2148.23356466048,0.5,7.50282193912426,2151.23470796336,1.46732899092603,395127,396927,401709,404110,407711,413115
NaN,0.48,False,True,True,0.48,0.48,0.48,-7.2,11.1,3.9,1.95,gamble,lose,3.9,109.869166666667,2169.97526235488,1,2171.84264849499,2175.82751549041,2176.82786971272,NaN,NaN,NaN,NaN,NaN,1.83428763237316,430200,432441,437223,0,0,438444
NaN,NaN,False,False,False,0.48,0.48,0.96,1.76,2.075,0.315,1.195,gamble,win,2.075,111.944166666667,2178.84534564032,1,2180.19586094259,2184.18072857801,2193.68438887532,2185.18112503825,2186.18149365985,0.47,7.50284785788972,2189.18263760273,1.31746479216963,440844,442465,447247,449648,453249,458673
NaN,NaN,False,True,True,0.47,0.47,1.43,-8.01,10.1,2.09,1.045,gamble,lose,2.09,114.034166666667,2195.70183120458,1,2198.36952523328,2202.37106147659,2203.35477684956,NaN,NaN,NaN,NaN,NaN,2.63460032077273,461073,464274,469076,0,0,470277
NaN,NaN,False,True,True,0.47,0.47,1.9,-8.48,9.7,1.22,0.609999999999999,gamble,lose,1.22,115.254166666667,2205.37221853883,1,2208.1899793162,2212.17482871254,2221.6784874099,2213.17522101296,2214.17560659372,0.46,7.50285265763523,2217.1767489367,2.78466770937666,472677,476059,480840,483241,486843,492266
NaN,NaN,False,False,False,0.46,0.46,2.36,1.80666666666667,3.325,1.51833333333333,0.759166666666667,certain,certain,0.759166666666667,116.013333333333,2223.69594125863,3,2226.56371361943,2230.54849133932,2231.54895659606,NaN,NaN,NaN,NaN,NaN,2.83466809336096,494666,498107,502889,0,0,504110
NaN,NaN,False,True,True,0.46,0.46,2.82,-9.26,4.5,-4.76,-0.13,gamble,lose,-4.76,111.253333333333,2233.56640628498,NaN,2236.56755630759,2240.55242202309,2241.55280728388,NaN,NaN,NaN,NaN,NaN,NaN,506510,510112,514893,0,0,516115
NaN,NaN,False,True,False,0.46,0.46,3.28,-9.72,7.3,-2.42,-1.21,gamble,lose,-2.42,108.833333333333,2243.57025601284,1,2245.90448284819,2249.90602229134,2259.39299702161,2250.88977638236,2251.89012164512,0.46,7.50296977174003,2254.89125310862,2.30112064804416,518515,521316,526118,528499,532100,537523
NaN,NaN,False,True,True,0.46,0.46,3.74,-10.18,0.7,-9.48,-4.39,gamble,lose,-9.48,99.3533333333333,2261.4104486304,1,2263.91141786199,2267.91295698518,2268.89666211861,NaN,NaN,NaN,NaN,NaN,2.46788736304734,539923,542925,547727,0,0,548928
NaN,NaN,False,True,False,0.46,0.46,4.2,-10.64,6.9,-3.74,1.58,gamble,lose,-3.74,95.6133333333333,2270.91411724727,1,2273.56512858876,2277.54999558424,2287.053646282,2278.55038148497,2279.55076194595,0.5,7.502820659196,2282.55190556886,2.61790323426249,551328,554509,559291,561692,565293,570717
NaN,NaN,False,True,False,0.5,0.5,4.7,-11.7,-1.1,-12.8,-6.95,certain,certain,-6.95,88.6633333333333,2289.07109149109,3,2291.40532536613,2295.40686288942,2296.3905785823,NaN,NaN,NaN,NaN,NaN,2.30112864763942,573117,575918,580720,0,0,581921
NaN,NaN,False,False,False,0.5,0.5,5.2,2.18333333333333,1.025,-1.15833333333333,-0.0666666666666669,gamble,win,1.025,89.6883333333333,2298.40802187152,1,2300.80892985821,2304.7937600555,2305.79419427383,NaN,NaN,NaN,NaN,NaN,2.36781619861722,584321,587202,591984,0,0,593205
NaN,NaN,False,False,True,0.5,0.5,5.7,2.225,-0.375,-2.6,-1.4875,certain,certain,-1.4875,88.2008333333333,2307.81164492271,3,2310.1625477256,2314.16408364894,2323.65106285893,2315.1477948621,2316.14818364265,0.5,7.5027710616705,2319.14932470571,2.31774893798865,595605,598426,603228,605609,609211,614634
NaN,NaN,False,False,False,0.5,0.5,6.2,2.26666666666667,1.225,-1.04166666666667,0.0916666666666668,gamble,win,1.225,89.4258333333333,2325.66851222789,1,2327.93605407217,2331.92091626785,2332.92125641089,NaN,NaN,NaN,NaN,NaN,2.23448493453907,617034,619755,624537,0,0,625758
NaN,NaN,False,True,False,0.5,0.5,6.7,-13.7,1.3,-12.4,-5.55,gamble,lose,-12.4,77.0258333333333,2334.93874961761,1,2337.60644204641,2341.59131320164,2351.09496357944,2342.5916923827,2343.59208180325,0.5,7.50281105964677,2346.59321966645,2.63441121019423,628158,631359,636141,638542,642144,647566
NaN,NaN,False,True,True,0.5,0.5,7.2,-14.2,5.3,-8.9,-1.8,gamble,lose,-8.9,68.1258333333333,2353.11240462877,1,2354.67968287022,2358.66454090609,2359.66493064666,NaN,NaN,NaN,NaN,NaN,1.53400854230858,649966,651847,656629,0,0,657851
NaN,NaN,False,True,True,0.5,0.5,7.7,-14.7,7.1,-7.6,-0.25,gamble,lose,-7.6,60.5258333333333,2361.68237361591,1,2363.44972282986,2367.45125779323,2376.93824596278,2368.43496452656,2369.43538146577,0.5,7.50281713937875,2372.43649821001,1.73428398458054,660251,662372,667174,669554,673156,678579
NaN,NaN,False,False,True,0.5,0.5,8.2,2.43333333333333,0.275,-2.15833333333333,-0.941666666666667,gamble,win,0.275,60.8008333333333,2378.95569149189,NaN,2381.95684279443,2385.95838191756,2386.9420912108,NaN,NaN,NaN,NaN,NaN,NaN,680979,684580,689382,0,0,690583
NaN,NaN,False,True,False,0.5,0.5,8.7,-15.7,6.3,-9.4,-1.55,gamble,lose,-9.4,51.4008333333333,2388.95954025973,1,2390.86025657598,2394.86181201832,2395.84552131157,NaN,NaN,NaN,NaN,NaN,1.8676062891027,692983,695264,700066,0,0,701268
NaN,NaN,False,False,False,0.5,0.5,9.2,2.51666666666667,0.925,-1.59166666666667,-0.333333333333333,certain,certain,-0.333333333333333,51.0675,2397.86298763967,3,2400.08054349927,2404.06534681789,2413.56900807511,2405.06573847833,2406.06612053927,0.46,7.50278194108978,2409.0672612823,2.18448391056154,703668,706329,711110,713512,717113,722536
NaN,NaN,False,False,False,0.46,0.46,9.66,2.415,-0.025,-2.44,-1.2325,gamble,win,-0.025,51.0425,2415.5864507244,1,2416.75356878183,2420.75509190583,2421.73881207849,NaN,NaN,NaN,NaN,NaN,1.13401634991169,724936,726337,731138,0,0,732340
NaN,NaN,False,False,False,0.46,0.46,10.12,2.45333333333333,3.025,0.571666666666666,1.79833333333333,gamble,win,3.025,54.0675,2423.75626208738,1,2425.50693597377,2429.49180456909,2438.99546134658,2430.49218663003,2431.49257253075,0.43,7.50281937926775,2434.4937142338,1.71761793649057,734740,736841,741623,744023,747625,753048
NaN,NaN,False,True,False,0.43,0.43,10.55,-16.57,13.1,-3.47,-1.735,gamble,lose,-3.47,50.5975,2441.01288959658,1,2442.79691957776,2446.7984596609,2447.78217695374,NaN,NaN,NaN,NaN,NaN,1.75092603376834,755448,757589,762391,0,0,763592
NaN,NaN,False,True,True,0.43,0.43,10.98,-17,4.3,-12.7,-4.2,gamble,lose,-12.7,37.8975,2449.79962280282,NaN,2452.8008336224,2456.80231482844,2466.28929851821,2457.78601676202,2458.78641098237,0.41,7.50286705687176,2461.7875718844,NaN,765992,769593,774395,776776,780378,785801
NaN,NaN,False,False,False,0.41,0.41,11.39,2.38416666666667,0.075,-2.30916666666667,-1.11708333333333,gamble,win,0.075,37.9725,2468.30671364884,1,2470.00740315043,2474.00893331406,2474.99270692409,NaN,NaN,NaN,NaN,NaN,1.66758395417128,788201,790242,795043,0,0,796245
NaN,NaN,False,False,False,0.41,0.41,11.8,2.41833333333333,0.525,-1.89333333333333,-0.684166666666667,gamble,win,0.525,38.4975,2477.0100855765,1,2479.51107432717,2483.51259393129,2484.49629842478,NaN,NaN,NaN,NaN,NaN,2.46787584363483,798645,801646,806448,0,0,807649
NaN,NaN,False,True,False,0.41,0.41,12.21,-17.95,13.5,-4.45,-2.225,gamble,lose,-4.45,34.0475,2486.51374715375,1,2488.49784778745,2492.4993824308,2501.98639811901,2493.48309556389,2494.48342994717,0.41,7.50282897875877,2497.48463692691,1.95103860413656,810049,812430,817232,819613,823214,828637
NaN,NaN,False,False,True,0.41,0.41,12.62,2.48666666666667,3.125,0.638333333333334,1.88166666666667,gamble,win,3.125,37.1725,2504.00381228968,1,2505.90449212777,2509.88942471991,2510.88979334151,NaN,NaN,NaN,NaN,NaN,1.86768660508096,831037,833319,838100,0,0,839302
NaN,0.47,True,False,False,0.47,-0.53,-0.53,-1.89916666666667,2.3,0.400833333333333,1.35041666666667,gamble,lose,0.400833333333333,37.5733333333333,2532.29803216225,1,2533.69857248728,2537.68343180307,2547.18709018047,2538.68381866376,2539.68421576393,0.42,7.50275858229725,2542.68535170722,1.36745749652619,864991,866672,871454,873854,877456,882879
NaN,NaN,True,False,True,0.42,-0.58,-1.11,-2.1225,-0.9,-3.0225,-1.96125,certain,certain,-1.96125,35.6120833333333,2549.20454050932,3,2550.83848710271,2554.84004190512,2555.82371376018,NaN,NaN,NaN,NaN,NaN,1.60083496628795,885279,887240,892041,0,0,893243
NaN,NaN,True,False,False,0.42,-0.58,-1.69,-2.17083333333333,4.7,2.52916666666667,1.26458333333333,gamble,lose,2.52916666666667,38.14125,2557.8411980074,1,2559.19171522959,2563.17658382491,2564.17696684581,NaN,NaN,NaN,NaN,NaN,1.31724656303413,895643,897264,902046,0,0,903267
NaN,NaN,True,True,False,0.42,-0.58,-2.27,10.39,4.9,-5.49,-0.295,gamble,win,4.9,43.04125,2566.19441269489,1,2568.21185022441,2572.21339382738,2581.7004066357,2573.19710536051,2574.19748774142,0.43,7.50282417901326,2577.19862176478,1.98417103016982,905667,908088,912889,915271,918872,924295
NaN,NaN,True,False,True,0.43,-0.57,-2.84,-2.23166666666667,13.5,11.2683333333333,5.63416666666667,gamble,lose,11.2683333333333,54.3095833333333,2583.71782112634,1,2584.93495300715,2588.93649501016,2589.92020078358,NaN,NaN,NaN,NaN,NaN,1.18404649238801,926695,928156,932958,0,0,934159
NaN,NaN,True,True,False,0.43,-0.57,-3.41,11.39,5.9,-5.49,0.205,gamble,win,5.9,60.2095833333333,2591.93764439278,1,2594.85545105586,2598.85698985908,2608.34395690967,2599.84075034974,2600.84108025325,0.46,7.50282161915675,2603.84221203678,2.88471231516451,936559,940060,944862,947243,950845,956268
NaN,NaN,True,True,False,0.46,-0.54,-3.95,11.51,5.7,-5.81,-0.0550000000000006,gamble,win,5.7,65.9095833333333,2610.36140755855,1,2611.52852017625,2615.53002986091,2616.51377307245,NaN,NaN,NaN,NaN,NaN,1.13401315006195,958668,960068,964870,0,0,966072
NaN,NaN,True,True,False,0.46,-0.54,-4.49,12.05,0.3,-11.75,-5.725,certain,certain,-5.725,60.1845833333333,2618.5312176416,3,2620.44865376322,2624.45015768812,2633.93714425777,2625.4338717811,2626.43425480201,0.43,7.502820659196,2629.43539714499,1.88429889583495,968472,970773,975574,977955,981556,986980
NaN,NaN,True,True,False,0.43,-0.57,-5.06,13.04,0.9,-12.14,-5.62,certain,certain,-5.62,54.5645833333333,2635.95458562707,3,2637.62195455201,2641.6235010348,2642.60715273093,NaN,NaN,NaN,NaN,NaN,1.63404002872994,989380,991380,996182,0,0,997384
NaN,NaN,True,True,True,0.43,-0.57,-5.63,13.61,11.1,-2.51,-1.255,gamble,win,11.1,65.6645833333333,2644.62464785756,1,2646.87549517525,2650.86030361365,2651.86077111028,NaN,NaN,NaN,NaN,NaN,2.21772545116255,999784,1002485,1007267,0,0,1008488
NaN,NaN,True,True,True,0.43,-0.57,-6.2,14.18,6.3,-7.88,-0.790000000000002,gamble,win,6.3,71.9645833333333,2653.87813408353,1,2656.17903330264,2660.18057722558,2669.66755643557,2661.16428491886,2662.16467049962,0.43,7.50282577890903,2665.16581060272,2.2677991114324,1010888,1013649,1018451,1020832,1024433,1029857
NaN,NaN,True,True,False,0.43,-0.57,-6.77,14.75,3.5,-11.25,-3.875,certain,certain,-3.875,68.0895833333333,2671.6850038846,3,2673.73578918941,2677.73733215238,2678.72104176559,NaN,NaN,NaN,NaN,NaN,2.01768135733437,1032257,1034717,1039519,0,0,1040721
NaN,NaN,True,True,True,0.43,-0.57,-7.34,15.32,4.5,-10.82,-3.16,gamble,win,4.5,72.5895833333333,2680.73848889465,1,2683.45619866654,2687.45771187101,2696.94472051953,2688.44144900289,2689.44183266372,0.45,7.50245651736623,2692.44297404675,2.68443655292504,1043121,1046382,1051184,1053565,1057166,1062589
NaN,NaN,True,True,False,0.45,-0.55,-7.89,15.59,6.1,-9.49,-1.695,gamble,win,6.1,78.6895833333333,2698.96216700861,1,2700.44604525343,2704.44758373662,2705.43132246839,NaN,NaN,NaN,NaN,NaN,1.45080949558178,1064989,1066770,1071572,0,0,1072774
NaN,NaN,True,False,False,0.45,-0.55,-8.44,-2.62833333333333,9.1,6.47166666666667,3.23583333333333,gamble,lose,6.47166666666667,85.16125,2707.44877279724,1,2708.83258563734,2712.81746223225,2713.81788493117,NaN,NaN,NaN,NaN,NaN,1.35076872963691,1075174,1076834,1081616,0,0,1082837
NaN,NaN,True,False,False,0.45,-0.55,-8.99,-2.67416666666667,-0.3,-2.97416666666667,-1.63708333333333,gamble,lose,-2.97416666666667,82.1870833333333,2715.83538485761,NaN,2718.8364708834,2722.83801768615,2732.32500073593,2723.82170074072,2724.82211352012,0.41,7.50279890029924,2727.82326994237,NaN,1085237,1088839,1093641,1096021,1099623,1105046
NaN,NaN,True,True,True,0.41,-0.59,-9.58,17.84,8.1,-9.74,-0.820000000000002,gamble,win,8.1,90.2870833333333,2734.34245394467,1,2735.85969948379,2739.86123636708,2740.84493670077,NaN,NaN,NaN,NaN,NaN,1.48419854883105,1107446,1109267,1114069,0,0,1115270
NaN,NaN,True,True,False,0.41,-0.59,-10.17,18.43,9.9,-8.53000000000001,0.684999999999997,gamble,win,9.9,100.187083333333,2742.86239886907,1,2744.21291065152,2748.19777924684,2757.70143122453,2749.19816642755,2750.19854496862,0.46,7.50283601839328,2753.19968411175,1.31742319423938,1117670,1119290,1124073,1126473,1130075,1135498
NaN,NaN,True,False,True,0.46,-0.54,-10.71,-2.7825,3.7,0.9175,0.45875,gamble,lose,0.9175,101.104583333333,2759.71888635319,1,2761.61961162899,2765.60447638453,2766.60485780548,NaN,NaN,NaN,NaN,NaN,1.86763828748371,1137898,1140179,1144961,0,0,1146182
NaN,NaN,True,True,False,0.46,-0.54,-11.25,18.81,2.7,-16.11,-6.705,gamble,win,2.7,103.804583333333,2768.62236893136,1,2770.13955879322,2774.14109919633,2783.62813600345,2775.12480496976,2776.12519151042,0.45,7.50282161915675,2779.1263895306,1.48409103415906,1148582,1150403,1155205,1157586,1161187,1166610
NaN,NaN,True,False,True,0.45,-0.55,-11.8,-2.90833333333333,7.9,4.99166666666667,2.49583333333333,gamble,lose,4.99166666666667,108.79625,2785.64559689182,1,2787.04605306103,2791.03096741409,2792.03130339732,NaN,NaN,NaN,NaN,NaN,1.36737974040443,1169010,1170691,1175473,0,0,1176694
NaN,NaN,True,True,True,0.45,-0.55,-12.35,20.05,7.1,-12.95,-2.925,gamble,win,7.1,115.89625,2794.04875340621,1,2795.66604035127,2799.66758107435,2800.65124844969,NaN,NaN,NaN,NaN,NaN,1.58418011770118,1179094,1181035,1185837,0,0,1187038
NaN,NaN,True,True,True,0.45,-0.55,-12.9,20.6,10.3,-10.3,-3.5527136788005e-15,gamble,win,10.3,126.19625,2802.6687640553,NaN,2805.66989487887,2809.67143592192,2819.15841865173,2810.6551320958,2811.65553591563,0.53,7.50281233957503,2814.65667089901,NaN,1189438,1193040,1197841,1200222,1203824,1209247
NaN,NaN,True,True,False,0.53,-0.47,-13.37,19.95,-1.3,-21.25,-11.275,gamble,win,-1.3,124.89625,2821.17592017807,NaN,2824.17701292352,2828.17854916683,2829.16226069996,NaN,NaN,NaN,NaN,NaN,NaN,1211647,1215248,1220050,0,0,1221251
NaN,NaN,True,True,False,0.53,-0.47,-13.84,20.42,5.5,-14.92,-4.71,gamble,win,5.5,130.39625,2831.17971006886,1,2832.53022761102,2836.53176961408,2846.01875266386,2837.51540467102,2838.51586096821,0.46,7.50282481900649,2841.5170017113,1.31746895198012,1223651,1225272,1230074,1232455,1236056,1241480
NaN,NaN,True,False,True,0.46,-0.54,-14.38,-3.08833333333333,7.3,4.21166666666667,2.10583333333333,gamble,lose,4.21166666666667,134.607916666667,2848.03619787301,1,2849.15331170667,2853.13814798364,2854.13854348392,NaN,NaN,NaN,NaN,NaN,1.08400220656767,1243880,1245220,1250002,0,0,1251223
NaN,NaN,True,True,True,0.46,-0.54,-14.92,22.48,1.9,-20.58,-9.34,gamble,win,1.9,136.507916666667,2856.15598549321,1,2857.90666577924,2861.89152061526,2871.39518795221,2862.89191259572,2863.89230233629,0.46,7.5027867408935,2866.89343827957,1.7175801784033,1253623,1255724,1260506,1262907,1266508,1271911
